ACCELEROMETER X (m/s²),ACCELEROMETER Y (m/s²),ACCELEROMETER Z (m/s²),GRAVITY X (m/s²),GRAVITY Y (m/s²),GRAVITY Z (m/s²),GYROSCOPE X (rad/s),GYROSCOPE Y (rad/s),GYROSCOPE Z (rad/s),MAGNETIC FIELD X (μT),MAGNETIC FIELD Y (μT),MAGNETIC FIELD Z (μT),ORIENTATION Z (azimuth °),ORIENTATION X (pitch °),ORIENTATION Y (roll °),LOCATION Latitude : ,LOCATION Longitude : ,LOCATION Altitude ( m),LOCATION Altitude-google ( m),LOCATION Speed ( m/s),LOCATION Accuracy ( m),LOCATION ORIENTATION (°),Satellites in range,GPS NMEA,Time since start in ms ,YYYY-MO-DD HH-MI-SS_SSS
0.004789,0.131685,9.766247,0.143401,0.133432,9.804694,-9.77E-4,0.003359,0.203233,4.92,-35.46,-12.9,188.4768,-0.7796,-0.8379,55.81407,37.500393,210.7,NaN,,13.031,,0 / 2,,24,2021-05-02 18:58:56:653
0.004789,0.131685,9.766247,0.143175,0.13252,9.804709,-3.67E-4,0.003969,0.221559,4.68,-36.24,-11.34,188.4768,-0.7796,-0.8379,55.81407,37.500393,210.7,NaN,,13.031,,0 / 2,,34,2021-05-02 18:58:56:663
-0.160416,0.174782,9.759064,0.143175,0.13252,9.804709,0.001466,0.001526,0.225224,4.68,-36.24,-11.34,188.4768,-0.7796,-0.8379,55.81407,37.500393,210.7,NaN,,13.031,,0 / 2,,44,2021-05-02 18:58:56:673
-0.150839,0.165205,9.761458,0.142669,0.132098,9.804723,0.002077,0.007024,0.224002,4.44,-36.66,-11.52,186.4661,-0.7743,-0.8366,55.81407,37.500393,210.7,NaN,,13.031,,0 / 2,,54,2021-05-02 18:58:56:683
-0.181965,0.076617,9.737515,0.142669,0.132098,9.804723,-3.67E-4,0.002137,0.228279,4.44,-36.66,-11.52,186.4661,-0.7743,-0.8366,55.81407,37.500393,210.7,NaN,,13.031,,0 / 2,,64,2021-05-02 18:58:56:693
0.002394,0.119714,9.737515,0.141749,0.131445,9.804745,-0.002199,-0.004583,0.252713,4.44,-35.82,-12.9,186.4661,-0.7743,-0.8366,55.81407,37.500393,210.7,NaN,,13.031,,0 / 2,,74,2021-05-02 18:58:56:703
0.002394,0.119714,9.737515,0.141749,0.131445,9.804745,-9.77E-4,-9.18E-4,0.272872,4.44,-35.82,-12.9,186.4661,-0.7743,-0.8366,55.81407,37.500393,210.7,NaN,,13.031,,0 / 2,,84,2021-05-02 18:58:56:713
0.148445,0.107742,9.799767,0.142772,0.130869,9.804738,-9.77E-4,0.002748,0.284478,3.78,-35.52,-13.26,186.6672,-0.768,-0.8283,55.81407,37.500393,210.7,NaN,,13.031,,0 / 2,,94,2021-05-02 18:58:56:723
-0.31365,-0.011971,9.785401,0.142772,0.130869,9.804738,0.001466,-9.18E-4,0.335791,3.78,-35.52,-13.26,186.6672,-0.768,-0.8283,55.81407,37.500393,210.7,NaN,,13.031,,0 / 2,,104,2021-05-02 18:58:56:733
-0.751802,-0.031126,9.77343,0.143048,0.129878,9.804747,-3.67E-4,3.04E-4,0.441471,3.06,-36.06,-12.96,186.6672,-0.768,-0.8283,55.81407,37.500393,210.7,NaN,,13.031,,0 / 2,,114,2021-05-02 18:58:56:743
-0.385478,-0.011971,9.783007,0.143048,0.129878,9.804747,-0.00281,-0.002139,0.562422,3.06,-36.06,-12.96,186.6672,-0.768,-0.8283,55.81407,37.500393,210.7,NaN,,13.031,,0 / 2,,124,2021-05-02 18:58:56:753
-0.385478,-0.011971,9.783007,0.142736,0.12827,9.804772,-0.001588,-0.006415,0.635115,3.18,-36.24,-12.72,185.0873,-0.7588,-0.8359,55.81407,37.500393,210.7,NaN,,13.031,,0 / 2,,134,2021-05-02 18:58:56:763
0.002394,0.146051,9.749487,0.142736,0.12827,9.804772,-0.002199,0.00458,0.655273,3.18,-36.24,-12.72,185.0873,-0.7588,-0.8359,55.81407,37.500393,210.7,NaN,,13.031,,0 / 2,,144,2021-05-02 18:58:56:773
0.407027,0.215485,9.766247,0.143224,0.126015,9.804794,-0.00281,0.001526,0.607626,2.4,-36.3,-12.42,185.0873,-0.7588,-0.8359,55.81407,37.500393,210.7,NaN,,13.031,,0 / 2,,154,2021-05-02 18:58:56:783
0.265765,0.062251,9.77343,0.143224,0.126015,9.804794,-0.00281,0.007635,0.596019,2.4,-36.3,-12.42,185.0873,-0.7588,-0.8359,55.81407,37.500393,210.7,NaN,,13.031,,0 / 2,,164,2021-05-02 18:58:56:793
0.265765,0.062251,9.77343,0.143812,0.124025,9.804811,-3.67E-4,0.010078,0.592354,1.02,-36.42,-12.6,181.9019,-0.7363,-0.8369,55.81407,37.500393,210.7,NaN,,13.031,,0 / 2,,175,2021-05-02 18:58:56:804
-0.093377,0.057463,9.718362,0.143812,0.124025,9.804811,-3.67E-4,0.010078,0.592354,1.02,-36.42,-12.6,181.9019,-0.7363,-0.8369,55.81407,37.500393,210.7,NaN,,13.031,,0 / 2,,184,2021-05-02 18:58:56:813
-0.055068,0.057463,9.75667,0.14368,0.121743,9.804842,-0.00281,0.006413,0.674821,-0.42,-36.36,-13.08,181.9019,-0.7363,-0.8369,55.81407,37.500393,210.7,NaN,,13.031,,0 / 2,,194,2021-05-02 18:58:56:823
0.447729,0.081405,9.771035,0.14368,0.121743,9.804842,-0.00281,0.006413,0.674821,-0.42,-36.36,-13.08,181.9019,-0.7363,-0.8369,55.81407,37.500393,210.7,NaN,,13.031,,0 / 2,,204,2021-05-02 18:58:56:833
0.282524,-0.01676,9.749487,0.142593,0.119524,9.804885,-0.004032,0.005191,0.656495,-1.62,-35.82,-12.66,177.1096,-0.7113,-0.8396,55.81407,37.500393,210.7,NaN,,13.031,,0 / 2,,214,2021-05-02 18:58:56:843
0.282524,-0.01676,9.749487,0.142593,0.119524,9.804885,-9.77E-4,0.005802,0.655273,-1.62,-35.82,-12.66,177.1096,-0.7113,-0.8396,55.81407,37.500393,210.7,NaN,,13.031,,0 / 2,,224,2021-05-02 18:58:56:853
-0.06704,-0.045491,9.77343,0.143335,0.117353,9.804901,-9.77E-4,0.005802,0.655273,-2.22,-36.12,-12.42,177.1096,-0.7113,-0.8396,55.81407,37.500393,210.7,NaN,,13.031,,0 / 2,,234,2021-05-02 18:58:56:863
-0.052674,0.043097,9.73991,0.143335,0.117353,9.804901,8.55E-4,0.005802,0.685817,-2.22,-36.12,-12.42,177.1096,-0.7113,-0.8396,55.81407,37.500393,210.7,NaN,,13.031,,0 / 2,,244,2021-05-02 18:58:56:873
-0.155628,0.040703,9.77343,0.143961,0.114767,9.804922,-0.003421,0.003969,0.745681,-2.46,-36.84,-12.36,177.166,-0.6857,-0.8375,55.81407,37.500393,210.7,NaN,,13.031,,0 / 2,,254,2021-05-02 18:58:56:883
0.217879,0.265765,9.771035,0.143961,0.114767,9.804922,-3.67E-4,0.005802,0.785388,-2.46,-36.84,-12.36,177.166,-0.6857,-0.8375,55.81407,37.500393,210.7,NaN,,13.031,,0 / 2,,264,2021-05-02 18:58:56:893
0.217879,0.265765,9.771035,0.144056,0.112064,9.804952,-0.003421,9.15E-4,0.767673,-3.42,-35.46,-12.48,177.166,-0.6857,-0.8375,55.81407,37.500393,210.7,NaN,,13.031,,0 / 2,,274,2021-05-02 18:58:56:903
-0.141262,0.119714,9.751882,0.144056,0.112064,9.804952,-3.67E-4,0.003359,0.795161,-3.42,-35.46,-12.48,177.166,-0.6857,-0.8375,55.81407,37.500393,210.7,NaN,,13.031,,0 / 2,,284,2021-05-02 18:58:56:913
-0.114925,0.172388,9.804555,0.145671,0.109453,9.804957,-0.00281,0.005802,0.852583,-4.98,-34.74,-12.48,172.1226,-0.6548,-0.8417,55.81407,37.500393,210.7,NaN,,13.031,,0 / 2,,295,2021-05-02 18:58:56:924
-0.05028,0.158022,9.768641,0.145671,0.109453,9.804957,-0.00281,0.002137,0.864189,-4.98,-34.74,-12.48,172.1226,-0.6548,-0.8417,55.81407,37.500393,210.7,NaN,,13.031,,0 / 2,,304,2021-05-02 18:58:56:933
0.124502,0.088588,9.744699,0.146855,0.106896,9.804968,0.001466,0.007024,0.881904,-6.18,-34.98,-12.12,172.1226,-0.6548,-0.8417,55.81407,37.500393,210.7,NaN,,13.031,,0 / 2,,314,2021-05-02 18:58:56:943
0.124502,0.088588,9.744699,0.146855,0.106896,9.804968,-0.00281,0.010078,0.883737,-6.18,-34.98,-12.12,172.1226,-0.6548,-0.8417,55.81407,37.500393,210.7,NaN,,13.031,,0 / 2,,324,2021-05-02 18:58:56:953
0.105348,0.0838,9.797373,0.147325,0.104246,9.80499,-0.003421,0.003969,0.877017,-7.56,-34.38,-11.82,166.9987,-0.6246,-0.8581,55.81407,37.500393,210.7,NaN,,13.031,,0 / 2,,334,2021-05-02 18:58:56:963
0.158022,0.095771,9.854836,0.147325,0.104246,9.80499,-0.001588,0.008245,0.862968,-7.56,-34.38,-11.82,166.9987,-0.6246,-0.8581,55.81407,37.500393,210.7,NaN,,13.031,,0 / 2,,344,2021-05-02 18:58:56:973
0.06704,0.074223,9.73991,0.148843,0.101055,9.805,-0.005253,-3.07E-4,0.867854,-8.88,-33.72,-11.46,166.9987,-0.6246,-0.8581,55.81407,37.500393,210.7,NaN,,13.031,,0 / 2,,354,2021-05-02 18:58:56:983
0.057463,-0.004789,9.766247,0.148843,0.101055,9.805,-0.002199,0.00458,0.866022,-8.88,-33.72,-11.46,166.9987,-0.6246,-0.8581,55.81407,37.500393,210.7,NaN,,13.031,,0 / 2,,364,2021-05-02 18:58:56:993
0.057463,-0.004789,9.766247,0.149903,0.0978,9.805017,-0.003421,0.001526,0.870909,-9.96,-33.9,-11.94,163.8418,-0.5714,-0.8759,55.81407,37.500393,210.7,NaN,,13.031,,0 / 2,,374,2021-05-02 18:58:57:003
0.253793,0.038308,9.766247,0.149903,0.0978,9.805017,-0.004643,-0.001528,0.88557,-9.96,-33.9,-11.94,163.8418,-0.5714,-0.8759,55.81407,37.500393,210.7,NaN,,13.031,,0 / 2,,385,2021-05-02 18:58:57:014
0.361536,0.086194,9.730332,0.150188,0.094969,9.80504,-0.004643,-0.001528,0.88557,-11.4,-33.54,-11.88,163.8418,-0.5714,-0.8759,55.81407,37.500393,210.7,NaN,,13.031,,0 / 2,,394,2021-05-02 18:58:57:023
0.122108,0.01676,9.735122,0.150188,0.094969,9.80504,-0.001588,3.04E-4,0.893511,-11.4,-33.54,-11.88,163.8418,-0.5714,-0.8759,55.81407,37.500393,210.7,NaN,,13.031,,0 / 2,,404,2021-05-02 18:58:57:033
0.210696,0.086194,9.73991,0.151069,0.09201,9.805055,-0.002199,0.012522,0.925887,-11.88,-32.64,-11.16,160.2205,-0.5376,-0.8827,55.81407,37.500393,210.7,NaN,,13.031,,0 / 2,,414,2021-05-02 18:58:57:043
0.210696,0.086194,9.73991,0.151069,0.09201,9.805055,-9.77E-4,0.003969,0.946045,-11.88,-32.64,-11.16,160.2205,-0.5376,-0.8827,55.81407,37.500393,210.7,NaN,,13.031,,0 / 2,,424,2021-05-02 18:58:57:053
0.05028,0.055068,9.725544,0.15114,0.088818,9.805083,-0.00281,0.005191,0.960095,-12.54,-32.04,-11.1,160.2205,-0.5376,-0.8827,55.81407,37.500393,210.7,NaN,,13.031,,0 / 2,,435,2021-05-02 18:58:57:064
-0.167599,0.031126,9.771035,0.15114,0.088818,9.805083,-9.77E-4,0.008245,0.963149,-12.54,-32.04,-11.1,160.2205,-0.5376,-0.8827,55.81407,37.500393,210.7,NaN,,13.031,,0 / 2,,444,2021-05-02 18:58:57:073
-0.239427,-0.007183,9.797373,0.152088,0.085398,9.805099,-0.003421,0.007635,0.99186,-13.98,-31.68,-10.68,156.5612,-0.5189,-0.8831,55.81407,37.500393,210.7,NaN,,13.031,,0 / 2,,454,2021-05-02 18:58:57:083
-0.239427,-0.007183,9.797373,0.152088,0.085398,9.805099,2.44E-4,0.008856,1.009575,-13.98,-31.68,-10.68,156.5612,-0.5189,-0.8831,55.81407,37.500393,210.7,NaN,,13.031,,0 / 2,,464,2021-05-02 18:58:57:093
-0.117319,-0.019154,9.763853,0.152384,0.081654,9.805126,-0.004032,0.006413,1.035842,-15.54,-31.56,-10.26,156.5612,-0.5189,-0.8831,55.81407,37.500393,210.7,NaN,,13.031,,0 / 2,,474,2021-05-02 18:58:57:103
-0.026337,-0.026337,9.79019,0.152384,0.081654,9.805126,-0.005253,0.005191,1.06272,-15.54,-31.56,-10.26,156.5612,-0.5189,-0.8831,55.81407,37.500393,210.7,NaN,,13.031,,0 / 2,,487,2021-05-02 18:58:57:116
0.112531,0.107742,9.725544,0.153114,0.077873,9.805145,-0.005253,0.005191,1.06272,-16.56,-31.02,-10.8,151.4329,-0.4771,-0.8904,55.81407,37.500393,210.7,NaN,,13.031,,0 / 2,,494,2021-05-02 18:58:57:123
0.112531,0.107742,9.725544,0.153114,0.077873,9.805145,-0.006475,0.003969,1.084712,-16.56,-31.02,-10.8,151.4329,-0.4771,-0.8904,55.81407,37.500393,210.7,NaN,,13.031,,0 / 2,,504,2021-05-02 18:58:57:133
-0.035914,0.06704,9.794978,0.154257,0.073749,9.80516,-0.002199,0.005802,1.110979,-16.74,-30.3,-10.62,151.4329,-0.4771,-0.8904,55.81407,37.500393,210.7,NaN,,13.031,,0 / 2,,515,2021-05-02 18:58:57:144
0.112531,0.076617,9.835681,0.15433,0.07178,9.805173,-0.001588,0.008245,1.142744,-17.7,-30.06,-10.56,151.4329,-0.4771,-0.8904,55.81407,37.500393,210.7,NaN,,13.031,,0 / 2,,524,2021-05-02 18:58:57:153
0.270553,0.126897,9.70639,0.15433,0.07178,9.805173,-0.004643,0.01863,1.165957,-17.7,-30.06,-10.56,151.4329,-0.4771,-0.8904,55.81407,37.500393,210.7,NaN,,13.031,,0 / 2,,534,2021-05-02 18:58:57:163
0.395055,0.114925,9.749487,0.154096,0.067703,9.805205,-0.001588,0.003359,1.1403,-19.02,-29.28,-10.26,146.9208,-0.4194,-0.9017,55.81407,37.500393,210.7,NaN,,13.031,,0 / 2,,544,2021-05-02 18:58:57:173
0.395055,0.114925,9.749487,0.154096,0.067703,9.805205,-0.004032,0.007024,1.095707,-19.02,-29.28,-10.26,146.9208,-0.4194,-0.9017,55.81407,37.500393,210.7,NaN,,13.031,,0 / 2,,554,2021-05-02 18:58:57:183
0.488432,0.026337,9.742304,0.153766,0.063456,9.805239,-3.67E-4,0.0113,1.038897,-19.92,-28.44,-10.56,146.9208,-0.4194,-0.9017,55.81407,37.500393,210.7,NaN,,13.031,,0 / 2,,564,2021-05-02 18:58:57:193
0.265765,-0.141262,9.754275,0.153766,0.063456,9.805239,-0.002199,0.005191,1.028512,-19.92,-28.44,-10.56,146.9208,-0.4194,-0.9017,55.81407,37.500393,210.7,NaN,,13.031,,0 / 2,,574,2021-05-02 18:58:57:203
0.265765,-0.141262,9.754275,0.153737,0.059507,9.805264,-0.005253,0.013743,1.063331,-21.24,-27.36,-10.5,142.2671,-0.3707,-0.8984,55.81407,37.500393,210.7,NaN,,13.031,,0 / 2,,584,2021-05-02 18:58:57:213
-0.189148,-0.237033,9.75667,0.153737,0.059507,9.805264,-0.002199,0.007635,1.115866,-21.24,-27.36,-10.5,142.2671,-0.3707,-0.8984,55.81407,37.500393,210.7,NaN,,13.031,,0 / 2,,594,2021-05-02 18:58:57:223
-0.079011,-0.035914,9.828498,0.153765,0.055479,9.805287,-0.007086,0.002137,1.142133,-22.86,-25.56,-10.32,142.2671,-0.3707,-0.8984,55.81407,37.500393,210.7,NaN,,13.031,,0 / 2,,604,2021-05-02 18:58:57:233
0.040703,0.153234,9.763853,0.153765,0.055479,9.805287,-0.005864,0.008245,1.165346,-22.86,-25.56,-10.32,142.2671,-0.3707,-0.8984,55.81407,37.500393,210.7,NaN,,13.031,,0 / 2,,614,2021-05-02 18:58:57:243
-0.028731,0.193936,9.725544,0.153518,0.051267,9.805314,-0.003421,0.010689,1.192835,-24.0,-25.02,-10.5,136.2925,-0.3241,-0.8984,55.81407,37.500393,210.7,NaN,,13.031,,0 / 2,,624,2021-05-02 18:58:57:253
-0.028731,0.193936,9.725544,0.153518,0.051267,9.805314,-0.003421,0.010689,1.192835,-24.0,-25.02,-10.5,136.2925,-0.3241,-0.8984,55.81407,37.500393,210.7,NaN,,13.031,,0 / 2,,634,2021-05-02 18:58:57:263
-0.040703,0.124502,9.792584,0.152181,0.046781,9.805358,-0.004032,0.003969,1.211772,-24.3,-25.44,-9.72,136.2925,-0.3241,-0.8984,55.81407,37.500393,210.7,NaN,,13.031,,0 / 2,,644,2021-05-02 18:58:57:273
0.043097,0.055068,9.677659,0.152181,0.046781,9.805358,-0.005253,0.012522,1.245369,-24.3,-25.44,-9.72,136.2925,-0.3241,-0.8984,55.81407,37.500393,210.7,NaN,,13.031,,0 / 2,,654,2021-05-02 18:58:57:283
0.134079,0.028731,9.775824,0.151217,0.042204,9.805393,-0.003421,0.007635,1.253921,-24.96,-24.3,-8.94,133.9409,-0.2733,-0.8892,55.81407,37.500393,210.7,NaN,,13.031,,0 / 2,,664,2021-05-02 18:58:57:293
0.210696,0.090982,9.696813,0.150894,0.03998,9.805408,-0.00281,0.010078,1.254532,-25.5,-23.58,-9.12,133.9409,-0.2733,-0.8892,55.81407,37.500393,210.7,NaN,,13.031,,0 / 2,,674,2021-05-02 18:58:57:303
0.210696,0.090982,9.696813,0.150894,0.03998,9.805408,-0.004032,0.007024,1.246591,-25.5,-23.58,-9.12,133.9409,-0.2733,-0.8892,55.81407,37.500393,210.7,NaN,,13.031,,0 / 2,,684,2021-05-02 18:58:57:313
0.356747,0.107742,9.850046,0.151204,0.035893,9.805419,-0.003421,0.002137,1.223378,-26.16,-22.32,-9.0,133.9409,-0.2733,-0.8892,55.81407,37.500393,210.7,NaN,,13.031,,0 / 2,,694,2021-05-02 18:58:57:323
0.34717,0.06704,9.545974,0.151204,0.035893,9.805419,-0.003421,0.002137,1.223378,-26.16,-22.32,-9.0,133.9409,-0.2733,-0.8892,55.81407,37.500393,210.7,NaN,,13.031,,0 / 2,,704,2021-05-02 18:58:57:333
0.237033,0.007183,9.766247,0.150753,0.032732,9.805437,-0.004032,-0.027185,1.197111,-26.76,-21.42,-8.88,127.9756,-0.2097,-0.8835,55.81407,37.500393,210.7,NaN,,13.031,,0 / 2,,714,2021-05-02 18:58:57:343
0.237033,0.007183,9.766247,0.150079,0.030561,9.805454,-0.004643,0.012522,1.204441,-27.06,-21.06,-8.88,127.9756,-0.2097,-0.8835,55.81407,37.500393,210.7,NaN,,13.031,,0 / 2,,724,2021-05-02 18:58:57:353
0.179571,-0.009577,9.725544,0.150079,0.030561,9.805454,-0.003421,0.005191,1.206274,-27.06,-21.06,-8.88,127.9756,-0.2097,-0.8835,55.81407,37.500393,210.7,NaN,,13.031,,0 / 2,,734,2021-05-02 18:58:57:363
0.122108,-0.035914,9.742304,0.148981,0.026108,9.805484,-0.004032,0.009467,1.204441,-27.48,-19.74,-8.52,127.9756,-0.2097,-0.8835,55.81407,37.500393,210.7,NaN,,13.031,,0 / 2,,744,2021-05-02 18:58:57:373
0.057463,-0.043097,9.823709,0.148981,0.026108,9.805484,-0.00281,0.002748,1.207496,-27.48,-19.74,-8.52,127.9756,-0.2097,-0.8835,55.81407,37.500393,210.7,NaN,,13.031,,0 / 2,,754,2021-05-02 18:58:57:383
-0.026337,-0.004789,9.759064,0.148285,0.022498,9.805503,-0.004032,0.007635,1.219102,-28.62,-19.2,-8.4,123.314,-0.1525,-0.8705,55.81407,37.500393,210.7,NaN,,13.031,,0 / 2,,764,2021-05-02 18:58:57:393
-0.026337,-0.004789,9.759064,0.147787,0.020363,9.805515,-0.004643,0.0113,1.231319,-28.62,-19.2,-8.4,123.314,-0.1525,-0.8705,55.81407,37.500393,210.7,NaN,,13.031,,0 / 2,,774,2021-05-02 18:58:57:403
0.064645,0.035914,9.670476,0.147787,0.020363,9.805515,-0.001588,-0.005194,1.24598,-29.58,-17.7,-9.24,123.314,-0.1525,-0.8705,55.81407,37.500393,210.7,NaN,,13.031,,0 / 2,,784,2021-05-02 18:58:57:413
0.112531,0.057463,9.725544,0.146636,0.016042,9.805541,-0.004032,0.016187,1.256976,-29.4,-17.16,-9.24,123.314,-0.1525,-0.8705,55.81407,37.500393,210.7,NaN,,13.031,,0 / 2,,794,2021-05-02 18:58:57:423
0.26337,0.014366,9.763853,0.146636,0.016042,9.805541,-0.007086,0.014354,1.262473,-29.4,-17.16,-9.24,123.314,-0.1525,-0.8705,55.81407,37.500393,210.7,NaN,,13.031,,0 / 2,,804,2021-05-02 18:58:57:433
0.26337,0.014366,9.763853,0.141729,0.01243,9.805618,-0.003421,0.007635,1.245369,-30.0,-16.08,-8.46,118.1497,-0.0937,-0.8568,55.81407,37.500393,210.7,NaN,,13.031,,0 / 2,,814,2021-05-02 18:58:57:443
0.33041,0.026337,9.794978,0.141729,0.01243,9.805618,-0.006475,0.012522,1.234374,-30.0,-16.08,-8.46,118.1497,-0.0937,-0.8568,55.81407,37.500393,210.7,NaN,,13.031,,0 / 2,,824,2021-05-02 18:58:57:453
0.31365,0.043097,9.73991,0.146168,0.010596,9.805554,-9.77E-4,0.002748,1.215437,-30.84,-15.18,-7.5,118.1497,-0.0937,-0.8568,55.81407,37.500393,210.7,NaN,,13.031,,0 / 2,,834,2021-05-02 18:58:57:463
0.134079,0.05028,9.766247,0.146168,0.010596,9.805554,-0.004032,0.00458,1.225821,-30.84,-15.18,-7.5,118.1497,-0.0937,-0.8568,55.81407,37.500393,210.7,NaN,,13.031,,0 / 2,,844,2021-05-02 18:58:57:473
0.22985,0.031126,9.754275,0.156369,0.009484,9.805399,-0.003421,0.013132,1.23865,-30.78,-13.86,-7.62,114.3758,-0.0619,-0.854,55.81407,37.500393,210.7,NaN,,13.031,,0 / 2,,854,2021-05-02 18:58:57:483
0.22985,0.031126,9.754275,0.156369,0.009484,9.805399,-0.004032,0.008245,1.244758,-30.78,-13.86,-7.62,114.3758,-0.0619,-0.854,55.81407,37.500393,210.7,NaN,,13.031,,0 / 2,,865,2021-05-02 18:58:57:494
0.234639,0.011971,9.629773,0.163569,0.008859,9.805282,-0.004032,0.008245,1.244758,-30.9,-12.66,-8.4,114.3758,-0.0619,-0.854,55.81407,37.500393,210.7,NaN,,13.031,,0 / 2,,874,2021-05-02 18:58:57:503
0.282524,0.021548,9.751882,0.163569,0.008859,9.805282,-9.77E-4,0.001526,1.237428,-30.9,-12.66,-8.4,114.3758,-0.0619,-0.854,55.81407,37.500393,210.7,NaN,,13.031,,0 / 2,,884,2021-05-02 18:58:57:513
0.222668,-0.007183,9.749487,0.173722,0.007388,9.805109,-0.004643,0.007024,1.230098,-31.5,-11.64,-8.28,111.2349,-0.0518,-0.9557,55.81407,37.500393,210.7,NaN,,13.031,,0 / 2,,894,2021-05-02 18:58:57:523
0.222668,-0.007183,9.749487,0.173722,0.007388,9.805109,-0.005864,0.003969,1.236206,-31.5,-11.64,-8.28,111.2349,-0.0518,-0.9557,55.81407,37.500393,210.7,NaN,,13.031,,0 / 2,,904,2021-05-02 18:58:57:533
0.165205,0.057463,9.799767,0.184423,0.004936,9.804914,-0.005253,0.023517,1.236817,-31.8,-10.86,-7.8,111.2349,-0.0518,-0.9557,55.81407,37.500393,210.7,NaN,,13.031,,0 / 2,,914,2021-05-02 18:58:57:543
0.208302,-0.021548,9.680053,0.184423,0.004936,9.804914,-0.005864,3.04E-4,1.234984,-31.8,-10.86,-7.8,111.2349,-0.0518,-0.9557,55.81407,37.500393,210.7,NaN,,13.031,,0 / 2,,925,2021-05-02 18:58:57:554
0.107742,-0.028731,9.718362,0.190135,0.002319,9.804807,2.44E-4,0.002748,1.230098,-31.92,-10.14,-7.02,107.418,-0.0288,-1.0776,55.81407,37.500393,210.7,NaN,,13.031,,0 / 2,,934,2021-05-02 18:58:57:563
0.107742,-0.028731,9.718362,0.190135,0.002319,9.804807,-9.77E-4,-0.001528,1.236206,-32.34,-9.96,-7.14,107.418,-0.0288,-1.0776,55.81407,37.500393,210.7,NaN,,13.031,,0 / 2,,944,2021-05-02 18:58:57:573
0.007183,-0.023943,9.833286,0.193361,-4.06E-4,9.804744,-0.00281,0.010078,1.293017,-32.34,-9.96,-7.14,107.418,-0.0288,-1.0776,55.81407,37.500393,210.7,NaN,,13.031,,0 / 2,,954,2021-05-02 18:58:57:583
-0.069434,-0.031126,9.689631,0.193361,-4.06E-4,9.804744,-0.001588,0.013132,1.366321,-33.24,-9.42,-7.44,107.418,-0.0288,-1.0776,55.81407,37.500393,210.7,NaN,,13.031,,0 / 2,,964,2021-05-02 18:58:57:593
-0.055068,-0.031126,9.785401,0.182432,-0.005274,9.804952,-0.001588,0.010689,1.403583,-33.84,-8.76,-7.68,104.8959,0.0024,-1.1298,55.81407,37.500393,210.7,NaN,,13.031,,0 / 2,,974,2021-05-02 18:58:57:603
-0.035914,-0.043097,9.742304,0.182432,-0.005274,9.804952,-0.001588,0.010689,1.403583,-33.84,-8.76,-7.68,104.8959,0.0024,-1.1298,55.81407,37.500393,210.7,NaN,,13.031,,0 / 2,,984,2021-05-02 18:58:57:613
-0.035914,-0.043097,9.742304,0.179684,-0.01074,9.804997,-0.001588,0.010078,1.438403,-34.14,-7.5,-6.84,104.8959,0.0024,-1.1298,55.81407,37.500393,210.7,NaN,,13.031,,0 / 2,,994,2021-05-02 18:58:57:623
0.107742,0.069434,9.696813,0.179684,-0.01074,9.804997,2.44E-4,-0.002139,1.435959,-34.14,-7.5,-6.84,104.8959,0.0024,-1.1298,55.81407,37.500393,210.7,NaN,,13.031,,0 / 2,,1004,2021-05-02 18:58:57:633
0.320833,0.071828,9.701602,0.178291,-0.015987,9.805017,-0.00281,-0.00275,1.41519,-34.14,-6.48,-5.7,100.0533,0.0628,-1.0499,55.81407,37.500393,210.7,NaN,,13.031,,0 / 2,,1014,2021-05-02 18:58:57:643
0.476461,0.076617,9.754275,0.178291,-0.015987,9.805017,-0.002199,0.00458,1.39381,-34.14,-6.48,-5.7,100.0533,0.0628,-1.0499,55.81407,37.500393,210.7,NaN,,13.031,,0 / 2,,1026,2021-05-02 18:58:57:655
0.531529,0.079011,9.749487,0.177465,-0.021423,9.805021,-0.001588,0.002748,1.35899,-34.2,-6.3,-6.18,100.0533,0.0628,-1.0499,55.81407,37.500393,210.7,NaN,,13.031,,0 / 2,,1035,2021-05-02 18:58:57:664
0.531529,0.079011,9.749487,0.177465,-0.021423,9.805021,-0.005253,0.002137,1.300347,-34.2,-6.3,-6.18,100.0533,0.0628,-1.0499,55.81407,37.500393,210.7,NaN,,13.031,,0 / 2,,1044,2021-05-02 18:58:57:673
0.605752,0.081405,9.75667,0.176341,-0.026635,9.805028,-0.005253,0.003359,1.249034,-33.66,-5.64,-6.6,100.0735,0.1252,-1.0369,55.81407,37.500393,210.7,NaN,,13.031,,0 / 2,,1054,2021-05-02 18:58:57:683
0.555472,0.03352,9.732727,0.176341,-0.026635,9.805028,-9.77E-4,0.02535,1.21055,-33.66,-5.64,-6.6,100.0735,0.1252,-1.0369,55.81407,37.500393,210.7,NaN,,13.031,,0 / 2,,1064,2021-05-02 18:58:57:693
0.471672,0.05028,9.689631,0.175814,-0.031436,9.805023,-9.77E-4,0.02535,1.21055,-33.84,-5.16,-6.36,100.0735,0.1252,-1.0369,55.81407,37.500393,210.7,NaN,,13.031,,0 / 2,,1074,2021-05-02 18:58:57:703
0.502798,0.079011,9.766247,0.175814,-0.031436,9.805023,2.44E-4,3.04E-4,1.183672,-33.84,-5.16,-6.36,100.0735,0.1252,-1.0369,55.81407,37.500393,210.7,NaN,,13.031,,0 / 2,,1084,2021-05-02 18:58:57:713
0.502798,0.079011,9.766247,0.173767,-0.035882,9.805044,-3.67E-4,-3.07E-4,1.117698,-34.26,-4.5,-5.76,96.772,0.2096,-1.0153,55.81407,37.500393,210.7,NaN,,13.031,,0 / 2,,1094,2021-05-02 18:58:57:723
0.433364,0.074223,9.727939,0.173767,-0.035882,9.805044,-0.002199,0.010689,1.071273,-34.26,-4.5,-5.76,96.772,0.2096,-1.0153,55.81407,37.500393,210.7,NaN,,13.031,,0 / 2,,1104,2021-05-02 18:58:57:733
0.28013,0.0838,9.720756,0.172578,-0.040204,9.805049,-0.005253,0.005802,1.038286,-34.38,-3.9,-5.58,96.772,0.2096,-1.0153,55.81407,37.500393,210.7,NaN,,13.031,,0 / 2,,1114,2021-05-02 18:58:57:743
0.081405,0.076617,9.72315,0.172578,-0.040204,9.805049,-3.67E-4,0.008245,1.034621,-34.38,-3.9,-5.58,96.772,0.2096,-1.0153,55.81407,37.500393,210.7,NaN,,13.031,,0 / 2,,1124,2021-05-02 18:58:57:753
0.081405,0.076617,9.72315,0.170993,-0.043696,9.805062,-0.002199,0.005191,1.053558,-34.74,-3.24,-5.34,94.9496,0.2349,-1.0084,55.81407,37.500393,210.7,NaN,,13.031,,0 / 2,,1134,2021-05-02 18:58:57:763
-0.045491,0.040703,9.766247,0.170993,-0.043696,9.805062,-0.00281,0.007024,1.084101,-34.74,-3.24,-5.34,94.9496,0.2349,-1.0084,55.81407,37.500393,210.7,NaN,,13.031,,0 / 2,,1144,2021-05-02 18:58:57:773
0.031126,-0.002394,9.703996,0.168751,-0.047657,9.805082,-0.001588,0.003359,1.107314,-35.34,-1.8,-5.1,94.9496,0.2349,-1.0084,55.81407,37.500393,210.7,NaN,,13.031,,0 / 2,,1154,2021-05-02 18:58:57:783
-0.062251,-0.062251,9.778218,0.168751,-0.047657,9.805082,-0.00281,9.15E-4,1.15435,-35.34,-1.8,-5.1,94.9496,0.2349,-1.0084,55.81407,37.500393,210.7,NaN,,13.031,,0 / 2,,1164,2021-05-02 18:58:57:793
-0.040703,-0.095771,9.79019,0.166331,-0.051433,9.805104,-0.004032,0.00458,1.208717,-35.16,-1.38,-4.98,91.6889,0.3005,-0.9719,55.81407,37.500393,210.7,NaN,,13.031,,0 / 2,,1174,2021-05-02 18:58:57:803
-0.040703,-0.095771,9.79019,0.166331,-0.051433,9.805104,-0.002199,0.003969,1.244147,-35.16,-1.38,-4.98,91.6889,0.3005,-0.9719,55.81407,37.500393,210.7,NaN,,13.031,,0 / 2,,1184,2021-05-02 18:58:57:813
0.0838,-0.071828,9.783007,0.163624,-0.05612,9.805124,-0.002199,0.003969,1.244147,-34.86,-1.2,-4.92,91.6889,0.3005,-0.9719,55.81407,37.500393,210.7,NaN,,13.031,,0 / 2,,1194,2021-05-02 18:58:57:823
0.325621,-0.014366,9.701602,0.163624,-0.05612,9.805124,-9.77E-4,0.011911,1.194057,-34.86,-1.2,-4.92,91.6889,0.3005,-0.9719,55.81407,37.500393,210.7,NaN,,13.031,,0 / 2,,1204,2021-05-02 18:58:57:833
0.438152,0.126897,9.818921,0.15976,-0.060753,9.805161,-9.77E-4,0.011911,1.194057,-34.74,-0.84,-4.5,91.6829,0.3279,-0.956,55.81407,37.500393,210.7,NaN,,13.031,,0 / 2,,1214,2021-05-02 18:58:57:843
0.438152,0.126897,9.818921,0.15976,-0.060753,9.805161,-0.003421,0.011911,1.087155,-34.74,-0.84,-4.5,91.6829,0.3279,-0.956,55.81407,37.500393,210.7,NaN,,13.031,,0 / 2,,1224,2021-05-02 18:58:57:853
0.471672,0.126897,9.687236,0.157169,-0.06478,9.805177,-0.004032,0.00458,1.019349,-34.74,-0.3,-4.86,91.6829,0.3279,-0.956,55.81407,37.500393,210.7,NaN,,13.031,,0 / 2,,1234,2021-05-02 18:58:57:863
0.466884,0.090982,9.742304,0.157169,-0.06478,9.805177,-0.001588,-0.006415,0.961317,-34.74,-0.3,-4.86,91.6829,0.3279,-0.956,55.81407,37.500393,210.7,NaN,,13.031,,0 / 2,,1244,2021-05-02 18:58:57:873
0.383084,0.038308,9.735122,0.156772,-0.067947,9.805162,-3.67E-4,0.002748,0.953986,-35.22,1.02,-5.22,88.4197,0.3785,-0.9183,55.81407,37.500393,210.7,NaN,,13.031,,0 / 2,,1254,2021-05-02 18:58:57:883
0.366324,0.01676,9.751882,0.156772,-0.067947,9.805162,-0.004032,0.005191,0.971702,-35.22,1.02,-5.22,88.4197,0.3785,-0.9183,55.81407,37.500393,210.7,NaN,,13.031,,0 / 2,,1264,2021-05-02 18:58:57:893
0.366324,0.01676,9.751882,0.155013,-0.071331,9.805165,-0.001588,0.006413,0.98453,-34.86,1.14,-5.34,88.4197,0.3785,-0.9183,55.81407,37.500393,210.7,NaN,,13.031,,0 / 2,,1274,2021-05-02 18:58:57:903
0.39745,0.031126,9.768641,0.155013,-0.071331,9.805165,-0.004643,0.005802,0.964371,-34.86,1.14,-5.34,88.4197,0.3785,-0.9183,55.81407,37.500393,210.7,NaN,,13.031,,0 / 2,,1284,2021-05-02 18:58:57:913
0.409421,0.06704,9.747093,0.15301,-0.074241,9.805176,-0.002199,0.008856,0.936882,-34.8,1.2,-5.94,88.437,0.4168,-0.9057,55.81407,37.500393,210.7,NaN,,13.031,,0 / 2,,1294,2021-05-02 18:58:57:923
0.387873,0.112531,9.744699,0.15301,-0.074241,9.805176,-0.004032,0.006413,0.892289,-34.8,1.2,-5.94,88.437,0.4168,-0.9057,55.81407,37.500393,210.7,NaN,,13.031,,0 / 2,,1304,2021-05-02 18:58:57:933
0.270553,0.057463,9.670476,0.150253,-0.077463,9.805193,-0.003421,0.001526,0.867854,-34.98,1.98,-6.24,88.437,0.4168,-0.9057,55.81407,37.500393,210.7,NaN,,13.031,,0 / 2,,1314,2021-05-02 18:58:57:943
0.270553,0.057463,9.670476,0.150253,-0.077463,9.805193,-0.001588,0.00458,0.882515,-34.98,1.98,-6.24,88.437,0.4168,-0.9057,55.81407,37.500393,210.7,NaN,,13.031,,0 / 2,,1325,2021-05-02 18:58:57:954
0.244216,-0.009577,9.684841,0.148207,-0.08002,9.805204,-0.001588,0.006413,0.916724,-35.28,2.22,-5.58,86.8051,0.4526,-0.8779,55.81407,37.500393,210.7,NaN,,13.031,,0 / 2,,1334,2021-05-02 18:58:57:963
0.268159,0.0,9.768641,0.148207,-0.08002,9.805204,-0.001588,0.006413,0.916724,-35.28,2.22,-5.58,86.8051,0.4526,-0.8779,55.81407,37.500393,210.7,NaN,,13.031,,0 / 2,,1344,2021-05-02 18:58:57:973
0.339987,0.059857,9.687236,0.146656,-0.082695,9.805205,-0.003421,0.008856,0.931384,-35.4,2.58,-5.1,86.8051,0.4526,-0.8779,55.81407,37.500393,210.7,NaN,,13.031,,0 / 2,,1354,2021-05-02 18:58:57:983
0.339987,0.059857,9.687236,0.146656,-0.082695,9.805205,-0.004032,0.005191,0.861135,-35.4,2.58,-5.1,86.8051,0.4526,-0.8779,55.81407,37.500393,210.7,NaN,,13.031,,0 / 2,,1365,2021-05-02 18:58:57:994
0.416604,0.124502,9.759064,0.143459,-0.085459,9.805228,-0.004032,0.005191,0.861135,-35.34,3.0,-5.46,85.166,0.4832,-0.8569,55.81407,37.500393,210.7,NaN,,13.031,,0 / 2,,1374,2021-05-02 18:58:58:003
0.098165,0.031126,9.751882,0.143459,-0.085459,9.805228,-0.002199,-0.006415,0.803103,-35.34,3.0,-5.46,85.166,0.4832,-0.8569,55.81407,37.500393,210.7,NaN,,13.031,,0 / 2,,1384,2021-05-02 18:58:58:013
0.076617,0.038308,9.727939,0.142694,-0.088068,9.805217,-0.001588,0.003359,0.771338,-35.64,3.18,-5.64,85.166,0.4832,-0.8569,55.81407,37.500393,210.7,NaN,,13.031,,0 / 2,,1394,2021-05-02 18:58:58:023
0.107742,0.038308,9.732727,0.142694,-0.088068,9.805217,-0.007086,0.010689,0.775614,-35.64,3.18,-5.64,85.166,0.4832,-0.8569,55.81407,37.500393,210.7,NaN,,13.031,,0 / 2,,1407,2021-05-02 18:58:58:036
0.107742,0.038308,9.732727,0.141325,-0.090226,9.805217,-0.001588,0.002748,0.776836,-35.52,3.36,-5.34,85.305,0.5145,-0.8338,55.81407,37.500393,210.7,NaN,,13.031,,0 / 2,,1414,2021-05-02 18:58:58:043
0.244216,0.040703,9.730332,0.141325,-0.090226,9.805217,-3.67E-4,-0.003972,0.768283,-35.52,3.36,-5.34,85.305,0.5145,-0.8338,55.81407,37.500393,210.7,NaN,,13.031,,0 / 2,,1425,2021-05-02 18:58:58:054
0.268159,0.052674,9.780613,0.139679,-0.092287,9.805221,-0.003421,0.003969,0.77989,-35.64,4.02,-4.56,85.305,0.5145,-0.8338,55.81407,37.500393,210.7,NaN,,13.031,,0 / 2,,1434,2021-05-02 18:58:58:063
0.191542,-0.01676,9.737515,0.139679,-0.092287,9.805221,2.44E-4,0.00458,0.808601,-35.64,4.02,-4.56,85.305,0.5145,-0.8338,55.81407,37.500393,210.7,NaN,,13.031,,0 / 2,,1445,2021-05-02 18:58:58:074
0.131685,-0.095771,9.732727,0.139378,-0.094434,9.805205,-0.002199,0.003969,0.859302,-35.82,3.72,-4.74,83.7287,0.5392,-0.8161,55.81407,37.500393,210.7,NaN,,13.031,,0 / 2,,1456,2021-05-02 18:58:58:085
0.131685,-0.095771,9.732727,0.139378,-0.094434,9.805205,-0.002199,0.003969,0.859302,-35.82,3.72,-4.74,83.7287,0.5392,-0.8161,55.81407,37.500393,210.7,NaN,,13.031,,0 / 2,,1464,2021-05-02 18:58:58:093
0.169994,-0.081405,9.747093,0.137219,-0.096644,9.805214,-9.77E-4,0.005191,0.916724,-35.58,3.36,-5.16,83.7287,0.5392,-0.8161,55.81407,37.500393,210.7,NaN,,13.031,,0 / 2,,1474,2021-05-02 18:58:58:103
0.148445,-0.009577,9.696813,0.137219,-0.096644,9.805214,-9.77E-4,0.005191,0.935661,-35.58,3.36,-5.16,83.7287,0.5392,-0.8161,55.81407,37.500393,210.7,NaN,,13.031,,0 / 2,,1484,2021-05-02 18:58:58:113
0.129291,-0.002394,9.713573,0.13451,-0.099176,9.805226,-0.004643,0.008856,0.941769,-36.12,4.26,-4.86,83.7327,0.5647,-0.8018,55.81407,37.500393,210.7,NaN,,13.031,,0 / 2,,1494,2021-05-02 18:58:58:123
0.129291,-0.002394,9.713573,0.13451,-0.099176,9.805226,-0.004643,0.003969,0.951543,-36.12,4.26,-4.86,83.7327,0.5647,-0.8018,55.81407,37.500393,210.7,NaN,,13.031,,0 / 2,,1504,2021-05-02 18:58:58:133
0.148445,-0.01676,9.802161,0.131446,-0.102417,9.805235,-0.00281,0.002137,0.958262,-36.12,4.62,-5.28,83.7327,0.5647,-0.8018,55.81407,37.500393,210.7,NaN,,13.031,,0 / 2,,1514,2021-05-02 18:58:58:143
0.028731,-0.088588,9.751882,0.131446,-0.102417,9.805235,-0.00281,0.002748,1.00591,-36.12,4.62,-5.28,83.7327,0.5647,-0.8018,55.81407,37.500393,210.7,NaN,,13.031,,0 / 2,,1524,2021-05-02 18:58:58:153
0.028731,-0.088588,9.751882,0.129008,-0.10508,9.805239,-0.00281,0.002748,1.00591,-35.4,4.74,-4.68,81.946,0.5984,-0.768,55.81407,37.500393,210.7,NaN,,13.031,,0 / 2,,1534,2021-05-02 18:58:58:163
-0.03352,-0.095771,9.720756,0.129008,-0.10508,9.805239,-0.002199,0.007024,1.059055,-35.4,4.74,-4.68,81.946,0.5984,-0.768,55.81407,37.500393,210.7,NaN,,13.031,,0 / 2,,1544,2021-05-02 18:58:58:173
-0.011971,-0.062251,9.703996,0.125475,-0.108419,9.805248,-0.004032,0.003969,1.117698,-34.92,5.16,-3.9,81.946,0.5984,-0.768,55.81407,37.500393,210.7,NaN,,13.031,,0 / 2,,1555,2021-05-02 18:58:58:184
0.019154,-0.047885,9.751882,0.125475,-0.108419,9.805248,-3.67E-4,-0.005194,1.150074,-34.92,5.16,-3.9,81.946,0.5984,-0.768,55.81407,37.500393,210.7,NaN,,13.031,,0 / 2,,1564,2021-05-02 18:58:58:193
0.028731,0.019154,9.720756,0.123006,-0.111524,9.805245,-0.004643,0.002748,1.166568,-34.98,5.82,-4.44,80.3366,0.6335,-0.7332,55.81407,37.500393,210.7,NaN,,13.031,,0 / 2,,1574,2021-05-02 18:58:58:203
0.038308,-0.045491,9.720756,0.123006,-0.111524,9.805245,-0.001588,-9.18E-4,1.179396,-34.98,5.82,-4.44,80.3366,0.6335,-0.7332,55.81407,37.500393,210.7,NaN,,13.031,,0 / 2,,1584,2021-05-02 18:58:58:213
0.038308,-0.045491,9.720756,0.12059,-0.114878,9.805236,-0.001588,0.001526,1.206885,-35.46,6.54,-4.68,80.3366,0.6335,-0.7332,55.81407,37.500393,210.7,NaN,,13.031,,0 / 2,,1595,2021-05-02 18:58:58:224
-0.069434,-0.062251,9.703996,0.12059,-0.114878,9.805236,-0.003421,0.001526,1.246591,-35.46,6.54,-4.68,80.3366,0.6335,-0.7332,55.81407,37.500393,210.7,NaN,,13.031,,0 / 2,,1604,2021-05-02 18:58:58:233
-0.057463,-0.059857,9.835681,0.117937,-0.118237,9.805228,-0.005864,-0.005194,1.273469,-35.76,6.84,-4.8,79.076,0.6712,-0.7046,55.81407,37.500393,210.7,NaN,,13.031,,0 / 2,,1614,2021-05-02 18:58:58:243
-0.052674,-0.112531,9.646533,0.117937,-0.118237,9.805228,-0.005253,-0.005194,1.289352,-35.76,6.84,-4.8,79.076,0.6712,-0.7046,55.81407,37.500393,210.7,NaN,,13.031,,0 / 2,,1624,2021-05-02 18:58:58:253
0.249005,0.004789,9.897932,0.113981,-0.12186,9.80523,-0.00281,-0.035737,1.292406,-35.58,7.14,-4.38,79.076,0.6712,-0.7046,55.81407,37.500393,210.7,NaN,,13.031,,0 / 2,,1634,2021-05-02 18:58:58:263
0.249005,0.004789,9.897932,0.113981,-0.12186,9.80523,-0.001588,-0.014357,1.234374,-35.58,7.14,-4.38,79.076,0.6712,-0.7046,55.81407,37.500393,210.7,NaN,,13.031,,0 / 2,,1644,2021-05-02 18:58:58:273
0.265765,0.052674,9.747093,0.105771,-0.124972,9.805284,-0.001588,-0.014357,1.234374,-36.0,8.1,-3.6,77.539,0.712,-0.666,55.81407,37.500393,210.7,NaN,,13.031,,0 / 2,,1654,2021-05-02 18:58:58:283
0.31365,0.019154,9.694419,0.105771,-0.124972,9.805284,-0.004643,0.003969,1.219102,-36.0,8.1,-3.6,77.539,0.712,-0.666,55.81407,37.500393,210.7,NaN,,13.031,,0 / 2,,1664,2021-05-02 18:58:58:293
0.409421,0.026337,9.658504,0.10068,-0.127648,9.805303,-0.00281,0.003359,1.214215,-36.54,8.88,-4.02,77.539,0.712,-0.666,55.81407,37.500393,210.7,NaN,,13.031,,0 / 2,,1674,2021-05-02 18:58:58:303
0.399844,0.031126,9.701602,0.10068,-0.127648,9.805303,-0.002199,0.013743,1.212382,-36.54,8.88,-4.02,77.539,0.712,-0.666,55.81407,37.500393,210.7,NaN,,13.031,,0 / 2,,1685,2021-05-02 18:58:58:314
0.399844,0.031126,9.701602,0.096015,-0.130308,9.805314,-3.67E-4,0.003969,1.2246,-36.54,9.12,-5.1,76.4134,0.7458,-0.5883,55.81407,37.500393,210.7,NaN,,13.031,,0 / 2,,1694,2021-05-02 18:58:58:323
0.426181,-0.023943,9.720756,0.096015,-0.130308,9.805314,-0.002199,0.005802,1.230098,-36.54,9.12,-5.1,76.4134,0.7458,-0.5883,55.81407,37.500393,210.7,NaN,,13.031,,0 / 2,,1704,2021-05-02 18:58:58:333
0.5435,-0.026337,9.718362,0.091048,-0.133331,9.805321,-0.00281,-9.18E-4,1.226432,-36.54,9.18,-5.04,76.4134,0.7458,-0.5883,55.81407,37.500393,210.7,NaN,,13.031,,0 / 2,,1714,2021-05-02 18:58:58:343
0.529135,0.0,9.646533,0.091048,-0.133331,9.805321,-0.001588,0.010689,1.202609,-36.54,9.18,-5.04,76.4134,0.7458,-0.5883,55.81407,37.500393,210.7,NaN,,13.031,,0 / 2,,1724,2021-05-02 18:58:58:353
0.529135,0.0,9.646533,0.086377,-0.13556,9.805332,-0.00281,0.005191,1.16107,-36.48,10.38,-3.66,74.5485,0.779,-0.532,55.81407,37.500393,210.7,NaN,,13.031,,0 / 2,,1734,2021-05-02 18:58:58:363
0.533923,0.002394,9.780613,0.086377,-0.13556,9.805332,-0.002199,3.04E-4,1.129305,-36.48,10.38,-3.66,74.5485,0.779,-0.532,55.81407,37.500393,210.7,NaN,,13.031,,0 / 2,,1745,2021-05-02 18:58:58:374
0.452518,-0.052674,9.744699,0.084043,-0.137778,9.805322,-0.002199,3.04E-4,1.129305,-36.48,10.44,-3.72,74.5485,0.779,-0.532,55.81407,37.500393,210.7,NaN,,13.031,,0 / 2,,1755,2021-05-02 18:58:58:384
0.452518,-0.052674,9.744699,0.084043,-0.137778,9.805322,-0.003421,3.04E-4,1.123807,-36.48,10.44,-3.72,74.5485,0.779,-0.532,55.81407,37.500393,210.7,NaN,,13.031,,0 / 2,,1765,2021-05-02 18:58:58:394
0.356747,-0.0838,9.665688,0.081222,-0.139447,9.805323,-9.77E-4,0.014354,1.137246,-36.6,9.9,-4.2,74.9511,0.805,-0.4911,55.81407,37.500393,210.7,NaN,,13.031,,0 / 2,,1775,2021-05-02 18:58:58:404
0.344776,-0.009577,9.677659,0.081222,-0.139447,9.805323,-0.004643,0.022295,1.146409,-36.6,9.9,-4.2,74.9511,0.805,-0.4911,55.81407,37.500393,210.7,NaN,,13.031,,0 / 2,,1784,2021-05-02 18:58:58:413
0.428575,0.079011,9.747093,0.075074,-0.141542,9.805342,-0.001588,-0.011302,1.114644,-36.72,11.16,-3.9,74.9511,0.805,-0.4911,55.81407,37.500393,210.7,NaN,,13.031,,0 / 2,,1794,2021-05-02 18:58:58:423
0.03352,0.052674,9.771035,0.075074,-0.141542,9.805342,-0.004643,0.007635,1.074938,-36.72,11.16,-3.9,74.9511,0.805,-0.4911,55.81407,37.500393,210.7,NaN,,13.031,,0 / 2,,1804,2021-05-02 18:58:58:433
-0.03352,0.076617,9.665688,0.073465,-0.143014,9.805332,-0.004643,0.011911,1.040729,-35.82,12.24,-4.02,71.6402,0.827,-0.4387,55.81407,37.500393,210.7,NaN,,13.031,,0 / 2,,1814,2021-05-02 18:58:58:443
-0.03352,0.076617,9.665688,0.073465,-0.143014,9.805332,-0.004643,0.007635,0.990638,-35.82,12.24,-4.02,71.6402,0.827,-0.4387,55.81407,37.500393,210.7,NaN,,13.031,,0 / 2,,1825,2021-05-02 18:58:58:454
-0.055068,0.088588,9.761458,0.068698,-0.14483,9.80534,-0.002199,-0.001528,0.932606,-36.54,12.0,-4.32,71.6402,0.827,-0.4387,55.81407,37.500393,210.7,NaN,,13.031,,0 / 2,,1834,2021-05-02 18:58:58:463
-0.090982,0.062251,9.797373,0.068698,-0.14483,9.80534,-3.67E-4,0.009467,0.880683,-36.54,12.0,-4.32,71.6402,0.827,-0.4387,55.81407,37.500393,210.7,NaN,,13.031,,0 / 2,,1844,2021-05-02 18:58:58:473
-0.090982,0.062251,9.797373,0.068107,-0.145974,9.805327,-3.67E-4,0.009467,0.880683,-38.16,12.0,-5.16,72.5674,0.8462,-0.4014,55.81407,37.500393,210.7,NaN,,13.031,,0 / 2,,1854,2021-05-02 18:58:58:483
-0.143656,-0.043097,9.77343,0.068107,-0.145974,9.805327,-0.002199,-0.001528,0.88557,-38.16,12.0,-5.16,72.5674,0.8462,-0.4014,55.81407,37.500393,210.7,NaN,,13.031,,0 / 2,,1864,2021-05-02 18:58:58:493
-0.129291,-0.088588,9.62259,0.064316,-0.146976,9.805338,-0.004643,-0.008859,0.945434,-37.38,12.54,-5.1,72.5674,0.8462,-0.4014,55.81407,37.500393,210.7,NaN,,13.031,,0 / 2,,1874,2021-05-02 18:58:58:503
0.191542,0.043097,9.890749,0.064316,-0.146976,9.805338,-0.00281,-0.005804,0.994304,-37.38,12.54,-5.1,72.5674,0.8462,-0.4014,55.81407,37.500393,210.7,NaN,,13.031,,0 / 2,,1884,2021-05-02 18:58:58:513
0.191542,0.043097,9.890749,0.061315,-0.148327,9.805337,-0.006475,0.006413,0.99919,-36.84,12.3,-4.86,72.1277,0.8587,-0.3758,55.81407,37.500393,210.7,NaN,,13.031,,0 / 2,,1894,2021-05-02 18:58:58:523
0.490826,0.112531,9.742304,0.061315,-0.148327,9.805337,-0.00281,0.008856,0.950932,-36.84,12.3,-4.86,72.1277,0.8587,-0.3758,55.81407,37.500393,210.7,NaN,,13.031,,0 / 2,,1904,2021-05-02 18:58:58:533
0.509981,0.098165,9.749487,0.05762,-0.149997,9.805334,-9.77E-4,0.007024,0.921,-36.6,12.54,-4.5,72.1277,0.8587,-0.3758,55.81407,37.500393,210.7,NaN,,13.031,,0 / 2,,1914,2021-05-02 18:58:58:543
0.356747,0.004789,9.718362,0.05762,-0.149997,9.805334,-0.005864,0.011911,0.908172,-36.6,12.54,-4.5,72.1277,0.8587,-0.3758,55.81407,37.500393,210.7,NaN,,13.031,,0 / 2,,1926,2021-05-02 18:58:58:555
0.081405,-0.040703,9.80695,0.054671,-0.151078,9.805334,-0.00281,0.01863,0.924665,-36.78,13.14,-4.14,70.7204,0.8764,-0.3367,55.81407,37.500393,210.7,NaN,,13.031,,0 / 2,,1934,2021-05-02 18:58:58:563
0.081405,-0.040703,9.80695,0.054671,-0.151078,9.805334,-0.00281,0.01863,0.924665,-36.78,13.14,-4.14,70.7204,0.8764,-0.3367,55.81407,37.500393,210.7,NaN,,13.031,,0 / 2,,1944,2021-05-02 18:58:58:573
-0.124502,-0.057463,9.730332,0.04993,-0.152114,9.805344,2.44E-4,0.011911,0.95643,-37.08,13.26,-3.66,70.7204,0.8764,-0.3367,55.81407,37.500393,210.7,NaN,,13.031,,0 / 2,,1954,2021-05-02 18:58:58:583
-0.272947,-0.076617,9.62259,0.04993,-0.152114,9.805344,-0.001588,0.020463,0.988195,-37.08,13.26,-3.66,70.7204,0.8764,-0.3367,55.81407,37.500393,210.7,NaN,,13.031,,0 / 2,,1964,2021-05-02 18:58:58:593
-0.392661,-0.040703,9.675264,0.044062,-0.153227,9.805354,-0.004032,0.008245,1.030345,-36.54,13.32,-3.54,70.7241,0.8953,-0.2575,55.81407,37.500393,210.7,NaN,,13.031,,0 / 2,,1974,2021-05-02 18:58:58:603
-0.426181,-0.095771,9.687236,0.044062,-0.153227,9.805354,-0.00281,0.007635,1.049281,-36.54,13.32,-3.54,70.7241,0.8953,-0.2575,55.81407,37.500393,210.7,NaN,,13.031,,0 / 2,,1984,2021-05-02 18:58:58:613
-0.426181,-0.095771,9.687236,0.039218,-0.154475,9.805355,-0.007697,0.006413,1.079825,-36.54,13.92,-4.62,70.7241,0.8953,-0.2575,55.81407,37.500393,210.7,NaN,,13.031,,0 / 2,,1995,2021-05-02 18:58:58:624
-0.38069,-0.079011,9.75667,0.039218,-0.154475,9.805355,-3.67E-4,0.015576,1.150685,-36.54,13.92,-4.62,70.7241,0.8953,-0.2575,55.81407,37.500393,210.7,NaN,,13.031,,0 / 2,,2004,2021-05-02 18:58:58:633
-0.220273,-0.119714,9.629773,0.035739,-0.155122,9.805358,-0.003421,0.012522,1.211772,-36.9,14.7,-5.34,68.0316,0.9026,-0.2292,55.81407,37.500393,210.7,NaN,,13.031,,0 / 2,,2014,2021-05-02 18:58:58:643
0.002394,-0.210696,9.77343,0.035739,-0.155122,9.805358,-0.003421,-0.013135,1.254532,-36.9,14.7,-5.34,68.0316,0.9026,-0.2292,55.81407,37.500393,210.7,NaN,,13.031,,0 / 2,,2025,2021-05-02 18:58:58:654
0.253793,-0.138868,9.799767,0.02998,-0.156059,9.805363,-0.00281,0.003969,1.276523,-36.48,14.82,-4.98,68.0316,0.9026,-0.2292,55.81407,37.500393,210.7,NaN,,13.031,,0 / 2,,2034,2021-05-02 18:58:58:663
0.253793,-0.138868,9.799767,0.027728,-0.156688,9.805359,-0.002199,0.002137,1.290573,-36.84,14.7,-4.5,68.0316,0.9026,-0.2292,55.81407,37.500393,210.7,NaN,,13.031,,0 / 2,,2044,2021-05-02 18:58:58:673
0.387873,-0.129291,9.747093,0.027728,-0.156688,9.805359,-0.005253,0.003359,1.291795,-36.84,14.7,-4.5,68.0316,0.9026,-0.2292,55.81407,37.500393,210.7,NaN,,13.031,,0 / 2,,2054,2021-05-02 18:58:58:683
0.502798,-0.131685,9.653716,0.021495,-0.15788,9.805355,-0.004643,0.002137,1.294849,-36.96,14.64,-3.6,68.0158,0.9155,-0.162,55.81407,37.500393,210.7,NaN,,13.031,,0 / 2,,2064,2021-05-02 18:58:58:693
0.502798,-0.131685,9.653716,0.021495,-0.15788,9.805355,-0.004643,0.002137,1.294849,-36.96,14.64,-3.6,68.0158,0.9155,-0.162,55.81407,37.500393,210.7,NaN,,13.031,,0 / 2,,2074,2021-05-02 18:58:58:703
0.481249,-0.112531,9.751882,0.013834,-0.158745,9.805355,-0.002199,0.007024,1.277134,-37.08,15.9,-3.3,68.0158,0.9155,-0.162,55.81407,37.500393,210.7,NaN,,13.031,,0 / 2,,2084,2021-05-02 18:58:58:713
0.483644,-0.047885,9.852441,0.011991,-0.159029,9.805353,0.00391,3.04E-4,1.266749,-36.72,16.68,-3.6,68.0158,0.9155,-0.162,55.81407,37.500393,210.7,NaN,,13.031,,0 / 2,,2095,2021-05-02 18:58:58:724
0.378295,-0.009577,9.75667,0.011991,-0.159029,9.805353,-3.67E-4,0.007024,1.227043,-36.72,16.68,-3.6,68.0158,0.9155,-0.162,55.81407,37.500393,210.7,NaN,,13.031,,0 / 2,,2104,2021-05-02 18:58:58:733
0.251399,-0.023943,9.689631,0.00832,-0.159115,9.805355,-0.002199,0.007024,1.187337,-37.2,16.5,-4.08,65.4071,0.9292,-0.0701,55.81407,37.500393,210.7,NaN,,13.031,,0 / 2,,2114,2021-05-02 18:58:58:743
0.251399,-0.023943,9.689631,0.00832,-0.159115,9.805355,-0.004643,0.02535,1.167178,-37.2,16.5,-4.08,65.4071,0.9292,-0.0701,55.81407,37.500393,210.7,NaN,,13.031,,0 / 2,,2124,2021-05-02 18:58:58:753
0.186753,-0.014366,9.684841,0.005774,-0.159698,9.805348,-0.002199,-3.07E-4,1.137246,-37.32,16.14,-3.9,65.4071,0.9292,-0.0701,55.81407,37.500393,210.7,NaN,,13.031,,0 / 2,,2134,2021-05-02 18:58:58:763
0.124502,-0.043097,9.816526,0.005774,-0.159698,9.805348,-0.005864,0.008245,1.129305,-37.32,16.14,-3.9,65.4071,0.9292,-0.0701,55.81407,37.500393,210.7,NaN,,13.031,,0 / 2,,2144,2021-05-02 18:58:58:773
0.193936,-0.05028,9.75667,0.00276,-0.159906,9.805346,-0.005864,0.008245,1.129305,-36.96,16.86,-3.6,65.4084,0.9331,-0.0337,55.81407,37.500393,210.7,NaN,,13.031,,0 / 2,,2154,2021-05-02 18:58:58:783
0.193936,-0.05028,9.75667,0.00276,-0.159906,9.805346,-9.77E-4,0.005802,1.133581,-36.96,16.86,-3.6,65.4084,0.9331,-0.0337,55.81407,37.500393,210.7,NaN,,13.031,,0 / 2,,2164,2021-05-02 18:58:58:793
0.196331,-0.014366,9.715967,-0.002292,-0.160354,9.805339,-0.003421,0.010689,1.143355,-36.96,17.4,-4.32,65.4084,0.9331,-0.0337,55.81407,37.500393,210.7,NaN,,13.031,,0 / 2,,2175,2021-05-02 18:58:58:804
0.270553,-0.007183,9.775824,-0.002292,-0.160354,9.805339,-0.001588,0.006413,1.128694,-36.96,17.4,-4.32,65.4084,0.9331,-0.0337,55.81407,37.500393,210.7,NaN,,13.031,,0 / 2,,2184,2021-05-02 18:58:58:813
0.275342,-0.019154,9.780613,-0.007255,-0.160232,9.805338,-0.002199,0.006413,1.114033,-37.38,17.64,-4.86,64.1637,0.9369,0.0134,55.81407,37.500393,210.7,NaN,,13.031,,0 / 2,,2194,2021-05-02 18:58:58:823
0.275342,0.011971,9.720756,-0.007255,-0.160232,9.805338,-0.006475,0.018019,1.101205,-37.38,17.64,-4.86,64.1637,0.9369,0.0134,55.81407,37.500393,210.7,NaN,,13.031,,0 / 2,,2204,2021-05-02 18:58:58:833
0.239427,-0.028731,9.660899,-0.011214,-0.160079,9.805337,-0.00281,0.013132,1.066997,-37.68,18.12,-4.38,64.1637,0.9369,0.0134,55.81407,37.500393,210.7,NaN,,13.031,,0 / 2,,2214,2021-05-02 18:58:58:843
0.239427,-0.028731,9.660899,-0.011214,-0.160079,9.805337,-9.77E-4,-0.013135,0.997969,-37.68,18.12,-4.38,64.1637,0.9369,0.0134,55.81407,37.500393,210.7,NaN,,13.031,,0 / 2,,2224,2021-05-02 18:58:58:853
0.105348,-0.057463,9.79019,-0.013296,-0.159978,9.805336,-9.77E-4,-0.013135,0.997969,-37.14,18.9,-4.08,62.9041,0.9353,0.0655,55.81407,37.500393,210.7,NaN,,13.031,,0 / 2,,2234,2021-05-02 18:58:58:863
0.268159,-0.023943,9.608225,-0.013296,-0.159978,9.805336,8.55E-4,0.001526,0.939326,-37.14,18.9,-4.08,62.9041,0.9353,0.0655,55.81407,37.500393,210.7,NaN,,13.031,,0 / 2,,2244,2021-05-02 18:58:58:873
0.256187,-0.093377,9.70639,-0.019193,-0.15988,9.805328,-0.002199,0.013743,0.985141,-37.32,19.08,-4.02,62.9041,0.9353,0.0655,55.81407,37.500393,210.7,NaN,,13.031,,0 / 2,,2255,2021-05-02 18:58:58:884
0.256187,-0.093377,9.70639,-0.019193,-0.15988,9.805328,-0.002199,0.013743,0.985141,-37.32,19.08,-4.02,62.9041,0.9353,0.0655,55.81407,37.500393,210.7,NaN,,13.031,,0 / 2,,2264,2021-05-02 18:58:58:893
0.440547,0.102954,9.718362,-0.023749,-0.159591,9.805323,-0.004643,-0.01008,0.952154,-37.92,19.08,-3.84,63.5199,0.9341,0.1122,55.81407,37.500393,210.7,NaN,,13.031,,0 / 2,,2274,2021-05-02 18:58:58:903
0.356747,-0.172388,9.689631,-0.023749,-0.159591,9.805323,-0.00281,0.021684,0.894733,-37.92,19.08,-3.84,63.5199,0.9341,0.1122,55.81407,37.500393,210.7,NaN,,13.031,,0 / 2,,2284,2021-05-02 18:58:58:913
0.356747,-0.172388,9.689631,-0.026634,-0.159166,9.805322,-0.00281,0.027182,0.934439,-37.2,19.26,-3.72,63.5199,0.9341,0.1122,55.81407,37.500393,210.7,NaN,,13.031,,0 / 2,,2294,2021-05-02 18:58:58:923
0.383084,-0.069434,9.737515,-0.026634,-0.159166,9.805322,-0.004643,0.009467,0.93505,-37.2,19.26,-3.72,63.5199,0.9341,0.1122,55.81407,37.500393,210.7,NaN,,13.031,,0 / 2,,2304,2021-05-02 18:58:58:933
0.454912,-0.014366,9.744699,-0.028356,-0.158343,9.80533,-0.001588,0.001526,0.906339,-36.12,19.62,-3.66,61.0329,0.93,0.1556,55.81407,37.500393,210.7,NaN,,13.031,,0 / 2,,2314,2021-05-02 18:58:58:943
0.387873,-0.01676,9.778218,-0.028356,-0.158343,9.80533,-0.00281,-0.001528,0.880072,-36.12,19.62,-3.66,61.0329,0.93,0.1556,55.81407,37.500393,210.7,NaN,,13.031,,0 / 2,,2324,2021-05-02 18:58:58:953
0.387873,-0.01676,9.778218,-0.031648,-0.158317,9.805321,-0.001588,9.15E-4,0.861135,-36.18,19.86,-4.32,61.0329,0.93,0.1556,55.81407,37.500393,210.7,NaN,,13.031,,0 / 2,,2334,2021-05-02 18:58:58:963
0.308861,-0.028731,9.797373,-0.031648,-0.158317,9.805321,-0.004643,0.013132,0.831203,-36.18,19.86,-4.32,61.0329,0.93,0.1556,55.81407,37.500393,210.7,NaN,,13.031,,0 / 2,,2344,2021-05-02 18:58:58:973
0.146051,-0.055068,9.749487,-0.033581,-0.158059,9.805319,-0.004643,0.013132,0.831203,-36.78,20.34,-4.26,61.6937,0.9235,0.1962,55.81407,37.500393,210.7,NaN,,13.031,,0 / 2,,2354,2021-05-02 18:58:58:983
-0.069434,-0.062251,9.780613,-0.033581,-0.158059,9.805319,-9.77E-4,0.003969,0.834257,-36.78,20.34,-4.26,61.6937,0.9235,0.1962,55.81407,37.500393,210.7,NaN,,13.031,,0 / 2,,2364,2021-05-02 18:58:58:993
-0.253793,-0.112531,9.742304,-0.036397,-0.157723,9.805314,2.44E-4,0.002137,0.836089,-36.6,20.46,-3.18,61.6937,0.9235,0.1962,55.81407,37.500393,210.7,NaN,,13.031,,0 / 2,,2374,2021-05-02 18:58:59:003
-0.253793,-0.112531,9.742304,-0.036397,-0.157723,9.805314,2.44E-4,0.003969,0.869687,-36.6,20.46,-3.18,61.6937,0.9235,0.1962,55.81407,37.500393,210.7,NaN,,13.031,,0 / 2,,2384,2021-05-02 18:58:59:013
-0.375901,-0.160416,9.742304,-0.038793,-0.157631,9.805306,-0.00281,0.002748,0.94238,-36.78,20.04,-3.18,61.6723,0.9215,0.2127,55.81407,37.500393,210.7,NaN,,13.031,,0 / 2,,2394,2021-05-02 18:58:59:023
-0.234639,-0.148445,9.73991,-0.038793,-0.157631,9.805306,-0.00281,0.00458,1.015684,-36.78,20.04,-3.18,61.6723,0.9215,0.2127,55.81407,37.500393,210.7,NaN,,13.031,,0 / 2,,2404,2021-05-02 18:58:59:033
-0.026337,-0.06704,9.735122,-0.042314,-0.15758,9.805293,-0.004032,0.005802,1.046838,-36.6,20.64,-3.66,61.6723,0.9215,0.2127,55.81407,37.500393,210.7,NaN,,13.031,,0 / 2,,2414,2021-05-02 18:58:59:043
0.10056,-0.064645,9.761458,-0.042314,-0.15758,9.805293,-0.002199,0.00458,1.061499,-36.6,20.64,-3.66,61.6723,0.9215,0.2127,55.81407,37.500393,210.7,NaN,,13.031,,0 / 2,,2424,2021-05-02 18:58:59:053
0.10056,-0.064645,9.761458,-0.04719,-0.157183,9.805277,-0.002199,0.00458,1.061499,-36.36,20.88,-3.78,59.8319,0.9207,0.2473,55.81407,37.500393,210.7,NaN,,13.031,,0 / 2,,2434,2021-05-02 18:58:59:063
0.21309,-0.057463,9.778218,-0.04719,-0.157183,9.805277,-0.00281,0.0113,1.066386,-36.36,20.88,-3.78,59.8319,0.9207,0.2473,55.81407,37.500393,210.7,NaN,,13.031,,0 / 2,,2444,2021-05-02 18:58:59:073
0.21309,-0.098165,9.759064,-0.052257,-0.156591,9.805261,-3.67E-4,0.005802,1.068218,-36.9,21.24,-3.72,59.8319,0.9207,0.2473,55.81407,37.500393,210.7,NaN,,13.031,,0 / 2,,2454,2021-05-02 18:58:59:083
0.124502,-0.122108,9.780613,-0.052257,-0.156591,9.805261,-0.004032,0.011911,1.088988,-36.9,21.24,-3.72,59.8319,0.9207,0.2473,55.81407,37.500393,210.7,NaN,,13.031,,0 / 2,,2464,2021-05-02 18:58:59:093
0.107742,-0.002394,9.816526,-0.057116,-0.155713,9.805247,-0.005864,0.00458,1.089599,-37.44,21.84,-3.54,59.3514,0.9149,0.3054,55.81407,37.500393,210.7,NaN,,13.031,,0 / 2,,2474,2021-05-02 18:58:59:103
0.107742,-0.002394,9.816526,-0.057116,-0.155713,9.805247,-0.004032,0.007635,1.06211,-37.44,21.84,-3.54,59.3514,0.9149,0.3054,55.81407,37.500393,210.7,NaN,,13.031,,0 / 2,,2484,2021-05-02 18:58:59:113
0.181965,-0.028731,9.799767,-0.061736,-0.154919,9.805232,-3.67E-4,0.007024,1.04134,-37.92,21.9,-3.48,59.3514,0.9149,0.3054,55.81407,37.500393,210.7,NaN,,13.031,,0 / 2,,2495,2021-05-02 18:58:59:124
0.165205,-0.074223,9.735122,-0.061736,-0.154919,9.805232,-0.004032,0.003969,1.04806,-37.92,21.9,-3.48,59.3514,0.9149,0.3054,55.81407,37.500393,210.7,NaN,,13.031,,0 / 2,,2504,2021-05-02 18:58:59:133
0.275342,-0.031126,9.797373,-0.065333,-0.153969,9.805223,-0.001588,0.00458,1.044395,-36.9,22.26,-3.18,59.33,0.9052,0.3607,55.81407,37.500393,210.7,NaN,,13.031,,0 / 2,,2514,2021-05-02 18:58:59:143
0.308861,-0.055068,9.794978,-0.065333,-0.153969,9.805223,-0.003421,9.15E-4,1.029734,-36.9,22.26,-3.18,59.33,0.9052,0.3607,55.81407,37.500393,210.7,NaN,,13.031,,0 / 2,,2524,2021-05-02 18:58:59:153
0.308861,-0.055068,9.794978,-0.068871,-0.152897,9.805217,2.44E-4,0.007635,1.015684,-36.24,22.2,-3.6,59.33,0.9052,0.3607,55.81407,37.500393,210.7,NaN,,13.031,,0 / 2,,2534,2021-05-02 18:58:59:163
0.292102,-0.026337,9.866806,-0.068871,-0.152897,9.805217,-0.008919,0.005191,0.993693,-36.24,22.2,-3.6,59.33,0.9052,0.3607,55.81407,37.500393,210.7,NaN,,13.031,,0 / 2,,2544,2021-05-02 18:58:59:173
0.287313,-0.05028,9.737515,-0.072486,-0.151404,9.805213,-0.004032,0.001526,0.976588,-37.14,23.04,-4.74,58.2435,0.8933,0.4024,55.81407,37.500393,210.7,NaN,,13.031,,0 / 2,,2554,2021-05-02 18:58:59:183
0.222668,-0.081405,9.783007,-0.072486,-0.151404,9.805213,-0.001588,0.007635,0.972312,-37.14,23.04,-4.74,58.2435,0.8933,0.4024,55.81407,37.500393,210.7,NaN,,13.031,,0 / 2,,2564,2021-05-02 18:58:59:193
0.165205,-0.112531,9.787795,-0.075507,-0.150609,9.805202,-0.001588,0.00458,0.988806,-37.02,24.12,-4.2,58.2435,0.8933,0.4024,55.81407,37.500393,210.7,NaN,,13.031,,0 / 2,,2574,2021-05-02 18:58:59:203
0.165205,-0.112531,9.787795,-0.075507,-0.150609,9.805202,2.44E-4,0.008856,1.026679,-37.02,24.12,-4.2,58.2435,0.8933,0.4024,55.81407,37.500393,210.7,NaN,,13.031,,0 / 2,,2584,2021-05-02 18:58:59:213
0.093377,-0.105348,9.737515,-0.079398,-0.1495,9.805189,2.44E-4,0.010689,1.057834,-36.72,24.36,-3.6,57.1169,0.88,0.4412,55.81407,37.500393,210.7,NaN,,13.031,,0 / 2,,2595,2021-05-02 18:58:59:224
0.021548,-0.102954,9.783007,-0.079398,-0.1495,9.805189,-9.77E-4,0.008245,1.096318,-36.72,24.36,-3.6,57.1169,0.88,0.4412,55.81407,37.500393,210.7,NaN,,13.031,,0 / 2,,2604,2021-05-02 18:58:59:233
0.021548,-0.102954,9.783007,-0.083511,-0.147886,9.805179,-0.007086,0.003359,1.139079,-36.54,24.48,-3.66,57.1169,0.88,0.4412,55.81407,37.500393,210.7,NaN,,13.031,,0 / 2,,2614,2021-05-02 18:58:59:243
-0.045491,-0.143656,9.799767,-0.083511,-0.147886,9.805179,-0.007086,0.003359,1.139079,-36.54,24.48,-3.66,57.1169,0.88,0.4412,55.81407,37.500393,210.7,NaN,,13.031,,0 / 2,,2625,2021-05-02 18:58:59:254
-0.074223,-0.141262,9.692024,-0.088009,-0.146636,9.805159,-0.004032,0.003359,1.200776,-36.42,24.36,-3.6,56.3984,0.8641,0.488,55.81407,37.500393,210.7,NaN,,13.031,,0 / 2,,2634,2021-05-02 18:58:59:263
-0.165205,-0.134079,9.720756,-0.088009,-0.146636,9.805159,-0.004032,0.005802,1.249645,-36.42,24.36,-3.6,56.3984,0.8641,0.488,55.81407,37.500393,210.7,NaN,,13.031,,0 / 2,,2644,2021-05-02 18:58:59:273
-0.143656,-0.114925,9.787795,-0.092298,-0.145005,9.805144,-0.004032,0.005802,1.272247,-36.6,24.6,-3.6,56.3984,0.8641,0.488,55.81407,37.500393,210.7,NaN,,13.031,,0 / 2,,2654,2021-05-02 18:58:59:283
-0.143656,-0.114925,9.787795,-0.092298,-0.145005,9.805144,-0.004643,0.003969,1.286908,-36.6,24.6,-3.6,56.3984,0.8641,0.488,55.81407,37.500393,210.7,NaN,,13.031,,0 / 2,,2664,2021-05-02 18:58:59:293
-0.088588,-0.090982,9.835681,-0.097277,-0.143007,9.805125,-9.77E-4,3.04E-4,1.291184,-36.3,24.96,-3.66,55.3101,0.8472,0.5393,55.81407,37.500393,210.7,NaN,,13.031,,0 / 2,,2674,2021-05-02 18:58:59:303
-0.035914,-0.105348,9.818921,-0.097277,-0.143007,9.805125,-0.004032,0.012522,1.306456,-36.3,24.96,-3.66,55.3101,0.8472,0.5393,55.81407,37.500393,210.7,NaN,,13.031,,0 / 2,,2684,2021-05-02 18:58:59:313
0.090982,-0.117319,9.735122,-0.101655,-0.141747,9.805099,-0.003421,0.007024,1.322338,-35.82,25.74,-2.94,55.3101,0.8472,0.5393,55.81407,37.500393,210.7,NaN,,13.031,,0 / 2,,2694,2021-05-02 18:58:59:323
0.191542,-0.122108,9.80695,-0.101655,-0.141747,9.805099,2.44E-4,0.007024,1.35166,-35.82,25.74,-2.94,55.3101,0.8472,0.5393,55.81407,37.500393,210.7,NaN,,13.031,,0 / 2,,2704,2021-05-02 18:58:59:333
0.191542,-0.122108,9.80695,-0.106359,-0.139794,9.805077,8.55E-4,0.003969,1.381592,-35.82,26.22,-2.7,54.227,0.8168,0.6215,55.81407,37.500393,210.7,NaN,,13.031,,0 / 2,,2714,2021-05-02 18:58:59:343
0.375901,-0.079011,9.993703,-0.106359,-0.139794,9.805077,2.44E-4,0.014965,1.407248,-35.82,26.22,-2.7,54.227,0.8168,0.6215,55.81407,37.500393,210.7,NaN,,13.031,,0 / 2,,2724,2021-05-02 18:58:59:353
0.349564,-0.112531,9.771035,-0.112716,-0.136927,9.805046,-0.00281,0.008856,1.409081,-36.3,26.52,-3.72,54.227,0.8168,0.6215,55.81407,37.500393,210.7,NaN,,13.031,,0 / 2,,2734,2021-05-02 18:58:59:363
0.402238,-0.074223,9.850046,-0.112716,-0.136927,9.805046,-0.00281,0.008856,1.409081,-36.3,26.52,-3.72,54.227,0.8168,0.6215,55.81407,37.500393,210.7,NaN,,13.031,,0 / 2,,2744,2021-05-02 18:58:59:373
0.210696,-0.105348,9.804555,-0.119111,-0.133886,9.805013,-0.006475,0.007635,1.400529,-36.42,26.76,-4.2,53.2171,0.8,0.6586,55.81407,37.500393,210.7,NaN,,13.031,,0 / 2,,2754,2021-05-02 18:58:59:383
0.210696,-0.105348,9.804555,-0.119111,-0.133886,9.805013,-0.003421,0.016798,1.37976,-36.42,26.76,-4.2,53.2171,0.8,0.6586,55.81407,37.500393,210.7,NaN,,13.031,,0 / 2,,2764,2021-05-02 18:58:59:393
0.038308,-0.134079,9.833286,-0.12507,-0.131167,9.804976,-0.00281,0.007635,1.369986,-35.82,27.3,-4.38,53.2171,0.8,0.6586,55.81407,37.500393,210.7,NaN,,13.031,,0 / 2,,2774,2021-05-02 18:58:59:403
-0.023943,-0.172388,9.665688,-0.12507,-0.131167,9.804976,-0.007697,0.009467,1.38037,-35.82,27.3,-4.38,53.2171,0.8,0.6586,55.81407,37.500393,210.7,NaN,,13.031,,0 / 2,,2784,2021-05-02 18:58:59:413
-0.093377,-0.141262,9.775824,-0.128554,-0.128504,9.804965,-0.004643,0.006413,1.418855,-36.0,27.96,-4.02,52.2115,0.7664,0.7308,55.81407,37.500393,210.7,NaN,,13.031,,0 / 2,,2794,2021-05-02 18:58:59:423
-0.093377,-0.141262,9.775824,-0.129862,-0.127298,9.804964,-0.004643,0.003969,1.454896,-36.0,27.96,-4.02,52.2115,0.7664,0.7308,55.81407,37.500393,210.7,NaN,,13.031,,0 / 2,,2805,2021-05-02 18:58:59:434
-0.055068,-0.174782,9.663293,-0.129862,-0.127298,9.804964,-9.77E-4,0.00458,1.487272,-35.46,27.9,-3.54,52.2115,0.7664,0.7308,55.81407,37.500393,210.7,NaN,,13.031,,0 / 2,,2814,2021-05-02 18:58:59:443
0.071828,-0.146051,9.73991,-0.135082,-0.123363,9.804944,-9.77E-4,0.00458,1.487272,-35.46,27.9,-3.54,52.2115,0.7664,0.7308,55.81407,37.500393,210.7,NaN,,13.031,,0 / 2,,2824,2021-05-02 18:58:59:453
0.148445,-0.146051,9.687236,-0.136572,-0.121073,9.804952,-0.002199,-0.004583,1.516593,-35.34,27.96,-3.54,51.4279,0.7208,0.7893,55.81407,37.500393,210.7,NaN,,13.031,,0 / 2,,2835,2021-05-02 18:58:59:464
0.148445,-0.146051,9.687236,-0.136572,-0.121073,9.804952,-9.77E-4,0.003359,1.548358,-35.34,27.96,-3.54,51.4279,0.7208,0.7893,55.81407,37.500393,210.7,NaN,,13.031,,0 / 2,,2844,2021-05-02 18:58:59:473
0.232245,-0.105348,9.735122,-0.139407,-0.116956,9.804961,-0.001588,-0.003361,1.552634,-35.82,29.4,-3.3,51.4279,0.7208,0.7893,55.81407,37.500393,210.7,NaN,,13.031,,0 / 2,,2854,2021-05-02 18:58:59:483
0.294496,-0.079011,9.783007,-0.139407,-0.116956,9.804961,-0.003421,-0.001528,1.545915,-35.82,29.4,-3.3,51.4279,0.7208,0.7893,55.81407,37.500393,210.7,NaN,,13.031,,0 / 2,,2865,2021-05-02 18:58:59:494
0.217879,-0.107742,9.711179,-0.141995,-0.113117,9.80497,-0.004032,-0.005194,1.534919,-35.22,30.36,-3.6,49.4832,0.6833,0.8146,55.81407,37.500393,210.7,NaN,,13.031,,0 / 2,,2874,2021-05-02 18:58:59:503
0.217879,-0.107742,9.711179,-0.141995,-0.113117,9.80497,-0.003421,3.04E-4,1.533698,-35.22,30.36,-3.6,49.4832,0.6833,0.8146,55.81407,37.500393,210.7,NaN,,13.031,,0 / 2,,2884,2021-05-02 18:58:59:513
0.215485,-0.150839,9.75667,-0.144326,-0.109473,9.804977,-0.00281,0.010689,1.547748,-34.56,30.24,-3.72,49.4832,0.6833,0.8146,55.81407,37.500393,210.7,NaN,,13.031,,0 / 2,,2895,2021-05-02 18:58:59:524
0.287313,-0.107742,9.816526,-0.144326,-0.109473,9.804977,-0.007086,0.009467,1.559354,-34.56,30.24,-3.72,49.4832,0.6833,0.8146,55.81407,37.500393,210.7,NaN,,13.031,,0 / 2,,2904,2021-05-02 18:58:59:533
0.153234,-0.160416,9.794978,-0.148921,-0.10537,9.804954,-0.001588,-0.005804,1.548969,-34.32,30.6,-3.6,47.7266,0.6396,0.8433,55.81407,37.500393,210.7,NaN,,13.031,,0 / 2,,2915,2021-05-02 18:58:59:544
0.153234,-0.160416,9.794978,-0.148921,-0.10537,9.804954,-0.001588,0.007635,1.548969,-34.32,30.6,-3.6,47.7266,0.6396,0.8433,55.81407,37.500393,210.7,NaN,,13.031,,0 / 2,,2924,2021-05-02 18:58:59:553
0.124502,-0.131685,9.804555,-0.151872,-0.101727,9.804946,-0.005253,0.014354,1.558132,-34.26,31.08,-3.72,47.7266,0.6396,0.8433,55.81407,37.500393,210.7,NaN,,13.031,,0 / 2,,2934,2021-05-02 18:58:59:563
0.124502,-0.131685,9.783007,-0.151872,-0.101727,9.804946,-0.004643,0.018019,1.559965,-34.26,31.08,-3.72,47.7266,0.6396,0.8433,55.81407,37.500393,210.7,NaN,,13.031,,0 / 2,,2944,2021-05-02 18:58:59:573
0.191542,-0.138868,9.72315,-0.155968,-0.097551,9.804925,-9.77E-4,0.014354,1.57768,-34.08,30.96,-3.84,47.7258,0.5944,0.8874,55.81407,37.500393,210.7,NaN,,13.031,,0 / 2,,2955,2021-05-02 18:58:59:584
0.191542,-0.138868,9.72315,-0.155968,-0.097551,9.804925,-0.006475,0.014965,1.580123,-34.08,30.96,-3.84,47.7258,0.5944,0.8874,55.81407,37.500393,210.7,NaN,,13.031,,0 / 2,,2964,2021-05-02 18:58:59:593
0.160416,-0.138868,9.771035,-0.159746,-0.093291,9.804905,-0.006475,0.014965,1.580123,-33.9,31.62,-3.96,47.7258,0.5944,0.8874,55.81407,37.500393,210.7,NaN,,13.031,,0 / 2,,2974,2021-05-02 18:58:59:603
0.028731,-0.122108,9.821315,-0.159746,-0.093291,9.804905,-0.00281,0.019241,1.575236,-33.9,31.62,-3.96,47.7258,0.5944,0.8874,55.81407,37.500393,210.7,NaN,,13.031,,0 / 2,,2985,2021-05-02 18:58:59:614
-0.026337,-0.107742,9.881172,-0.165021,-0.088746,9.80486,-9.77E-4,0.003969,1.56363,-33.48,32.4,-4.14,45.9649,0.5451,0.9334,55.81407,37.500393,210.7,NaN,,13.031,,0 / 2,,2994,2021-05-02 18:58:59:623
-0.026337,-0.107742,9.881172,-0.165021,-0.088746,9.80486,2.44E-4,-0.005194,1.531254,-33.48,32.4,-4.14,45.9649,0.5451,0.9334,55.81407,37.500393,210.7,NaN,,13.031,,0 / 2,,3004,2021-05-02 18:58:59:633
-0.215485,-0.160416,9.864412,-0.139026,-0.087396,9.805275,-0.006475,0.008856,1.52148,-33.6,32.64,-4.68,45.9649,0.5451,0.9334,55.81407,37.500393,210.7,NaN,,13.031,,0 / 2,,3014,2021-05-02 18:58:59:643
-0.181965,-0.155628,9.842864,-0.139026,-0.087396,9.805275,-0.004643,0.007024,1.555078,-33.6,32.64,-4.68,45.9649,0.5451,0.9334,55.81407,37.500393,210.7,NaN,,13.031,,0 / 2,,3025,2021-05-02 18:58:59:654
-0.181965,-0.155628,9.842864,-0.110519,-0.092958,9.805587,-0.004643,0.007024,1.555078,-33.0,33.78,-4.56,44.2387,0.5106,0.8123,55.81407,37.500393,210.7,NaN,,13.031,,0 / 2,,3034,2021-05-02 18:58:59:663
-0.181965,-0.155628,9.842864,-0.110519,-0.092958,9.805587,-0.004643,0.007024,1.555078,-33.0,33.78,-4.56,44.2387,0.5106,0.8123,55.81407,37.500393,210.7,NaN,,13.031,,0 / 2,,3044,2021-05-02 18:58:59:673
-0.043097,-0.117319,9.768641,-0.104074,-0.095541,9.805633,-0.009529,-0.003361,1.582567,-32.7,34.44,-4.02,44.2387,0.5106,0.8123,55.81407,37.500393,210.7,NaN,,13.031,,0 / 2,,3054,2021-05-02 18:58:59:683
0.387873,-0.021548,9.823709,-0.104074,-0.095541,9.805633,-0.004032,0.024739,1.564241,-32.7,34.44,-4.02,44.2387,0.5106,0.8123,55.81407,37.500393,210.7,NaN,,13.031,,0 / 2,,3064,2021-05-02 18:58:59:693
0.294496,-0.028731,9.883567,-0.072615,-0.101204,9.80586,-0.00281,0.016187,1.505598,-31.98,34.92,-3.78,42.5029,0.5582,0.6081,55.81407,37.500393,210.7,NaN,,13.031,,0 / 2,,3074,2021-05-02 18:58:59:703
0.294496,-0.028731,9.883567,-0.072615,-0.101204,9.80586,0.00391,3.04E-4,1.462837,-31.98,34.92,-3.78,42.5029,0.5582,0.6081,55.81407,37.500393,210.7,NaN,,13.031,,0 / 2,,3084,2021-05-02 18:58:59:713
0.304073,-0.081405,9.718362,-0.037637,-0.09776,9.80609,-0.00281,9.15E-4,1.446955,-31.44,35.46,-3.42,42.5029,0.5582,0.6081,55.81407,37.500393,210.7,NaN,,13.031,,0 / 2,,3096,2021-05-02 18:58:59:725
0.272947,-0.110137,9.771035,-0.037851,-0.097892,9.806088,-0.004643,0.013743,1.450009,-32.04,35.46,-3.9,42.5029,0.5582,0.6081,55.81407,37.500393,210.7,NaN,,13.031,,0 / 2,,3105,2021-05-02 18:58:59:734
0.241822,-0.153234,9.811738,-0.037851,-0.097892,9.806088,-0.004643,0.002748,1.465281,-32.04,35.46,-3.9,42.5029,0.5582,0.6081,55.81407,37.500393,210.7,NaN,,13.031,,0 / 2,,3114,2021-05-02 18:58:59:743
0.234639,-0.124502,9.826104,-0.041872,-0.09762,9.806075,-0.005864,0.005802,1.482385,-31.92,36.24,-4.14,41.6791,0.5719,0.2212,55.81407,37.500393,210.7,NaN,,13.031,,0 / 2,,3124,2021-05-02 18:58:59:753
0.328016,-0.026337,9.754275,-0.041872,-0.09762,9.806075,-9.77E-4,0.014965,1.482385,-31.92,36.54,-4.14,41.6791,0.5719,0.2212,55.81407,37.500393,210.7,NaN,,13.031,,0 / 2,,3134,2021-05-02 18:58:59:763
0.328016,-0.026337,9.754275,-0.04564,-0.096513,9.806069,-0.00281,0.005191,1.463448,-31.92,36.54,-4.14,41.6791,0.5719,0.2212,55.81407,37.500393,210.7,NaN,,13.031,,0 / 2,,3144,2021-05-02 18:58:59:773
0.26337,0.002394,9.730332,-0.04564,-0.096513,9.806069,-0.004032,0.011911,1.39381,-31.38,37.08,-3.72,41.6791,0.5719,0.2212,55.81407,37.500393,210.7,NaN,,13.031,,0 / 2,,3154,2021-05-02 18:58:59:783
0.299284,0.098165,9.775824,-0.048946,-0.095715,9.806061,-0.004032,0.009467,1.283243,-31.38,37.08,-3.72,41.6791,0.5719,0.2212,55.81407,37.500393,210.7,NaN,,13.031,,0 / 2,,3164,2021-05-02 18:58:59:793
0.287313,0.158022,9.799767,-0.048946,-0.095715,9.806061,-0.004032,0.009467,1.283243,-30.9,36.66,-3.72,40.0053,0.5592,0.286,55.81407,37.500393,210.7,NaN,,13.031,,0 / 2,,3174,2021-05-02 18:58:59:803
0.198725,0.117319,9.787795,-0.053001,-0.094245,9.806054,-0.004032,0.009467,1.180007,-30.9,36.66,-3.72,40.0053,0.5592,0.286,55.81407,37.500393,210.7,NaN,,13.031,,0 / 2,,3184,2021-05-02 18:58:59:813
0.198725,0.117319,9.787795,-0.054287,-0.093617,9.806053,-3.67E-4,0.011911,1.050503,-30.3,37.02,-3.96,40.0053,0.5592,0.286,55.81407,37.500393,210.7,NaN,,13.031,,0 / 2,,3195,2021-05-02 18:58:59:824
0.131685,0.06704,9.689631,-0.054287,-0.093617,9.806053,-0.003421,0.006413,0.971702,-30.3,37.02,-3.96,40.0053,0.5592,0.286,55.81407,37.500393,210.7,NaN,,13.031,,0 / 2,,3205,2021-05-02 18:58:59:834
0.107742,-0.021548,9.80695,-0.055863,-0.09288,9.806051,2.44E-4,0.002748,0.954597,-30.66,37.2,-4.26,40.0064,0.547,0.3172,55.81407,37.500393,210.7,NaN,,13.031,,0 / 2,,3214,2021-05-02 18:58:59:843
0.102954,-0.05028,9.792584,-0.055863,-0.09288,9.806051,-0.002199,0.003969,0.944823,-30.66,37.2,-4.26,40.0064,0.547,0.3172,55.81407,37.500393,210.7,NaN,,13.031,,0 / 2,,3224,2021-05-02 18:58:59:853
0.102954,-0.05028,9.792584,-0.058005,-0.091522,9.806051,-0.00281,0.005191,0.944823,-30.24,37.86,-4.8,40.0064,0.547,0.3172,55.81407,37.500393,210.7,NaN,,13.031,,0 / 2,,3234,2021-05-02 18:58:59:863
0.01676,-0.0838,9.737515,-0.058005,-0.091522,9.806051,-0.002199,0.003969,0.95643,-30.24,37.86,-4.8,40.0064,0.547,0.3172,55.81407,37.500393,210.7,NaN,,13.031,,0 / 2,,3244,2021-05-02 18:58:59:873
0.059857,-0.040703,9.749487,-0.060425,-0.090308,9.806048,-0.004643,0.001526,0.95643,-30.0,39.0,-4.56,37.6292,0.5276,0.3531,55.81407,37.500393,210.7,NaN,,13.031,,0 / 2,,3255,2021-05-02 18:58:59:884
0.071828,0.028731,9.835681,-0.060425,-0.090308,9.806048,-0.002199,0.001526,0.957652,-30.0,39.0,-4.56,37.6292,0.5276,0.3531,55.81407,37.500393,210.7,NaN,,13.031,,0 / 2,,3264,2021-05-02 18:58:59:893
0.071828,0.028731,9.835681,-0.063623,-0.089445,9.806036,2.44E-4,0.005191,0.974145,-29.1,39.3,-4.2,37.6292,0.5276,0.3531,55.81407,37.500393,210.7,NaN,,13.031,,0 / 2,,3275,2021-05-02 18:58:59:904
0.095771,0.045491,9.744699,-0.063623,-0.089445,9.806036,-0.003421,0.001526,0.971091,-29.1,39.3,-4.2,37.6292,0.5276,0.3531,55.81407,37.500393,210.7,NaN,,13.031,,0 / 2,,3284,2021-05-02 18:58:59:913
0.239427,0.150839,9.70639,-0.065694,-0.088382,9.806032,-0.001588,0.001526,0.917335,-28.32,39.06,-4.68,35.739,0.5226,0.3717,55.81407,37.500393,210.7,NaN,,13.031,,0 / 2,,3295,2021-05-02 18:58:59:924
0.320833,0.124502,9.783007,-0.065694,-0.088382,9.806032,-0.003421,0.010078,0.812266,-28.32,39.06,-4.68,35.739,0.5226,0.3717,55.81407,37.500393,210.7,NaN,,13.031,,0 / 2,,3304,2021-05-02 18:58:59:933
0.41421,0.10056,9.744699,-0.067509,-0.087731,9.806026,-0.002199,-0.002139,0.705975,-28.74,39.0,-4.08,35.739,0.5226,0.3717,55.81407,37.500393,210.7,NaN,,13.031,,0 / 2,,3315,2021-05-02 18:58:59:944
0.41421,0.10056,9.744699,-0.067509,-0.087731,9.806026,-0.002199,-0.002139,0.705975,-28.74,39.0,-4.08,35.739,0.5226,0.3717,55.81407,37.500393,210.7,NaN,,13.031,,0 / 2,,3324,2021-05-02 18:58:59:953
0.203513,0.019154,9.799767,-0.067667,-0.08724,9.806028,8.55E-4,9.15E-4,0.633893,-28.74,39.48,-3.72,36.6845,0.5126,0.3944,55.81407,37.500393,210.7,NaN,,13.031,,0 / 2,,3334,2021-05-02 18:58:59:963
-0.545895,-0.153234,9.73991,-0.067667,-0.08724,9.806028,-0.002199,9.15E-4,0.652219,-28.74,39.48,-3.72,36.6845,0.5126,0.3944,55.81407,37.500393,210.7,NaN,,13.031,,0 / 2,,3344,2021-05-02 18:58:59:973
-0.775745,-0.150839,9.873989,-0.069142,-0.086496,9.806025,-0.00281,3.04E-4,0.735908,-28.38,39.54,-4.68,36.6845,0.5126,0.3944,55.81407,37.500393,210.7,NaN,,13.031,,0 / 2,,3354,2021-05-02 18:58:59:983
-0.28013,-0.136474,9.857229,-0.069142,-0.086496,9.806025,-0.00281,3.04E-4,0.823872,-28.38,39.54,-4.68,36.6845,0.5126,0.3944,55.81407,37.500393,210.7,NaN,,13.031,,0 / 2,,3364,2021-05-02 18:58:59:993
-0.28013,-0.136474,9.857229,-0.07057,-0.085848,9.806021,-0.004032,0.010078,0.867854,-28.08,39.54,-5.04,35.0548,0.5054,0.404,55.81407,37.500393,210.7,NaN,,13.031,,0 / 2,,3374,2021-05-02 18:59:00:003
0.031126,-0.064645,9.663293,-0.07057,-0.085848,9.806021,-0.006475,0.002137,0.877017,-28.08,39.54,-5.04,35.0548,0.5054,0.404,55.81407,37.500393,210.7,NaN,,13.031,,0 / 2,,3385,2021-05-02 18:59:00:014
0.03352,-0.045491,9.754275,-0.073279,-0.085422,9.806005,-0.00281,0.006413,0.876407,-28.02,40.2,-4.62,35.0548,0.5054,0.404,55.81407,37.500393,210.7,NaN,,13.031,,0 / 2,,3394,2021-05-02 18:59:00:023
-0.055068,-0.043097,9.794978,-0.073279,-0.085422,9.806005,-0.005253,0.003359,0.875796,-28.02,40.2,-4.62,35.0548,0.5054,0.404,55.81407,37.500393,210.7,NaN,,13.031,,0 / 2,,3404,2021-05-02 18:59:00:033
-0.222668,-0.059857,9.792584,-0.075368,-0.084608,9.805996,-3.67E-4,0.001526,0.899009,-27.42,40.62,-5.16,33.4299,0.4991,0.4282,55.81407,37.500393,210.7,NaN,,13.031,,0 / 2,,3414,2021-05-02 18:59:00:043
-0.222668,-0.059857,9.792584,-0.075368,-0.084608,9.805996,-0.002199,0.005191,0.939937,-27.42,40.62,-5.16,33.4299,0.4991,0.4282,55.81407,37.500393,210.7,NaN,,13.031,,0 / 2,,3424,2021-05-02 18:59:00:053
0.038308,-0.055068,9.79019,-0.077797,-0.083345,9.805987,-0.00281,-9.18E-4,0.986973,-27.42,40.44,-5.1,33.4299,0.4991,0.4282,55.81407,37.500393,210.7,NaN,,13.031,,0 / 2,,3434,2021-05-02 18:59:00:063
0.038308,-0.06704,9.715967,-0.077797,-0.083345,9.805987,-0.003421,9.15E-4,1.009575,-27.42,40.44,-5.1,33.4299,0.4991,0.4282,55.81407,37.500393,210.7,NaN,,13.031,,0 / 2,,3444,2021-05-02 18:59:00:073
0.038308,-0.06704,9.715967,-0.080403,-0.082214,9.805976,-0.004032,0.014354,1.030345,-26.76,40.98,-3.84,33.4181,0.487,0.4546,55.81407,37.500393,210.7,NaN,,13.031,,0 / 2,,3454,2021-05-02 18:59:00:083
0.06704,-0.0838,9.79019,-0.080403,-0.082214,9.805976,-0.004032,0.014354,1.030345,-26.76,40.98,-3.84,33.4181,0.487,0.4546,55.81407,37.500393,210.7,NaN,,13.031,,0 / 2,,3464,2021-05-02 18:59:00:093
0.10056,-0.122108,9.814133,-0.084166,-0.081034,9.805954,-0.004032,0.003969,1.052947,-26.46,41.52,-3.9,33.4181,0.487,0.4546,55.81407,37.500393,210.7,NaN,,13.031,,0 / 2,,3474,2021-05-02 18:59:00:103
0.167599,-0.105348,9.768641,-0.084166,-0.081034,9.805954,-0.001588,0.005191,1.067607,-26.46,41.52,-3.9,33.4181,0.487,0.4546,55.81407,37.500393,210.7,NaN,,13.031,,0 / 2,,3484,2021-05-02 18:59:00:113
0.217879,-0.076617,9.780613,-0.086552,-0.080242,9.80594,-0.003421,0.009467,1.085322,-26.46,41.64,-4.5,31.8123,0.4735,0.4918,55.81407,37.500393,210.7,NaN,,13.031,,0 / 2,,3494,2021-05-02 18:59:00:123
0.217879,-0.076617,9.780613,-0.086552,-0.080242,9.80594,-0.004032,-0.005804,1.096929,-26.46,41.64,-4.5,31.8123,0.4735,0.4918,55.81407,37.500393,210.7,NaN,,13.031,,0 / 2,,3504,2021-05-02 18:59:00:133
0.208302,-0.038308,9.838076,-0.088582,-0.079035,9.805931,-0.001588,0.005191,1.09754,-25.5,41.7,-4.44,31.8123,0.4735,0.4918,55.81407,37.500393,210.7,NaN,,13.031,,0 / 2,,3514,2021-05-02 18:59:00:143
0.222668,-0.014366,9.742304,-0.088582,-0.079035,9.805931,-0.005253,0.002137,1.095707,-25.5,41.7,-4.44,31.8123,0.4735,0.4918,55.81407,37.500393,210.7,NaN,,13.031,,0 / 2,,3524,2021-05-02 18:59:00:153
0.181965,-0.055068,9.727939,-0.091443,-0.077231,9.80592,-0.003421,0.007635,1.08349,-25.26,41.94,-4.08,30.8172,0.4618,0.5176,55.81407,37.500393,210.7,NaN,,13.031,,0 / 2,,3534,2021-05-02 18:59:00:163
0.181965,-0.055068,9.727939,-0.091443,-0.077231,9.80592,-0.003421,0.006413,1.068829,-25.26,41.94,-4.08,30.8172,0.4618,0.5176,55.81407,37.500393,210.7,NaN,,13.031,,0 / 2,,3544,2021-05-02 18:59:00:173
0.172388,-0.01676,9.797373,-0.09227,-0.075685,9.805923,-0.00281,0.005802,1.043173,-25.02,42.84,-4.56,30.8172,0.4618,0.5176,55.81407,37.500393,210.7,NaN,,13.031,,0 / 2,,3554,2021-05-02 18:59:00:183
0.189148,-0.031126,9.842864,-0.09227,-0.075685,9.805923,-0.002199,0.003359,1.033399,-25.02,42.84,-4.56,30.8172,0.4618,0.5176,55.81407,37.500393,210.7,NaN,,13.031,,0 / 2,,3564,2021-05-02 18:59:00:193
0.011971,-0.112531,9.75667,-0.093766,-0.0744,9.80592,-9.77E-4,-0.001528,1.033399,-24.36,42.96,-4.8,29.236,0.4422,0.5391,55.81407,37.500393,210.7,NaN,,13.031,,0 / 2,,3574,2021-05-02 18:59:00:203
0.011971,-0.112531,9.75667,-0.093766,-0.0744,9.80592,-0.00281,-0.005804,1.051114,-24.36,42.96,-4.8,29.236,0.4422,0.5391,55.81407,37.500393,210.7,NaN,,13.031,,0 / 2,,3585,2021-05-02 18:59:00:214
-0.002394,-0.107742,9.794978,-0.095841,-0.07282,9.805911,0.002077,-9.18E-4,1.087766,-24.12,42.72,-4.2,29.236,0.4422,0.5391,55.81407,37.500393,210.7,NaN,,13.031,,0 / 2,,3595,2021-05-02 18:59:00:224
-0.210696,-0.124502,9.77343,-0.095841,-0.07282,9.805911,-0.001588,0.003359,1.144576,-24.12,42.72,-4.2,29.236,0.4422,0.5391,55.81407,37.500393,210.7,NaN,,13.031,,0 / 2,,3604,2021-05-02 18:59:00:233
-0.172388,-0.088588,9.73991,-0.097577,-0.071179,9.805906,-3.67E-4,0.005802,1.215437,-24.24,42.96,-4.32,29.2227,0.4255,0.56,55.81407,37.500393,210.7,NaN,,13.031,,0 / 2,,3614,2021-05-02 18:59:00:243
-0.03352,-0.112531,9.70639,-0.097577,-0.071179,9.805906,-0.002199,0.008245,1.258808,-24.24,42.96,-4.32,29.2227,0.4255,0.56,55.81407,37.500393,210.7,NaN,,13.031,,0 / 2,,3624,2021-05-02 18:59:00:253
-0.03352,-0.112531,9.70639,-0.099481,-0.06904,9.805902,-0.002199,0.008245,1.258808,-23.52,43.74,-4.98,29.2227,0.4255,0.56,55.81407,37.500393,210.7,NaN,,13.031,,0 / 2,,3634,2021-05-02 18:59:00:263
0.014366,-0.081405,9.718362,-0.099481,-0.06904,9.805902,-0.004643,0.005191,1.307067,-23.52,43.74,-4.98,29.2227,0.4255,0.56,55.81407,37.500393,210.7,NaN,,13.031,,0 / 2,,3644,2021-05-02 18:59:00:273
0.337593,0.038308,9.751882,-0.102165,-0.066958,9.805889,-0.003421,0.010689,1.333945,-22.74,44.4,-5.46,27.6665,0.4034,0.5812,55.81407,37.500393,210.7,NaN,,13.031,,0 / 2,,3654,2021-05-02 18:59:00:283
0.495615,0.076617,9.751882,-0.102165,-0.066958,9.805889,-0.001588,0.007024,1.327225,-22.74,44.4,-5.46,27.6665,0.4034,0.5812,55.81407,37.500393,210.7,NaN,,13.031,,0 / 2,,3664,2021-05-02 18:59:00:293
0.555472,0.090982,9.771035,-0.105313,-0.064681,9.805871,-0.004032,0.013743,1.269193,-22.44,44.22,-5.16,27.6665,0.4034,0.5812,55.81407,37.500393,210.7,NaN,,13.031,,0 / 2,,3674,2021-05-02 18:59:00:303
0.555472,0.090982,9.771035,-0.105313,-0.064681,9.805871,-0.001588,0.021074,1.197722,-22.44,44.22,-5.16,27.6665,0.4034,0.5812,55.81407,37.500393,210.7,NaN,,13.031,,0 / 2,,3684,2021-05-02 18:59:00:313
0.481249,0.057463,9.742304,-0.10774,-0.062244,9.805861,-0.003421,0.005802,1.098762,-21.36,43.98,-4.44,25.5712,0.3779,0.6153,55.81407,37.500393,210.7,NaN,,13.031,,0 / 2,,3694,2021-05-02 18:59:00:323
0.591386,0.088588,9.732727,-0.10774,-0.062244,9.805861,-0.004032,0.012522,0.983308,-21.36,43.98,-4.44,25.5712,0.3779,0.6153,55.81407,37.500393,210.7,NaN,,13.031,,0 / 2,,3704,2021-05-02 18:59:00:333
0.691945,0.169994,9.730332,-0.109751,-0.060198,9.805852,-0.00281,0.005802,0.832424,-20.58,44.22,-4.5,25.5712,0.3779,0.6153,55.81407,37.500393,210.7,NaN,,13.031,,0 / 2,,3715,2021-05-02 18:59:00:344
0.143657,0.098165,9.730332,-0.109751,-0.060198,9.805852,-0.00281,0.009467,0.671156,-20.58,44.22,-4.5,25.5712,0.3779,0.6153,55.81407,37.500393,210.7,NaN,,13.031,,0 / 2,,3725,2021-05-02 18:59:00:354
0.143657,0.098165,9.730332,-0.111242,-0.058712,9.805843,-3.67E-4,0.001526,0.565476,-19.8,44.34,-4.26,24.5027,0.3517,0.6413,55.81407,37.500393,210.7,NaN,,13.031,,0 / 2,,3734,2021-05-02 18:59:00:363
0.126897,0.160416,9.73991,-0.111242,-0.058712,9.805843,-0.00281,0.003969,0.463462,-19.8,44.34,-4.26,24.5027,0.3517,0.6413,55.81407,37.500393,210.7,NaN,,13.031,,0 / 2,,3745,2021-05-02 18:59:00:374
0.141262,0.196331,9.749487,-0.111411,-0.057251,9.805851,-9.77E-4,-3.07E-4,0.343732,-19.44,44.7,-4.68,24.5027,0.3517,0.6413,55.81407,37.500393,210.7,NaN,,13.031,,0 / 2,,3754,2021-05-02 18:59:00:383
0.114925,0.186753,9.763853,-0.111411,-0.057251,9.805851,-3.67E-4,0.002748,0.230722,-19.44,44.7,-4.68,24.5027,0.3517,0.6413,55.81407,37.500393,210.7,NaN,,13.031,,0 / 2,,3764,2021-05-02 18:59:00:393
0.114925,0.186753,9.763853,-0.111337,-0.056504,9.805855,-3.67E-4,0.002748,0.230722,-19.8,45.48,-5.28,24.035,0.3345,0.651,55.81407,37.500393,210.7,NaN,,13.031,,0 / 2,,3775,2021-05-02 18:59:00:404
0.114925,0.201119,9.759064,-0.111337,-0.056504,9.805855,-0.001588,0.002137,0.117101,-19.8,45.48,-5.28,24.035,0.3345,0.651,55.81407,37.500393,210.7,NaN,,13.031,,0 / 2,,3785,2021-05-02 18:59:00:414
0.031126,0.045491,9.75667,-0.111249,-0.056077,9.80586,-0.002199,0.001526,-0.002629,-19.62,45.6,-5.46,24.035,0.3345,0.651,55.81407,37.500393,210.7,NaN,,13.031,,0 / 2,,3795,2021-05-02 18:59:00:424
0.028731,0.028731,9.744699,-0.111249,-0.056077,9.80586,8.55E-4,-0.003361,4.26E-4,-19.62,45.6,-5.46,24.035,0.3345,0.651,55.81407,37.500393,210.7,NaN,,13.031,,0 / 2,,3805,2021-05-02 18:59:00:434
0.028731,0.028731,9.744699,-0.110846,-0.055755,9.805865,8.55E-4,-9.18E-4,0.001037,-19.08,45.3,-5.22,22.9633,0.3276,0.65,55.81407,37.500393,210.7,NaN,,13.031,,0 / 2,,3814,2021-05-02 18:59:00:443
0.026337,0.009577,9.754275,-0.110846,-0.055755,9.805865,2.44E-4,3.04E-4,0.002869,-19.08,45.3,-5.22,22.9633,0.3276,0.65,55.81407,37.500393,210.7,NaN,,13.031,,0 / 2,,3824,2021-05-02 18:59:00:453
0.019154,0.007183,9.72315,-0.110358,-0.055711,9.805871,-0.004032,0.001526,-0.003239,-18.9,45.48,-4.56,22.9633,0.3276,0.65,55.81407,37.500393,210.7,NaN,,13.031,,0 / 2,,3834,2021-05-02 18:59:00:463
0.014366,0.014366,9.744699,-0.110358,-0.055711,9.805871,2.44E-4,9.15E-4,-0.001407,-18.9,45.48,-4.56,22.9633,0.3276,0.65,55.81407,37.500393,210.7,NaN,,13.031,,0 / 2,,3845,2021-05-02 18:59:00:474
0.014366,0.014366,9.744699,-0.109904,-0.055774,9.805876,-0.001588,-0.001528,-0.003239,-19.14,45.48,-3.96,22.948,0.3255,0.6448,55.81407,37.500393,210.7,NaN,,13.031,,0 / 2,,3854,2021-05-02 18:59:00:483
0.031126,0.035914,9.768641,-0.109904,-0.055774,9.805876,-0.001588,-9.18E-4,-0.002018,-19.14,45.48,-3.96,22.948,0.3255,0.6448,55.81407,37.500393,210.7,NaN,,13.031,,0 / 2,,3865,2021-05-02 18:59:00:494
0.019154,0.028731,9.751882,-0.109523,-0.055607,9.805881,-9.77E-4,9.15E-4,0.001037,-19.2,44.82,-3.84,22.948,0.3255,0.6448,55.81407,37.500393,210.7,NaN,,13.031,,0 / 2,,3875,2021-05-02 18:59:00:504
0.023943,0.021548,9.725544,-0.109523,-0.055607,9.805881,-0.00281,-3.07E-4,-0.003239,-19.2,44.82,-3.84,22.948,0.3255,0.6448,55.81407,37.500393,210.7,NaN,,13.031,,0 / 2,,3884,2021-05-02 18:59:00:513
0.023943,0.021548,9.725544,-0.109109,-0.055594,9.805885,-0.00281,-9.18E-4,-0.001407,-19.68,44.76,-4.68,24.0337,0.3249,0.6399,55.81407,37.500393,210.7,NaN,,13.031,,0 / 2,,3894,2021-05-02 18:59:00:523
0.026337,0.009577,9.759064,-0.109109,-0.055594,9.805885,-0.00281,-9.18E-4,-0.001407,-19.68,44.76,-4.68,24.0337,0.3249,0.6399,55.81407,37.500393,210.7,NaN,,13.031,,0 / 2,,3904,2021-05-02 18:59:00:533
0.031126,0.009577,9.780613,-0.108778,-0.055545,9.80589,-3.67E-4,0.001526,-0.002629,-19.68,45.0,-4.8,24.0337,0.3249,0.6399,55.81407,37.500393,210.7,NaN,,13.031,,0 / 2,,3916,2021-05-02 18:59:00:545
0.031126,0.009577,9.780613,-0.108778,-0.055545,9.80589,-0.004643,3.04E-4,-0.003239,-19.68,45.0,-4.8,24.0337,0.3249,0.6399,55.81407,37.500393,210.7,NaN,,13.031,,0 / 2,,3924,2021-05-02 18:59:00:553
0.023943,0.014366,9.730332,-0.108761,-0.055384,9.805891,-0.002199,-3.07E-4,4.26E-4,-19.26,44.94,-4.74,22.9619,0.3245,0.6356,55.81407,37.500393,210.7,NaN,,13.031,,0 / 2,,3934,2021-05-02 18:59:00:563
0.023943,0.014366,9.730332,-0.108761,-0.055384,9.805891,-0.002199,-3.07E-4,4.26E-4,-19.26,44.94,-4.74,22.9619,0.3245,0.6356,55.81407,37.500393,210.7,NaN,,13.031,,0 / 2,,3945,2021-05-02 18:59:00:574
0.023943,0.014366,9.732727,-0.108597,-0.055297,9.805893,8.55E-4,9.15E-4,-7.96E-4,-19.2,45.18,-4.62,22.9619,0.3245,0.6356,55.81407,37.500393,210.7,NaN,,13.031,,0 / 2,,3954,2021-05-02 18:59:00:583
0.01676,0.019154,9.754275,-0.108597,-0.055297,9.805893,-3.67E-4,-9.18E-4,-0.001407,-19.2,45.18,-4.62,22.9619,0.3245,0.6356,55.81407,37.500393,210.7,NaN,,13.031,,0 / 2,,3964,2021-05-02 18:59:00:593
0.028731,0.011971,9.699207,-0.108117,-0.055266,9.805898,-0.00281,3.04E-4,-0.005683,-19.14,44.94,-5.16,22.9618,0.3231,0.6345,55.81407,37.500393,210.7,NaN,,13.031,,0 / 2,,3974,2021-05-02 18:59:00:603
0.023943,0.011971,9.744699,-0.108117,-0.055266,9.805898,-0.002199,-3.07E-4,-0.001407,-19.14,44.94,-5.16,22.9618,0.3231,0.6345,55.81407,37.500393,210.7,NaN,,13.031,,0 / 2,,3984,2021-05-02 18:59:00:613
0.023943,0.011971,9.744699,-0.081306,-0.040876,9.806228,-9.77E-4,0.002137,0.001037,-19.02,44.64,-5.88,22.9618,0.3231,0.6345,55.81407,37.500393,210.7,NaN,,13.031,,0 / 2,,3994,2021-05-02 18:59:00:623
0.045491,0.021548,9.77343,-0.081306,-0.040876,9.806228,-9.77E-4,-9.18E-4,-7.96E-4,-19.02,44.64,-5.88,22.9618,0.3231,0.6345,55.81407,37.500393,210.7,NaN,,13.031,,0 / 2,,4004,2021-05-02 18:59:00:633
0.021548,0.007183,9.744699,-0.059678,-0.029736,9.806423,0.001466,-0.001528,-0.002018,-18.84,45.06,-5.4,22.944,0.2388,0.475,55.81407,37.500393,210.7,NaN,,13.031,,0 / 2,,4014,2021-05-02 18:59:00:643
0.028731,0.028731,9.73991,-0.059678,-0.029736,9.806423,-0.00281,-9.18E-4,-0.002629,-18.84,45.06,-5.4,22.944,0.2388,0.475,55.81407,37.500393,210.7,NaN,,13.031,,0 / 2,,4024,2021-05-02 18:59:00:653
0.026337,0.03352,9.742304,-0.042271,-0.020413,9.806538,-9.77E-4,-9.18E-4,-0.001407,-19.5,45.48,-4.68,22.944,0.2388,0.475,55.81407,37.500393,210.7,NaN,,13.031,,0 / 2,,4034,2021-05-02 18:59:00:663
0.026337,0.03352,9.742304,-0.042271,-0.020413,9.806538,0.002077,3.04E-4,0.001648,-19.5,45.48,-4.68,22.944,0.2388,0.475,55.81407,37.500393,210.7,NaN,,13.031,,0 / 2,,4045,2021-05-02 18:59:00:674
0.026337,0.019154,9.744699,-0.029088,-0.012942,9.806599,0.002077,3.04E-4,0.001648,-19.74,45.54,-4.26,23.5202,0.1193,0.247,55.81407,37.500393,210.7,NaN,,13.031,,0 / 2,,4054,2021-05-02 18:59:00:683
0.009577,0.01676,9.742304,-0.029088,-0.012942,9.806599,-3.67E-4,-0.002139,-1.85E-4,-19.74,45.54,-4.26,23.5202,0.1193,0.247,55.81407,37.500393,210.7,NaN,,13.031,,0 / 2,,4064,2021-05-02 18:59:00:693
0.009577,0.01676,9.742304,-0.018306,-0.006646,9.806631,-0.001588,9.15E-4,-0.002018,-18.78,45.6,-4.32,23.5202,0.1193,0.247,55.81407,37.500393,210.7,NaN,,13.031,,0 / 2,,4074,2021-05-02 18:59:00:703
0.031126,0.026337,9.72315,-0.018306,-0.006646,9.806631,0.001466,3.04E-4,0.002869,-18.78,45.6,-4.32,23.5202,0.1193,0.247,55.81407,37.500393,210.7,NaN,,13.031,,0 / 2,,4084,2021-05-02 18:59:00:713
0.028731,0.01676,9.77343,-0.009372,-0.001777,9.806645,8.55E-4,0.002137,-0.00385,-18.84,45.3,-4.2,22.8998,0.0388,0.107,55.81407,37.500393,210.7,NaN,,13.031,,0 / 2,,4094,2021-05-02 18:59:00:723
0.028731,0.028731,9.75667,-0.009372,-0.001777,9.806645,-3.67E-4,-0.001528,-0.002018,-18.84,45.3,-4.2,22.8998,0.0388,0.107,55.81407,37.500393,210.7,NaN,,13.031,,0 / 2,,4105,2021-05-02 18:59:00:734
0.03352,0.028731,9.75667,-0.001924,0.00231,9.806649,-0.002199,-3.07E-4,0.002258,-19.32,45.12,-4.62,22.8998,0.0388,0.107,55.81407,37.500393,210.7,NaN,,13.031,,0 / 2,,4115,2021-05-02 18:59:00:744
0.043097,0.023943,9.72315,-0.001924,0.00231,9.806649,-0.001588,0.001526,-1.85E-4,-19.32,45.12,-4.62,22.8998,0.0388,0.107,55.81407,37.500393,210.7,NaN,,13.031,,0 / 2,,4124,2021-05-02 18:59:00:753
0.021548,0.014366,9.720756,0.004181,0.005603,9.806648,-0.001588,-9.18E-4,-0.006294,-19.44,45.24,-5.16,22.8911,-0.0135,0.0112,55.81407,37.500393,210.7,NaN,,13.031,,0 / 2,,4134,2021-05-02 18:59:00:763
0.03352,0.03352,9.751882,0.004181,0.005603,9.806648,-9.77E-4,-9.18E-4,-1.85E-4,-19.44,45.24,-5.16,22.8911,-0.0135,0.0112,55.81407,37.500393,210.7,NaN,,13.031,,0 / 2,,4144,2021-05-02 18:59:00:773
0.03352,0.03352,9.751882,0.009339,0.008221,9.806643,8.55E-4,-0.00275,4.26E-4,-19.5,44.7,-4.86,22.8911,-0.0135,0.0112,55.81407,37.500393,210.7,NaN,,13.031,,0 / 2,,4154,2021-05-02 18:59:00:783
0.03352,0.01676,9.749487,0.009339,0.008221,9.806643,8.55E-4,-9.18E-4,0.001648,-19.5,44.7,-4.86,22.8911,-0.0135,0.0112,55.81407,37.500393,210.7,NaN,,13.031,,0 / 2,,4164,2021-05-02 18:59:00:793
0.023943,0.021548,9.72315,0.013819,0.010252,9.806636,-9.77E-4,0.001526,-0.002018,-19.74,44.22,-4.74,24.4368,-0.048,-0.0546,55.81407,37.500393,210.7,NaN,,13.031,,0 / 2,,4174,2021-05-02 18:59:00:803
0.031126,0.01676,9.727939,0.013819,0.010252,9.806636,-9.77E-4,0.001526,-0.002629,-19.74,44.22,-4.74,24.4368,-0.048,-0.0546,55.81407,37.500393,210.7,NaN,,13.031,,0 / 2,,4184,2021-05-02 18:59:00:813
0.028731,0.028731,9.737515,0.016974,0.011721,9.806628,-9.77E-4,-9.18E-4,-7.96E-4,-19.74,44.94,-5.1,24.4368,-0.048,-0.0546,55.81407,37.500393,210.7,NaN,,13.031,,0 / 2,,4194,2021-05-02 18:59:00:823
0.028731,0.028731,9.737515,0.016974,0.011721,9.806628,-0.00281,-0.00275,-0.002018,-19.74,44.94,-5.1,24.4368,-0.048,-0.0546,55.81407,37.500393,210.7,NaN,,13.031,,0 / 2,,4205,2021-05-02 18:59:00:834
0.045491,0.009577,9.725544,0.019767,0.012806,9.806622,-3.67E-4,9.15E-4,-0.002018,-19.56,45.66,-5.46,23.4867,-0.0685,-0.0992,55.81407,37.500393,210.7,NaN,,13.031,,0 / 2,,4215,2021-05-02 18:59:00:844
0.035914,0.028731,9.766247,0.019767,0.012806,9.806622,-3.67E-4,9.15E-4,-0.002018,-19.56,45.66,-5.46,23.4867,-0.0685,-0.0992,55.81407,37.500393,210.7,NaN,,13.031,,0 / 2,,4224,2021-05-02 18:59:00:853
0.035914,0.028731,9.766247,0.022232,0.013617,9.806615,0.001466,-0.001528,-0.001407,-19.62,45.3,-5.16,23.4867,-0.0685,-0.0992,55.81407,37.500393,210.7,NaN,,13.031,,0 / 2,,4234,2021-05-02 18:59:00:863
0.028731,0.009577,9.727939,0.022232,0.013617,9.806615,2.44E-4,3.04E-4,-0.001407,-19.62,45.3,-5.16,23.4867,-0.0685,-0.0992,55.81407,37.500393,210.7,NaN,,13.031,,0 / 2,,4244,2021-05-02 18:59:00:873
0.026337,0.03352,9.732727,0.023877,0.013815,9.806611,2.44E-4,0.002137,-7.96E-4,-19.92,45.42,-4.5,23.9502,-0.0796,-0.1299,55.81407,37.500393,210.7,NaN,,13.031,,0 / 2,,4254,2021-05-02 18:59:00:883
0.035914,0.028731,9.742304,0.023877,0.013815,9.806611,-9.77E-4,0.001526,-1.85E-4,-19.92,45.42,-4.5,23.9502,-0.0796,-0.1299,55.81407,37.500393,210.7,NaN,,13.031,,0 / 2,,4264,2021-05-02 18:59:00:893
0.019154,0.021548,9.730332,0.024661,0.01477,9.806608,2.44E-4,3.04E-4,-1.85E-4,-19.38,45.72,-4.86,23.9502,-0.0796,-0.1299,55.81407,37.500393,210.7,NaN,,13.031,,0 / 2,,4274,2021-05-02 18:59:00:903
0.035914,0.009577,9.713573,0.024661,0.01477,9.806608,2.44E-4,-3.07E-4,-7.96E-4,-19.38,45.72,-4.86,23.9502,-0.0796,-0.1299,55.81407,37.500393,210.7,NaN,,13.031,,0 / 2,,4284,2021-05-02 18:59:00:913
0.035914,0.009577,9.713573,0.024843,0.014711,9.806607,2.44E-4,-3.07E-4,-7.96E-4,-19.68,45.66,-5.1,23.4819,-0.0863,-0.1441,55.81407,37.500393,210.7,NaN,,13.031,,0 / 2,,4294,2021-05-02 18:59:00:923
0.011971,0.002394,9.749487,0.024843,0.014711,9.806607,-0.005253,0.017408,0.001037,-19.68,45.66,-5.1,23.4819,-0.0863,-0.1441,55.81407,37.500393,210.7,NaN,,13.031,,0 / 2,,4304,2021-05-02 18:59:00:933
-1.261783,-0.155628,9.783007,0.023344,0.014498,9.806612,-0.007086,0.016187,0.079227,-19.74,45.72,-4.32,23.4819,-0.0863,-0.1441,55.81407,37.500393,210.7,NaN,,13.031,,0 / 2,,4314,2021-05-02 18:59:00:943
-1.041509,-0.146051,9.732727,0.023344,0.014498,9.806612,-0.004032,0.010078,0.32113,-19.74,45.72,-4.32,23.4819,-0.0863,-0.1441,55.81407,37.500393,210.7,NaN,,13.031,,0 / 2,,4324,2021-05-02 18:59:00:953
-1.041509,-0.146051,9.732727,0.001967,0.010511,9.806644,-9.77E-4,0.007635,0.614345,-19.02,45.9,-4.26,22.43,-0.0847,-0.1364,55.81407,37.500393,210.7,NaN,,13.031,,0 / 2,,4334,2021-05-02 18:59:00:963
-0.292102,-0.088588,9.744699,0.001967,0.010511,9.806644,-0.006475,0.010689,0.790275,-19.02,45.9,-4.26,22.43,-0.0847,-0.1364,55.81407,37.500393,210.7,NaN,,13.031,,0 / 2,,4345,2021-05-02 18:59:00:974
0.464489,-0.165205,9.75667,8.6E-4,0.010122,9.806644,-0.004643,0.003969,0.819596,-18.6,46.02,-4.92,22.43,-0.0847,-0.1364,55.81407,37.500393,210.7,NaN,,13.031,,0 / 2,,4354,2021-05-02 18:59:00:983
0.433364,-0.227456,9.804555,8.6E-4,0.010122,9.806644,-0.004032,0.001526,0.800048,-18.6,46.02,-4.92,22.43,-0.0847,-0.1364,55.81407,37.500393,210.7,NaN,,13.031,,0 / 2,,4364,2021-05-02 18:59:00:993
0.433364,-0.227456,9.804555,-0.001244,0.008927,9.806646,-0.005253,0.003969,0.80127,-18.84,45.78,-5.22,22.44,-0.0591,-0.005,55.81407,37.500393,210.7,NaN,,13.031,,0 / 2,,4374,2021-05-02 18:59:01:003
0.028731,-0.265764,9.703996,-0.001406,0.008589,9.806646,2.44E-4,3.04E-4,0.823261,-18.66,45.54,-4.92,22.44,-0.0591,-0.005,55.81407,37.500393,210.7,NaN,,13.031,,0 / 2,,4385,2021-05-02 18:59:01:014
0.028731,-0.265764,9.703996,-0.001406,0.008589,9.806646,2.44E-4,3.04E-4,0.823261,-18.66,45.54,-4.92,22.44,-0.0591,-0.005,55.81407,37.500393,210.7,NaN,,13.031,,0 / 2,,4394,2021-05-02 18:59:01:023
-0.311256,-0.227456,9.727939,-0.001035,0.008115,9.806646,0.002077,9.15E-4,0.873963,-18.72,45.6,-5.22,22.44,-0.0591,-0.005,55.81407,37.500393,210.7,NaN,,13.031,,0 / 2,,4404,2021-05-02 18:59:01:033
-0.371113,-0.191542,9.749487,-0.001035,0.008115,9.806646,-0.004032,0.005191,0.915502,-18.72,45.6,-5.22,22.44,-0.0591,-0.005,55.81407,37.500393,210.7,NaN,,13.031,,0 / 2,,4414,2021-05-02 18:59:01:043
-0.215485,-0.090982,9.751882,-0.001637,0.006985,9.806648,-0.007697,0.002748,0.912448,-18.3,45.72,-5.22,21.3695,-0.0474,0.006,55.81407,37.500393,210.7,NaN,,13.031,,0 / 2,,4424,2021-05-02 18:59:01:053
-0.069434,-0.007183,9.701602,-0.002273,0.006495,9.806647,-0.004643,0.001526,0.907561,-18.3,45.66,-5.28,21.3695,-0.0474,0.006,55.81407,37.500393,210.7,NaN,,13.031,,0 / 2,,4435,2021-05-02 18:59:01:064
-0.069434,-0.007183,9.701602,-0.002273,0.006495,9.806647,-0.004032,-9.18E-4,0.844031,-18.3,45.66,-5.28,21.3695,-0.0474,0.006,55.81407,37.500393,210.7,NaN,,13.031,,0 / 2,,4444,2021-05-02 18:59:01:073
0.217879,0.169994,9.732727,-0.002777,0.005597,9.806648,-0.00281,0.003969,0.778057,-17.64,45.36,-5.16,21.3695,-0.0474,0.006,55.81407,37.500393,210.7,NaN,,13.031,,0 / 2,,4454,2021-05-02 18:59:01:083
0.189148,0.205908,9.859624,-0.002777,0.005597,9.806648,0.00391,-9.18E-4,0.745071,-17.64,45.36,-5.16,21.3695,-0.0474,0.006,55.81407,37.500393,210.7,NaN,,13.031,,0 / 2,,4466,2021-05-02 18:59:01:095
-0.043097,-0.043097,9.735122,-0.00238,0.005411,9.806648,-0.00281,0.003359,0.727355,-16.74,45.72,-5.04,20.283,-0.0327,0.0162,55.81407,37.500393,210.7,NaN,,13.031,,0 / 2,,4474,2021-05-02 18:59:01:103
-0.043097,-0.043097,9.735122,-0.00238,0.005411,9.806648,-0.003421,0.005191,0.799438,-16.74,45.72,-5.04,20.283,-0.0327,0.0162,55.81407,37.500393,210.7,NaN,,13.031,,0 / 2,,4485,2021-05-02 18:59:01:114
-0.335198,-0.308861,9.725544,-0.00331,0.004974,9.806648,-0.003421,0.005191,0.799438,-16.2,46.38,-5.22,20.283,-0.0327,0.0162,55.81407,37.500393,210.7,NaN,,13.031,,0 / 2,,4494,2021-05-02 18:59:01:123
-0.181965,-0.34717,9.749487,-0.00331,0.004974,9.806648,-0.004032,0.0113,0.894733,-16.2,46.38,-5.22,20.283,-0.0327,0.0162,55.81407,37.500393,210.7,NaN,,13.031,,0 / 2,,4504,2021-05-02 18:59:01:133
-0.181965,-0.34717,9.749487,-0.00509,0.004727,9.806648,-0.003421,0.009467,1.008964,-15.9,45.9,-5.64,19.1813,-0.0276,0.0297,55.81407,37.500393,210.7,NaN,,13.031,,0 / 2,,4514,2021-05-02 18:59:01:143
0.028731,-0.237033,9.684841,-0.00509,0.004727,9.806648,-0.004032,0.007024,1.089599,-15.9,45.9,-5.64,19.1813,-0.0276,0.0297,55.81407,37.500393,210.7,NaN,,13.031,,0 / 2,,4524,2021-05-02 18:59:01:153
0.150839,-0.126897,9.644139,-0.007126,0.003703,9.806646,0.001466,-0.003361,1.147631,-15.42,45.66,-5.46,19.1813,-0.0276,0.0297,55.81407,37.500393,210.7,NaN,,13.031,,0 / 2,,4534,2021-05-02 18:59:01:163
0.107742,0.019154,9.751882,-0.007126,0.003703,9.806646,-3.67E-4,0.002748,1.193446,-15.42,45.66,-5.46,19.1813,-0.0276,0.0297,55.81407,37.500393,210.7,NaN,,13.031,,0 / 2,,4544,2021-05-02 18:59:01:173
0.002394,0.019154,9.727939,-0.00814,0.003103,9.806646,-0.00281,0.009467,1.197111,-14.34,46.26,-5.04,16.931,-0.0216,0.0416,55.81407,37.500393,210.7,NaN,,13.031,,0 / 2,,4554,2021-05-02 18:59:01:183
0.002394,0.019154,9.727939,-0.00814,0.003103,9.806646,-0.00281,0.012522,1.192224,-14.34,46.26,-5.04,16.931,-0.0216,0.0416,55.81407,37.500393,210.7,NaN,,13.031,,0 / 2,,4564,2021-05-02 18:59:01:193
-0.095771,-0.023943,9.718362,-0.009615,0.002769,9.806644,-0.002199,0.002137,1.192835,-14.1,46.8,-5.04,16.931,-0.0216,0.0416,55.81407,37.500393,210.7,NaN,,13.031,,0 / 2,,4574,2021-05-02 18:59:01:203
-0.284919,-0.086194,9.785401,-0.009615,0.002769,9.806644,-3.67E-4,0.001526,1.214215,-14.1,46.8,-5.04,16.931,-0.0216,0.0416,55.81407,37.500393,210.7,NaN,,13.031,,0 / 2,,4584,2021-05-02 18:59:01:213
-0.275342,-0.01676,9.811738,-0.010494,0.002369,9.806644,-3.67E-4,0.001526,1.214215,-13.62,46.98,-5.58,16.5934,-0.0162,0.0562,55.81407,37.500393,210.7,NaN,,13.031,,0 / 2,,4594,2021-05-02 18:59:01:223
-0.186753,0.035914,9.80695,-0.010494,0.002369,9.806644,-3.67E-4,0.008245,1.222156,-13.62,46.98,-5.58,16.5934,-0.0162,0.0562,55.81407,37.500393,210.7,NaN,,13.031,,0 / 2,,4604,2021-05-02 18:59:01:233
-0.186753,0.035914,9.80695,-0.01021,0.00151,9.806644,-9.77E-4,0.013132,1.226432,-12.3,47.22,-6.06,16.5934,-0.0162,0.0562,55.81407,37.500393,210.7,NaN,,13.031,,0 / 2,,4614,2021-05-02 18:59:01:243
-0.040703,0.079011,9.771035,-0.01021,0.00151,9.806644,-0.005253,0.021684,1.231319,-12.3,47.22,-6.06,16.5934,-0.0162,0.0562,55.81407,37.500393,210.7,NaN,,13.031,,0 / 2,,4624,2021-05-02 18:59:01:253
-0.062251,-0.014366,9.644139,-0.013787,0.001119,9.806641,-0.016249,0.021684,1.235595,-11.46,47.64,-5.34,12.9131,-0.0088,0.0597,55.81407,37.500393,210.7,NaN,,13.031,,0 / 2,,4634,2021-05-02 18:59:01:263
0.095771,0.06704,9.821315,-0.013787,0.001119,9.806641,-0.01014,0.019241,1.250867,-11.46,47.64,-5.34,12.9131,-0.0088,0.0597,55.81407,37.500393,210.7,NaN,,13.031,,0 / 2,,4644,2021-05-02 18:59:01:273
0.095771,0.06704,9.821315,-0.017568,7.07E-4,9.806634,-0.002199,0.015576,1.2527,-11.16,47.82,-4.56,12.9131,-0.0088,0.0597,55.81407,37.500393,210.7,NaN,,13.031,,0 / 2,,4654,2021-05-02 18:59:01:283
0.311256,0.205908,9.648928,-0.017568,7.07E-4,9.806634,-0.005864,0.008856,1.237428,-11.16,47.82,-4.56,12.9131,-0.0088,0.0597,55.81407,37.500393,210.7,NaN,,13.031,,0 / 2,,4664,2021-05-02 18:59:01:293
0.371113,0.225062,9.766247,-0.019937,5.91E-4,9.80663,-0.00281,9.15E-4,1.208717,-10.62,48.42,-5.1,12.9175,-0.0041,0.1026,55.81407,37.500393,210.7,NaN,,13.031,,0 / 2,,4674,2021-05-02 18:59:01:303
0.433364,0.222668,9.684841,-0.019807,5.21E-4,9.80663,0.006353,-0.0168,1.183061,-10.62,48.42,-5.1,12.9175,-0.0041,0.1026,55.81407,37.500393,210.7,NaN,,13.031,,0 / 2,,4684,2021-05-02 18:59:01:313
0.366324,0.134079,9.768641,-0.019807,5.21E-4,9.80663,0.006353,-0.0168,1.183061,-10.14,48.42,-5.64,12.9175,-0.0041,0.1026,55.81407,37.500393,210.7,NaN,,13.031,,0 / 2,,4694,2021-05-02 18:59:01:323
0.366324,0.134079,9.768641,-0.017816,0.001549,9.806634,8.55E-4,-3.07E-4,1.136635,-10.14,48.42,-5.64,12.9175,-0.0041,0.1026,55.81407,37.500393,210.7,NaN,,13.031,,0 / 2,,4704,2021-05-02 18:59:01:333
0.150839,0.004789,9.732727,-0.017816,0.001549,9.806634,-0.002199,-3.07E-4,1.099983,-9.24,48.06,-5.64,10.632,-0.009,0.1041,55.81407,37.500393,210.7,NaN,,13.031,,0 / 2,,4715,2021-05-02 18:59:01:344
-0.014366,-0.158022,9.73991,-0.017283,0.002003,9.806634,-0.004032,0.001526,1.07677,-9.24,48.06,-5.64,10.632,-0.009,0.1041,55.81407,37.500393,210.7,NaN,,13.031,,0 / 2,,4724,2021-05-02 18:59:01:353
-0.203513,-0.181965,9.754275,-0.017283,0.002003,9.806634,-0.002199,0.008856,1.072494,-7.5,48.48,-5.22,10.632,-0.009,0.1041,55.81407,37.500393,210.7,NaN,,13.031,,0 / 2,,4734,2021-05-02 18:59:01:363
-0.203513,-0.181965,9.754275,-0.017947,0.001835,9.806633,-0.00281,0.007024,1.090209,-7.5,48.48,-5.22,10.632,-0.009,0.1041,55.81407,37.500393,210.7,NaN,,13.031,,0 / 2,,4744,2021-05-02 18:59:01:373
-0.306467,-0.158022,9.744699,-0.018536,0.001751,9.806633,-0.003421,0.007635,1.148242,-6.42,48.84,-5.16,6.9915,-0.0107,0.1049,55.81407,37.500393,210.7,NaN,,13.031,,0 / 2,,4754,2021-05-02 18:59:01:383
-0.21309,-0.014366,9.737515,-0.018536,0.001751,9.806633,-0.003421,0.005802,1.21788,-6.42,48.84,-5.16,6.9915,-0.0107,0.1049,55.81407,37.500393,210.7,NaN,,13.031,,0 / 2,,4764,2021-05-02 18:59:01:393
0.0,0.095771,9.687236,-0.019728,0.00156,9.80663,-0.002199,0.005802,1.242926,-5.76,48.24,-5.16,6.9915,-0.0107,0.1049,55.81407,37.500393,210.7,NaN,,13.031,,0 / 2,,4774,2021-05-02 18:59:01:403
0.047885,0.090982,9.768641,-0.019728,0.00156,9.80663,0.003299,-0.004583,1.258197,-5.76,48.24,-5.16,6.9915,-0.0107,0.1049,55.81407,37.500393,210.7,NaN,,13.031,,0 / 2,,4785,2021-05-02 18:59:01:414
0.047885,0.090982,9.768641,-0.019888,0.002191,9.80663,-9.77E-4,-0.002139,1.275302,-4.92,47.7,-4.74,5.9586,-0.0091,0.1153,55.81407,37.500393,210.7,NaN,,13.031,,0 / 2,,4794,2021-05-02 18:59:01:423
-0.026337,0.090982,9.775824,-0.019888,0.002191,9.80663,-0.00281,0.00458,1.299125,-4.92,47.7,-4.74,5.9586,-0.0091,0.1153,55.81407,37.500393,210.7,NaN,,13.031,,0 / 2,,4804,2021-05-02 18:59:01:433
-0.028731,0.081405,9.828498,-0.019927,0.002253,9.80663,-0.004032,0.016187,1.31623,-4.02,48.18,-5.1,5.9586,-0.0091,0.1153,55.81407,37.500393,210.7,NaN,,13.031,,0 / 2,,4814,2021-05-02 18:59:01:443
-0.057463,0.011971,9.735122,-0.019927,0.002253,9.80663,-0.003421,-3.07E-4,1.329669,-4.02,48.18,-5.1,5.9586,-0.0091,0.1153,55.81407,37.500393,210.7,NaN,,13.031,,0 / 2,,4824,2021-05-02 18:59:01:453
-0.01676,0.052674,9.744699,-0.021277,0.002623,9.806626,-0.006475,0.010078,1.329669,-3.18,48.42,-5.34,3.5883,-0.0132,0.1164,55.81407,37.500393,210.7,NaN,,13.031,,0 / 2,,4834,2021-05-02 18:59:01:463
-0.01676,0.052674,9.744699,-0.021277,0.002623,9.806626,0.002077,0.005802,1.322949,-3.18,48.42,-5.34,3.5883,-0.0132,0.1164,55.81407,37.500393,210.7,NaN,,13.031,,0 / 2,,4845,2021-05-02 18:59:01:474
0.028731,0.057463,9.708784,-0.021939,0.002956,9.806625,0.002077,0.005802,1.322949,-2.52,47.88,-5.58,3.5883,-0.0132,0.1164,55.81407,37.500393,210.7,NaN,,13.031,,0 / 2,,4854,2021-05-02 18:59:01:483
0.114925,0.059857,9.708784,-0.021939,0.002956,9.806625,2.44E-4,0.003969,1.296682,-2.52,47.88,-5.58,3.5883,-0.0132,0.1164,55.81407,37.500393,210.7,NaN,,13.031,,0 / 2,,4864,2021-05-02 18:59:01:493
0.189148,0.062251,9.711179,-0.022827,0.003619,9.806623,-9.77E-4,0.003969,1.237428,-1.08,47.22,-6.42,1.2352,-0.0173,0.1282,55.81407,37.500393,210.7,NaN,,13.031,,0 / 2,,4874,2021-05-02 18:59:01:503
0.241822,0.038308,9.73991,-0.022827,0.003619,9.806623,-0.003421,0.003359,1.178174,-1.08,47.22,-6.42,1.2352,-0.0173,0.1282,55.81407,37.500393,210.7,NaN,,13.031,,0 / 2,,4884,2021-05-02 18:59:01:513
0.241822,0.038308,9.73991,-0.023014,0.004133,9.806623,8.55E-4,-3.07E-4,1.099983,-0.06,47.46,-6.84,1.2352,-0.0173,0.1282,55.81407,37.500393,210.7,NaN,,13.031,,0 / 2,,4895,2021-05-02 18:59:01:524
0.292102,-0.023943,9.802161,-0.023014,0.004133,9.806623,-3.67E-4,0.005191,1.063331,-0.06,47.46,-6.84,1.2352,-0.0173,0.1282,55.81407,37.500393,210.7,NaN,,13.031,,0 / 2,,4904,2021-05-02 18:59:01:533
0.260976,-0.045491,9.708784,-0.021285,0.004859,9.806625,-3.67E-4,0.005191,1.063331,0.9,48.12,-6.48,358.8234,-0.0241,0.1345,55.81407,37.500393,210.7,NaN,,13.031,,0 / 2,,4914,2021-05-02 18:59:01:543
0.193936,-0.057463,9.725544,-0.021285,0.004859,9.806625,-0.004643,3.04E-4,1.025458,0.9,48.12,-6.48,358.8234,-0.0241,0.1345,55.81407,37.500393,210.7,NaN,,13.031,,0 / 2,,4924,2021-05-02 18:59:01:553
0.059857,-0.088588,9.703996,-0.021476,0.005182,9.806625,-9.77E-4,-0.002139,0.99186,2.1,48.6,-5.94,358.8234,-0.0241,0.1345,55.81407,37.500393,210.7,NaN,,13.031,,0 / 2,,4934,2021-05-02 18:59:01:563
0.059857,-0.088588,9.703996,-0.021476,0.005182,9.806625,8.55E-4,-3.07E-4,0.966204,2.1,48.6,-5.94,358.8234,-0.0241,0.1345,55.81407,37.500393,210.7,NaN,,13.031,,0 / 2,,4944,2021-05-02 18:59:01:573
0.117319,-0.047885,9.749487,-0.021159,0.005256,9.806625,-0.002199,0.001526,0.931995,3.84,48.9,-5.64,355.3487,-0.0303,0.1255,55.81407,37.500393,210.7,NaN,,13.031,,0 / 2,,4955,2021-05-02 18:59:01:584
0.553077,0.184359,9.749487,-0.021159,0.005256,9.806625,-0.00281,0.003359,0.858081,3.84,48.9,-5.64,355.3487,-0.0303,0.1255,55.81407,37.500393,210.7,NaN,,13.031,,0 / 2,,4964,2021-05-02 18:59:01:593
0.469278,0.10056,9.727939,-0.021053,0.005207,9.806626,-3.67E-4,0.003969,0.809822,4.8,47.64,-5.76,355.3487,-0.0303,0.1255,55.81407,37.500393,210.7,NaN,,13.031,,0 / 2,,4974,2021-05-02 18:59:01:603
-0.03352,0.007183,9.680053,-0.021053,0.005207,9.806626,-0.007086,0.005191,0.787831,4.8,47.64,-5.76,355.3487,-0.0303,0.1255,55.81407,37.500393,210.7,NaN,,13.031,,0 / 2,,4984,2021-05-02 18:59:01:613
-0.03352,0.007183,9.680053,-0.020829,0.005528,9.806626,-0.007086,0.005191,0.787831,5.22,46.56,-5.94,353.9435,-0.0304,0.123,55.81407,37.500393,210.7,NaN,,13.031,,0 / 2,,4994,2021-05-02 18:59:01:623
-0.615329,-0.126897,9.718362,-0.020829,0.005528,9.806626,-0.004643,0.009467,0.867244,5.22,46.56,-5.94,353.9435,-0.0304,0.123,55.81407,37.500393,210.7,NaN,,13.031,,0 / 2,,5004,2021-05-02 18:59:01:633
-0.72786,-0.112531,9.735122,-0.021965,0.005199,9.806623,-0.004032,0.010689,0.99186,5.34,46.8,-5.64,353.9435,-0.0304,0.123,55.81407,37.500393,210.7,NaN,,13.031,,0 / 2,,5014,2021-05-02 18:59:01:643
-0.464489,-0.009577,9.727939,-0.021965,0.005199,9.806623,-0.005864,0.007635,1.059666,5.34,46.8,-5.64,353.9435,-0.0304,0.123,55.81407,37.500393,210.7,NaN,,13.031,,0 / 2,,5024,2021-05-02 18:59:01:653
-0.464489,-0.009577,9.727939,-0.023851,0.004814,9.806621,-0.002199,0.00458,1.12564,6.18,46.38,-6.0,352.5856,-0.0304,0.1283,55.81407,37.500393,210.7,NaN,,13.031,,0 / 2,,5034,2021-05-02 18:59:01:663
0.009577,0.143657,9.737515,-0.023851,0.004814,9.806621,-3.67E-4,0.009467,1.115255,6.18,46.38,-6.0,352.5856,-0.0304,0.1283,55.81407,37.500393,210.7,NaN,,13.031,,0 / 2,,5044,2021-05-02 18:59:01:673
0.258582,0.217879,9.730332,-0.02491,0.005024,9.806617,-0.003421,0.00458,1.071884,7.92,46.26,-6.66,352.5856,-0.0304,0.1283,55.81407,37.500393,210.7,NaN,,13.031,,0 / 2,,5054,2021-05-02 18:59:01:683
0.411815,0.165205,9.725544,-0.02491,0.005024,9.806617,2.44E-4,-3.07E-4,0.980865,7.92,46.26,-6.66,352.5856,-0.0304,0.1283,55.81407,37.500393,210.7,NaN,,13.031,,0 / 2,,5064,2021-05-02 18:59:01:693
0.411815,0.165205,9.725544,-0.025307,0.005117,9.806616,-0.002199,9.15E-4,0.915502,8.64,46.2,-6.78,348.952,-0.0294,0.1455,55.81407,37.500393,210.7,NaN,,13.031,,0 / 2,,5074,2021-05-02 18:59:01:703
0.181965,0.088588,9.783007,-0.025307,0.005117,9.806616,-0.00281,0.002137,0.881294,8.64,46.2,-6.78,348.952,-0.0294,0.1455,55.81407,37.500393,210.7,NaN,,13.031,,0 / 2,,5084,2021-05-02 18:59:01:713
-0.131685,-0.01676,9.737515,-0.025312,0.005308,9.806616,8.55E-4,0.00458,0.878239,9.84,46.2,-6.54,348.952,-0.0294,0.1455,55.81407,37.500393,210.7,NaN,,13.031,,0 / 2,,5094,2021-05-02 18:59:01:723
-0.33041,-0.05028,9.725544,-0.025312,0.005308,9.806616,2.44E-4,-0.003361,0.896565,9.84,46.2,-6.54,348.952,-0.0294,0.1455,55.81407,37.500393,210.7,NaN,,13.031,,0 / 2,,5104,2021-05-02 18:59:01:733
-0.478855,-0.071828,9.696813,-0.025939,0.005806,9.806614,-0.003421,0.00458,0.921,10.74,45.66,-6.18,346.5706,-0.031,0.1479,55.81407,37.500393,210.7,NaN,,13.031,,0 / 5,,5114,2021-05-02 18:59:01:743
-0.478855,-0.071828,9.696813,-0.025939,0.005806,9.806614,2.44E-4,0.007635,0.997358,10.74,45.66,-6.18,346.5706,-0.031,0.1479,55.81407,37.500393,210.7,NaN,,13.031,,0 / 5,,5124,2021-05-02 18:59:01:753
-0.481249,-0.105348,9.79019,-0.026409,0.006091,9.806613,-0.005253,0.012522,1.042562,11.88,45.12,-5.52,346.5706,-0.031,0.1479,55.81407,37.500393,210.7,NaN,,13.031,,0 / 5,,5134,2021-05-02 18:59:01:763
-0.162811,0.0,9.699207,-0.026409,0.006091,9.806613,-0.00281,0.014354,1.071273,11.88,45.12,-5.52,346.5706,-0.031,0.1479,55.81407,37.500393,210.7,NaN,,13.031,,0 / 5,,5144,2021-05-02 18:59:01:773
-0.117319,-0.004789,9.727939,-0.028682,0.006344,9.806606,-0.005864,0.013743,1.125029,13.5,45.0,-5.94,342.7387,-0.0356,0.1543,55.81407,37.500393,210.7,NaN,,13.031,,0 / 5,,5154,2021-05-02 18:59:01:783
-0.117319,-0.004789,9.727939,-0.028682,0.006344,9.806606,-0.004643,0.015576,1.192224,13.5,45.0,-5.94,342.7387,-0.0356,0.1543,55.81407,37.500393,210.7,NaN,,13.031,,0 / 5,,5164,2021-05-02 18:59:01:793
-0.239427,-0.026337,9.761458,-0.031808,0.006079,9.806597,-0.004032,0.001526,1.327836,14.4,44.46,-6.78,342.7387,-0.0356,0.1543,55.81407,37.500393,210.7,NaN,,13.031,,0 / 5,,5174,2021-05-02 18:59:01:803
-0.131685,0.007183,9.845258,-0.031808,0.006079,9.806597,-0.003421,0.018019,1.40114,14.4,44.46,-6.78,342.7387,-0.0356,0.1543,55.81407,37.500393,210.7,NaN,,13.031,,0 / 5,,5184,2021-05-02 18:59:01:813
0.141262,0.076617,9.60583,-0.033927,0.00582,9.80659,-0.005864,9.15E-4,1.442068,15.48,43.8,-6.66,341.2036,-0.0355,0.1858,55.81407,37.500393,210.7,NaN,,13.031,,0 / 5,,5194,2021-05-02 18:59:01:823
0.409421,0.081405,9.804555,-0.034461,0.005246,9.806588,2.44E-4,0.013132,1.432294,15.9,43.56,-6.42,341.2036,-0.0355,0.1858,55.81407,37.500393,210.7,NaN,,13.031,,0 / 5,,5204,2021-05-02 18:59:01:833
0.409421,0.081405,9.804555,-0.034461,0.005246,9.806588,2.44E-4,0.013132,1.432294,15.9,43.56,-6.42,341.2036,-0.0355,0.1858,55.81407,37.500393,210.7,NaN,,13.031,,0 / 5,,5214,2021-05-02 18:59:01:843
0.521952,0.093377,9.668081,-0.036088,0.005812,9.806582,-0.008919,0.002748,1.390755,17.34,41.88,-6.66,341.2036,-0.0355,0.1858,55.81407,37.500393,210.7,NaN,,13.031,,0 / 5,,5224,2021-05-02 18:59:01:853
0.36393,-0.009577,9.735122,-0.035681,0.006044,9.806583,0.001466,0.001526,1.299736,17.34,41.88,-6.66,341.2036,-0.0355,0.1858,55.81407,37.500393,210.7,NaN,,13.031,,0 / 5,,5234,2021-05-02 18:59:01:863
-0.124502,-0.153234,9.75667,-0.035681,0.006044,9.806583,-0.005253,0.005191,1.253311,18.36,41.46,-7.62,336.3342,-0.0353,0.2085,55.81407,37.500393,210.7,NaN,,13.031,,0 / 5,,5244,2021-05-02 18:59:01:873
-0.124502,-0.153234,9.75667,-0.031234,0.007551,9.806598,-9.77E-4,0.013132,1.266139,18.36,41.46,-7.62,336.3342,-0.0353,0.2085,55.81407,37.500393,210.7,NaN,,13.031,,0 / 5,,5254,2021-05-02 18:59:01:883
-0.871516,-0.268159,9.727939,-0.031234,0.007551,9.806598,-0.009529,0.018019,1.352881,19.86,40.62,-8.04,336.3342,-0.0353,0.2085,55.81407,37.500393,210.7,NaN,,13.031,,0 / 5,,5265,2021-05-02 18:59:01:894
-1.096578,-0.299284,9.725544,-0.03308,0.007695,9.806591,-0.007086,0.010689,1.475665,19.86,40.62,-8.04,336.3342,-0.0353,0.2085,55.81407,37.500393,210.7,NaN,,13.031,,0 / 5,,5275,2021-05-02 18:59:01:904
-0.792505,-0.193936,9.735122,-0.03308,0.007695,9.806591,2.44E-4,0.038178,1.550191,21.66,39.78,-7.5,331.2187,-0.045,0.1933,55.81407,37.500393,210.7,NaN,,13.031,,0 / 5,,5284,2021-05-02 18:59:01:913
-0.328016,-0.105348,9.653716,-0.03959,0.00796,9.806566,2.44E-4,0.038178,1.550191,21.66,39.78,-7.5,331.2187,-0.045,0.1933,55.81407,37.500393,210.7,NaN,,13.031,,0 / 5,,5294,2021-05-02 18:59:01:923
-0.328016,-0.105348,9.653716,-0.03959,0.00796,9.806566,-9.77E-4,0.001526,1.589286,22.86,38.88,-7.5,331.2187,-0.045,0.1933,55.81407,37.500393,210.7,NaN,,13.031,,0 / 5,,5304,2021-05-02 18:59:01:933
0.234639,-0.002394,9.720756,-0.041948,0.008933,9.806557,-9.77E-4,-0.00947,1.574015,22.86,38.88,-7.5,331.2187,-0.045,0.1933,55.81407,37.500393,210.7,NaN,,13.031,,0 / 5,,5314,2021-05-02 18:59:01:943
0.876305,0.215485,9.73991,-0.041948,0.008933,9.806557,-0.001588,-9.18E-4,1.519648,24.54,37.08,-7.8,325.996,-0.0522,0.2451,55.81407,37.500393,210.7,NaN,,13.031,,0 / 5,,5324,2021-05-02 18:59:01:953
0.905036,0.22985,9.768641,-0.039997,0.010373,9.806563,2.44E-4,-9.18E-4,1.361434,24.54,37.08,-7.8,325.996,-0.0522,0.2451,55.81407,37.500393,210.7,NaN,,13.031,,0 / 5,,5334,2021-05-02 18:59:01:963
0.905036,0.22985,9.768641,-0.039997,0.010373,9.806563,0.001466,0.002748,1.233763,26.76,35.7,-8.22,325.996,-0.0522,0.2451,55.81407,37.500393,210.7,NaN,,13.031,,0 / 5,,5344,2021-05-02 18:59:01:973
0.792505,0.237033,9.641745,-0.039291,0.010395,9.806566,-0.005253,-0.003972,1.121364,27.9,35.22,-8.1,325.996,-0.0522,0.2451,55.81407,37.500393,210.7,NaN,,13.031,,0 / 5,,5354,2021-05-02 18:59:01:983
0.821236,0.270553,9.785401,-0.039291,0.010395,9.806566,-9.77E-4,-0.006415,0.978421,27.9,35.22,-8.1,325.996,-0.0522,0.2451,55.81407,37.500393,210.7,NaN,,13.031,,0 / 5,,5364,2021-05-02 18:59:01:993
0.818842,0.308861,9.871595,-0.038936,0.0116,9.806566,-0.005253,-0.021076,0.863578,29.34,33.78,-8.64,319.5812,-0.0607,0.2296,55.81407,37.500393,210.7,NaN,,13.031,,0 / 5,,5374,2021-05-02 18:59:02:003
0.818842,0.308861,9.871595,-0.038936,0.0116,9.806566,-0.003421,0.014354,0.760342,29.34,33.78,-8.64,319.5812,-0.0607,0.2296,55.81407,37.500393,210.7,NaN,,13.031,,0 / 5,,5384,2021-05-02 18:59:02:013
0.770957,0.265765,9.715967,-0.038914,0.012131,9.806565,-0.001588,0.007024,0.625952,30.36,31.8,-9.0,319.5812,-0.0607,0.2296,55.81407,37.500393,210.7,NaN,,13.031,,0 / 5,,5394,2021-05-02 18:59:02:023
-0.490826,-0.040703,9.787795,-0.038914,0.012131,9.806565,-0.01014,0.052839,0.665047,30.36,31.8,-9.0,319.5812,-0.0607,0.2296,55.81407,37.500393,210.7,NaN,,13.031,,0 / 5,,5404,2021-05-02 18:59:02:033
-1.376708,-0.253793,9.684841,-0.038626,0.012864,9.806565,-0.01014,0.052839,0.665047,31.8,30.12,-9.0,313.1957,-0.0752,0.2257,55.81407,37.500393,210.7,NaN,,13.031,,0 / 5,,5414,2021-05-02 18:59:02:043
-0.778139,-0.177176,9.775824,-0.038626,0.012864,9.806565,-0.001588,-0.004583,0.856248,31.8,30.12,-9.0,313.1957,-0.0752,0.2257,55.81407,37.500393,210.7,NaN,,13.031,,0 / 5,,5424,2021-05-02 18:59:02:053
-0.778139,-0.177176,9.775824,-0.041423,0.011942,9.806556,-0.001588,0.002137,1.04806,32.7,29.7,-8.82,313.1957,-0.0752,0.2257,55.81407,37.500393,210.7,NaN,,13.031,,0 / 5,,5434,2021-05-02 18:59:02:063
-0.162811,-0.031126,9.73991,-0.041423,0.011942,9.806556,2.44E-4,-0.002139,1.123196,32.7,29.7,-8.82,313.1957,-0.0752,0.2257,55.81407,37.500393,210.7,NaN,,13.031,,0 / 5,,5444,2021-05-02 18:59:02:073
0.181965,0.038308,9.672871,-0.040936,0.012579,9.806557,-0.002199,-0.008248,1.135413,33.6,29.1,-9.42,310.505,-0.0698,0.242,55.81407,37.500393,210.7,NaN,,13.031,,0 / 5,,5454,2021-05-02 18:59:02:083
0.110137,0.043097,9.644139,-0.040936,0.012579,9.806557,-0.005253,0.008856,1.136635,33.6,29.1,-9.42,310.505,-0.0698,0.242,55.81407,37.500393,210.7,NaN,,13.031,,0 / 5,,5464,2021-05-02 18:59:02:093
0.05028,0.014366,9.79019,-0.040615,0.013305,9.806558,2.44E-4,0.012522,1.144576,34.68,26.88,-9.06,310.505,-0.0698,0.242,55.81407,37.500393,210.7,NaN,,13.031,,0 / 5,,5474,2021-05-02 18:59:02:103
0.05028,0.014366,9.79019,-0.040615,0.013305,9.806558,-0.004032,0.003969,1.172065,34.68,26.88,-9.06,310.505,-0.0698,0.242,55.81407,37.500393,210.7,NaN,,13.031,,0 / 5,,5484,2021-05-02 18:59:02:113
0.196331,0.023943,9.720756,-0.042148,0.013658,9.80655,-9.77E-4,0.003969,1.176952,35.04,25.26,-8.64,305.5802,-0.0777,0.2373,55.81407,37.500393,210.7,NaN,,13.031,,0 / 5,,5494,2021-05-02 18:59:02:123
0.469278,0.071828,9.646533,-0.043273,0.013887,9.806545,-0.006475,-0.005194,1.150685,35.58,23.76,-9.06,305.5802,-0.0777,0.2373,55.81407,37.500393,210.7,NaN,,13.031,,0 / 5,,5505,2021-05-02 18:59:02:134
0.632089,0.162811,9.713573,-0.043273,0.013887,9.806545,2.44E-4,0.014965,1.087766,35.58,23.76,-9.06,305.5802,-0.0777,0.2373,55.81407,37.500393,210.7,NaN,,13.031,,0 / 5,,5514,2021-05-02 18:59:02:143
0.498009,0.134079,9.737515,-0.042651,0.014741,9.806546,2.44E-4,0.014965,1.087766,37.08,22.44,-9.36,305.5802,-0.0777,0.2373,55.81407,37.500393,210.7,NaN,,13.031,,0 / 5,,5524,2021-05-02 18:59:02:153
0.498009,0.134079,9.737515,-0.043378,0.014976,9.806542,-0.005864,0.017408,1.033399,38.04,21.18,-9.6,298.9721,-0.0861,0.2492,55.81407,37.500393,210.7,NaN,,13.031,,0 / 5,,5534,2021-05-02 18:59:02:163
0.169994,0.009577,9.75667,-0.043378,0.014976,9.806542,-0.003421,0.010689,1.028512,38.04,21.18,-9.6,298.9721,-0.0861,0.2492,55.81407,37.500393,210.7,NaN,,13.031,,0 / 5,,5544,2021-05-02 18:59:02:173
-0.146051,-0.095771,9.749487,-0.045217,0.015086,9.806535,-0.004643,0.013743,1.056001,39.06,19.56,-9.78,298.9721,-0.0861,0.2492,55.81407,37.500393,210.7,NaN,,13.031,,0 / 5,,5554,2021-05-02 18:59:02:183
-0.234639,-0.071828,9.70639,-0.045217,0.015086,9.806535,-0.001588,0.008245,1.145798,39.06,19.56,-9.78,298.9721,-0.0861,0.2492,55.81407,37.500393,210.7,NaN,,13.031,,0 / 5,,5564,2021-05-02 18:59:02:193
-0.098165,0.004789,9.744699,-0.047107,0.015443,9.806524,-0.006475,0.005191,1.187948,39.42,17.34,-10.44,293.5967,-0.0881,0.2642,55.81407,37.500393,210.7,NaN,,13.031,,0 / 5,,5574,2021-05-02 18:59:02:203
-0.098165,0.004789,9.744699,-0.047107,0.015443,9.806524,-0.004643,-0.002139,1.205052,39.42,17.34,-10.44,293.5967,-0.0881,0.2642,55.81407,37.500393,210.7,NaN,,13.031,,0 / 5,,5584,2021-05-02 18:59:02:213
0.074223,0.074223,9.754275,-0.048186,0.016021,9.806519,-0.005864,0.001526,1.20322,38.94,15.96,-10.92,293.5967,-0.0881,0.2642,55.81407,37.500393,210.7,NaN,,13.031,,0 / 5,,5594,2021-05-02 18:59:02:223
0.208302,0.074223,9.689631,-0.048186,0.016021,9.806519,-0.004032,9.15E-4,1.181839,38.94,15.96,-10.92,293.5967,-0.0881,0.2642,55.81407,37.500393,210.7,NaN,,13.031,,0 / 5,,5604,2021-05-02 18:59:02:233
0.28013,0.098165,9.751882,-0.047986,0.016563,9.80652,-0.001588,0.008245,1.149463,39.54,14.34,-10.2,289.3335,-0.0936,0.2815,55.81407,37.500393,210.7,NaN,,13.031,,0 / 5,,5614,2021-05-02 18:59:02:243
0.28013,0.098165,9.751882,-0.047986,0.016563,9.80652,-0.001588,0.009467,1.118309,39.54,14.34,-10.2,289.3335,-0.0936,0.2815,55.81407,37.500393,210.7,NaN,,13.031,,0 / 5,,5625,2021-05-02 18:59:02:254
0.122108,0.045491,9.792584,-0.048627,0.017553,9.806514,-0.001588,0.009467,1.117698,41.04,11.82,-10.2,289.3335,-0.0936,0.2815,55.81407,37.500393,210.7,NaN,,13.031,,0 / 5,,5634,2021-05-02 18:59:02:263
-0.136474,0.002394,9.708784,-0.048627,0.017553,9.806514,-0.004032,0.014965,1.159848,41.04,11.82,-10.2,289.3335,-0.0936,0.2815,55.81407,37.500393,210.7,NaN,,13.031,,0 / 5,,5644,2021-05-02 18:59:02:273
-0.179571,-0.0838,9.759064,-0.049392,0.01826,9.806509,-0.00281,0.008245,1.211772,41.7,10.32,-11.46,283.4354,-0.1026,0.2841,55.81407,37.500393,210.7,NaN,,13.031,,0 / 5,,5654,2021-05-02 18:59:02:283
-0.179571,-0.0838,9.759064,-0.049392,0.01826,9.806509,-0.00281,0.008245,1.211772,41.7,10.32,-11.46,283.4354,-0.1026,0.2841,55.81407,37.500393,210.7,NaN,,13.031,,0 / 5,,5664,2021-05-02 18:59:02:293
-0.289707,-0.062251,9.792584,-0.050756,0.018689,9.806501,-0.007086,0.028404,1.283854,41.4,8.22,-11.82,283.4354,-0.1026,0.2841,55.81407,37.500393,210.7,NaN,,13.031,,0 / 5,,5674,2021-05-02 18:59:02:303
-0.38069,-0.131685,9.799767,-0.050756,0.018689,9.806501,-0.002199,0.008245,1.402361,41.4,8.22,-11.82,283.4354,-0.1026,0.2841,55.81407,37.500393,210.7,NaN,,13.031,,0 / 5,,5685,2021-05-02 18:59:02:314
-0.428575,-0.158022,9.759064,-0.0529,0.019809,9.806487,-0.004643,0.010078,1.493991,40.92,5.46,-11.94,276.9956,-0.1092,0.2965,55.81407,37.500393,210.7,NaN,,13.031,,0 / 5,,5694,2021-05-02 18:59:02:323
-0.122108,-0.069434,9.737515,-0.0529,0.019809,9.806487,-0.002199,-0.005194,1.589897,40.92,5.46,-11.94,276.9956,-0.1092,0.2965,55.81407,37.500393,210.7,NaN,,13.031,,0 / 5,,5705,2021-05-02 18:59:02:334
0.169994,0.064645,9.613013,-0.052991,0.020649,9.806485,-0.005864,0.00458,1.639377,40.98,3.0,-11.4,276.9956,-0.1092,0.2965,55.81407,37.500393,210.7,NaN,,13.031,,0 / 5,,5715,2021-05-02 18:59:02:344
0.169994,0.064645,9.613013,-0.052991,0.020649,9.806485,-0.002199,-3.07E-4,1.631436,40.98,3.0,-11.4,276.9956,-0.1092,0.2965,55.81407,37.500393,210.7,NaN,,13.031,,0 / 5,,5724,2021-05-02 18:59:02:353
0.359141,0.090982,9.826104,-0.052226,0.021778,9.806487,-9.77E-4,0.00458,1.592951,41.16,-0.06,-11.22,270.0331,-0.1206,0.3096,55.81407,37.500393,210.7,NaN,,13.031,,0 / 5,,5734,2021-05-02 18:59:02:363
0.502798,0.165205,9.787795,-0.052226,0.021778,9.806487,-0.001588,0.013132,1.518426,41.16,-0.06,-11.22,270.0331,-0.1206,0.3096,55.81407,37.500393,210.7,NaN,,13.031,,0 / 5,,5744,2021-05-02 18:59:02:373
0.457306,0.174782,9.799767,-0.051778,0.022594,9.806488,-0.00281,0.027182,1.469557,41.46,-3.06,-12.54,270.0331,-0.1206,0.3096,55.81407,37.500393,210.7,NaN,,13.031,,0 / 5,,5754,2021-05-02 18:59:02:383
0.457306,0.174782,9.799767,-0.051778,0.022594,9.806488,-0.00281,0.016187,1.403583,41.46,-3.06,-12.54,270.0331,-0.1206,0.3096,55.81407,37.500393,210.7,NaN,,13.031,,0 / 5,,5764,2021-05-02 18:59:02:393
0.203513,0.098165,9.794978,-0.05405,0.023877,9.806473,0.001466,0.009467,1.377927,40.98,-5.1,-13.32,263.0794,-0.1395,0.3158,55.81407,37.500393,210.7,NaN,,13.031,,0 / 5,,5774,2021-05-02 18:59:02:403
0.428575,0.181965,9.797373,-0.05405,0.023877,9.806473,-9.77E-4,0.008856,1.327225,40.98,-5.1,-13.32,263.0794,-0.1395,0.3158,55.81407,37.500393,210.7,NaN,,13.031,,0 / 5,,5784,2021-05-02 18:59:02:413
0.665608,0.193936,9.787795,-0.055167,0.024768,9.806463,-3.67E-4,0.011911,1.272858,39.78,-7.68,-13.92,263.0794,-0.1395,0.3158,55.81407,37.500393,210.7,NaN,,13.031,,0 / 5,,5794,2021-05-02 18:59:02:423
0.299284,0.074223,9.847652,-0.055167,0.024768,9.806463,8.55E-4,0.005802,1.247202,39.78,-7.68,-13.92,263.0794,-0.1395,0.3158,55.81407,37.500393,210.7,NaN,,13.031,,0 / 5,,5804,2021-05-02 18:59:02:433
0.299284,0.074223,9.847652,-0.055422,0.025847,9.806459,8.55E-4,0.005802,1.247202,38.88,-10.08,-13.62,255.6402,-0.1447,0.3223,55.81407,37.500393,210.7,NaN,,13.031,,0 / 5,,5815,2021-05-02 18:59:02:444
-0.026337,0.052674,9.742304,-0.055422,0.025847,9.806459,-0.007086,0.006413,1.26003,38.88,-10.08,-13.62,255.6402,-0.1447,0.3223,55.81407,37.500393,210.7,NaN,,13.031,,0 / 5,,5824,2021-05-02 18:59:02:453
-0.234639,-0.002394,9.72315,-0.055981,0.02732,9.806452,-0.005253,0.003359,1.33089,37.86,-12.6,-13.44,255.6402,-0.1447,0.3223,55.81407,37.500393,210.7,NaN,,13.031,,0 / 5,,5834,2021-05-02 18:59:02:463
-0.057463,-0.014366,9.75667,-0.055981,0.02732,9.806452,-9.77E-4,0.014965,1.38709,37.86,-12.6,-13.44,255.6402,-0.1447,0.3223,55.81407,37.500393,210.7,NaN,,13.031,,0 / 5,,5844,2021-05-02 18:59:02:473
-0.047885,0.035914,9.737515,-0.056331,0.028377,9.806447,-0.004032,0.0113,1.412746,37.38,-14.88,-13.62,247.9414,-0.1596,0.3271,55.81407,37.500393,210.7,NaN,,13.031,,0 / 5,,5854,2021-05-02 18:59:02:483
-0.047885,0.035914,9.737515,-0.056331,0.028377,9.806447,-0.001588,9.15E-4,1.411525,37.38,-14.88,-13.62,247.9414,-0.1596,0.3271,55.81407,37.500393,210.7,NaN,,13.031,,0 / 5,,5864,2021-05-02 18:59:02:493
0.03352,0.074223,9.744699,-0.05722,0.029019,9.80644,-0.001588,0.005191,1.398086,36.18,-16.56,-13.68,247.9414,-0.1596,0.3271,55.81407,37.500393,210.7,NaN,,13.031,,0 / 5,,5874,2021-05-02 18:59:02:503
0.337593,0.198725,9.751882,-0.05722,0.029019,9.80644,-0.002199,0.008245,1.269193,36.18,-16.56,-13.68,247.9414,-0.1596,0.3271,55.81407,37.500393,210.7,NaN,,13.031,,0 / 5,,5885,2021-05-02 18:59:02:514
0.337593,0.198725,9.751882,-0.057084,0.02998,9.806438,-0.003421,0.001526,1.150685,34.14,-19.08,-13.86,240.7975,-0.1695,0.3343,55.81407,37.500393,210.7,NaN,,13.031,,0 / 5,,5894,2021-05-02 18:59:02:523
0.41421,0.26337,9.742304,-0.057084,0.02998,9.806438,-3.67E-4,0.00458,1.035232,34.14,-19.08,-13.86,240.7975,-0.1695,0.3343,55.81407,37.500393,210.7,NaN,,13.031,,0 / 5,,5904,2021-05-02 18:59:02:533
0.509981,0.301679,9.763853,-0.05629,0.030791,9.80644,-0.001588,0.002137,0.914891,32.7,-21.78,-14.1,240.7975,-0.1695,0.3343,55.81407,37.500393,210.7,NaN,,13.031,,0 / 5,,5914,2021-05-02 18:59:02:543
0.287313,0.28013,9.759064,-0.05629,0.030791,9.80644,-0.001588,0.005191,0.831203,32.7,-21.78,-14.1,240.7975,-0.1695,0.3343,55.81407,37.500393,210.7,NaN,,13.031,,0 / 5,,5924,2021-05-02 18:59:02:553
0.287313,0.28013,9.759064,-0.05586,0.031773,9.806439,-0.001588,0.005191,0.831203,31.74,-23.16,-13.8,234.2774,-0.1799,0.3289,55.81407,37.500393,210.7,NaN,,13.031,,0 / 5,,5934,2021-05-02 18:59:02:563
0.447729,-0.407027,9.783007,-0.05586,0.031773,9.806439,-0.008919,0.019241,0.770727,31.74,-23.16,-13.8,234.2774,-0.1799,0.3289,55.81407,37.500393,210.7,NaN,,13.031,,0 / 5,,5944,2021-05-02 18:59:02:573
0.158022,-0.428575,9.730332,-0.056416,0.032088,9.806436,-0.003421,-3.07E-4,0.70903,30.9,-24.06,-13.5,234.2774,-0.1799,0.3289,55.81407,37.500393,210.7,NaN,,13.031,,0 / 5,,5954,2021-05-02 18:59:02:583
-0.191542,-0.514769,9.962578,-0.056416,0.032088,9.806436,0.003299,0.008856,0.789053,30.9,-24.06,-13.5,234.2774,-0.1799,0.3289,55.81407,37.500393,210.7,NaN,,13.031,,0 / 5,,5965,2021-05-02 18:59:02:594
-0.191542,-0.514769,9.962578,-0.055868,0.032556,9.806437,0.003299,0.008856,0.789053,29.82,-25.98,-14.4,229.0597,-0.1875,0.3296,55.81407,37.500393,210.7,NaN,,13.031,,0 / 5,,5975,2021-05-02 18:59:02:604
-0.237033,-0.598569,9.57231,-0.055868,0.032556,9.806437,-0.00281,0.001526,0.891678,29.82,-25.98,-14.4,229.0597,-0.1875,0.3296,55.81407,37.500393,210.7,NaN,,13.031,,0 / 5,,5984,2021-05-02 18:59:02:613
-0.378295,-0.533923,9.885961,-0.057376,0.031956,9.806431,2.44E-4,-0.008248,0.997969,28.5,-27.42,-14.1,229.0597,-0.1875,0.3296,55.81407,37.500393,210.7,NaN,,13.031,,0 / 5,,5994,2021-05-02 18:59:02:623
-0.430969,-0.371113,9.517242,-0.057376,0.031956,9.806431,-0.004032,0.010078,1.110368,28.5,-27.42,-14.1,229.0597,-0.1875,0.3296,55.81407,37.500393,210.7,NaN,,13.031,,0 / 5,,6004,2021-05-02 18:59:02:633
0.268159,0.36393,9.548368,-0.056773,0.032145,9.806434,-0.007697,0.003359,1.223378,27.06,-28.02,-14.16,223.9183,-0.1867,0.3352,55.81407,37.500393,210.7,NaN,,13.031,,0 / 5,,6014,2021-05-02 18:59:02:643
0.768562,0.720677,9.593859,-0.056773,0.032145,9.806434,0.002688,-3.07E-4,1.24598,27.06,-28.02,-14.16,223.9183,-0.1867,0.3352,55.81407,37.500393,210.7,NaN,,13.031,,0 / 5,,6024,2021-05-02 18:59:02:653
0.768562,0.720677,9.593859,-0.054992,0.033375,9.806439,-0.001588,0.013132,1.200165,25.32,-28.44,-14.64,223.9183,-0.1867,0.3352,55.81407,37.500393,210.7,NaN,,13.031,,0 / 5,,6034,2021-05-02 18:59:02:663
0.718282,0.732648,9.574705,-0.054992,0.033375,9.806439,-3.67E-4,0.007024,1.159848,25.32,-28.44,-14.64,223.9183,-0.1867,0.3352,55.81407,37.500393,210.7,NaN,,13.031,,0 / 5,,6044,2021-05-02 18:59:02:673
0.658426,0.72786,9.96976,-0.05387,0.033899,9.806444,-0.001588,0.010689,1.070051,23.46,-29.04,-13.92,218.3687,-0.195,0.3213,55.81407,37.500393,210.7,NaN,,13.031,,0 / 5,,6055,2021-05-02 18:59:02:684
0.66082,0.591386,9.60583,-0.05387,0.033899,9.806444,8.55E-4,0.009467,0.945434,23.46,-29.04,-13.92,218.3687,-0.195,0.3213,55.81407,37.500393,210.7,NaN,,13.031,,0 / 5,,6064,2021-05-02 18:59:02:693
