ACCELEROMETER X (m/s²),ACCELEROMETER Y (m/s²),ACCELEROMETER Z (m/s²),GRAVITY X (m/s²),GRAVITY Y (m/s²),GRAVITY Z (m/s²),GYROSCOPE X (rad/s),GYROSCOPE Y (rad/s),GYROSCOPE Z (rad/s),MAGNETIC FIELD X (μT),MAGNETIC FIELD Y (μT),MAGNETIC FIELD Z (μT),ORIENTATION Z (azimuth °),ORIENTATION X (pitch °),ORIENTATION Y (roll °),LOCATION Latitude : ,LOCATION Longitude : ,LOCATION Altitude ( m),LOCATION Altitude-google ( m),LOCATION Speed ( m/s),LOCATION Accuracy ( m),LOCATION ORIENTATION (°),Satellites in range,GPS NMEA,Time since start in ms ,YYYY-MO-DD HH-MI-SS_SSS
0.304073,-0.253793,9.953,0.34014,-0.122455,9.799984,-0.014399,-0.002805,-0.005172,6.84,9.6,-12,320.0798,0.6876,-1.9878,55.814068,37.50038,210.7,NaN,,10.906001,,0 / 4,,24,2021-05-02 19:33:33:080
0.284919,-0.093377,9.783007,0.34014,-0.122455,9.799984,0.025918,0.000249,0.003381,6.84,9.6,-12,320.0798,0.6876,-1.9878,55.814068,37.50038,210.7,NaN,,10.906001,,0 / 4,,33,2021-05-02 19:33:33:089
0.284919,-0.093377,9.783007,0.340351,-0.122646,9.799975,0.042411,0.000249,0.000326,6.12,9.42,-11.88,324.078,0.7166,-1.9891,55.814068,37.50038,210.7,NaN,,10.906001,,0 / 4,,43,2021-05-02 19:33:33:099
0.287313,0.045491,9.613013,0.340351,-0.122646,9.799975,0.049131,0.008801,0.005213,6.12,9.42,-11.88,324.078,0.7166,-1.9891,55.814068,37.50038,210.7,NaN,,10.906001,,0 / 4,,53,2021-05-02 19:33:33:109
0.33041,0.150839,9.536397,0.339527,-0.113436,9.800114,0.028361,0.006969,0.002159,6.24,9.24,-12.36,324.078,0.7166,-1.9891,55.814068,37.50038,210.7,NaN,,10.906001,,0 / 4,,63,2021-05-02 19:33:33:119
0.407027,0.081405,9.414289,0.339527,-0.113436,9.800114,-0.007069,-0.004638,0.000326,6.24,9.24,-12.36,324.078,0.7166,-1.9891,55.814068,37.50038,210.7,NaN,,10.906001,,0 / 4,,73,2021-05-02 19:33:33:129
0.423787,-0.05028,9.45978,0.338336,-0.108413,9.800212,-0.047997,-0.011968,-0.004561,6.9,9.96,-12.42,323.0791,0.6628,-1.9842,55.814068,37.50038,210.7,NaN,,10.906001,,0 / 4,,84,2021-05-02 19:33:33:140
0.407027,-0.270553,9.80695,0.338336,-0.108413,9.800212,-0.066323,-0.010746,-0.003339,6.9,9.96,-12.42,323.0791,0.6628,-1.9842,55.814068,37.50038,210.7,NaN,,10.906001,,0 / 4,,94,2021-05-02 19:33:33:150
0.407027,-0.270553,9.80695,0.340703,-0.110348,9.800109,-0.059603,-0.010135,-0.003339,7.44,8.94,-12.18,323.0791,0.6628,-1.9842,55.814068,37.50038,210.7,NaN,,10.906001,,0 / 4,,103,2021-05-02 19:33:33:159
0.407027,-0.36393,10.175668,0.340703,-0.110348,9.800109,-0.024173,-0.013801,-0.001506,7.44,8.94,-12.18,323.0791,0.6628,-1.9842,55.814068,37.50038,210.7,NaN,,10.906001,,0 / 4,,113,2021-05-02 19:33:33:169
0.328016,-0.399844,10.115811,0.343172,-0.120994,9.799897,0.015533,0.006969,0.001548,7.14,8.76,-12.18,320.1055,0.6447,-1.9911,55.814068,37.50038,210.7,NaN,,10.906001,,0 / 4,,123,2021-05-02 19:33:33:179
0.275342,-0.225062,9.744699,0.343172,-0.120994,9.799897,0.047909,0.027127,0.005824,7.14,8.76,-12.18,320.1055,0.6447,-1.9911,55.814068,37.50038,210.7,NaN,,10.906001,,0 / 4,,133,2021-05-02 19:33:33:189
0.208302,-0.119714,9.526819,0.341104,-0.117392,9.800013,0.060126,0.025295,0.00277,6.06,9.48,-11.46,320.1055,0.6447,-1.9911,55.814068,37.50038,210.7,NaN,,10.906001,,0 / 4,,143,2021-05-02 19:33:33:199
0.208302,-0.119714,9.526819,0.341104,-0.117392,9.800013,0.046076,0.006969,0.004602,6.06,9.48,-11.46,320.1055,0.6447,-1.9911,55.814068,37.50038,210.7,NaN,,10.906001,,0 / 4,,153,2021-05-02 19:33:33:209
0.222668,0.028731,9.663293,0.337095,-0.106258,9.800279,0.016755,-0.010135,0.003381,6.12,9.24,-11.16,324.2784,0.6859,-1.9935,55.814068,37.50038,210.7,NaN,,10.906001,,0 / 4,,163,2021-05-02 19:33:33:219
0.311256,0.026337,9.620196,0.337095,-0.106258,9.800279,0.016755,-0.010135,0.003381,6.12,9.24,-11.16,324.2784,0.6859,-1.9935,55.814068,37.50038,210.7,NaN,,10.906001,,0 / 4,,173,2021-05-02 19:33:33:229
0.423787,-0.021548,9.581888,0.337975,-0.10305,9.800283,-0.019897,-0.018688,0.002159,7.14,9.3,-11.46,324.2784,0.6859,-1.9935,55.814068,37.50038,210.7,NaN,,10.906001,,0 / 4,,183,2021-05-02 19:33:33:239
0.423787,-0.021548,9.581888,0.337975,-0.10305,9.800283,-0.044332,-0.021131,0.000326,7.14,9.3,-11.46,324.2784,0.6859,-1.9935,55.814068,37.50038,210.7,NaN,,10.906001,,0 / 4,,193,2021-05-02 19:33:33:249
0.466884,-0.098165,9.727939,0.341947,-0.11057,9.800062,-0.033947,-0.004027,-0.002117,7.5,9.66,-11.82,319.5466,0.646,-1.9984,55.814068,37.50038,210.7,NaN,,10.906001,,0 / 4,,203,2021-05-02 19:33:33:259
0.459701,-0.179571,9.893144,0.341947,-0.11057,9.800062,-0.005236,0.006969,0.000937,7.5,9.66,-11.82,319.5466,0.646,-1.9984,55.814068,37.50038,210.7,NaN,,10.906001,,0 / 4,,213,2021-05-02 19:33:33:269
0.316044,-0.184359,9.893144,0.342118,-0.115844,9.799996,0.015533,0.016743,-0.002117,7.26,9.54,-12.12,319.5466,0.646,-1.9984,55.814068,37.50038,210.7,NaN,,10.906001,,0 / 4,,223,2021-05-02 19:33:33:279
0.205908,-0.138868,9.749487,0.342118,-0.115844,9.799996,0.030194,0.02163,-0.001506,7.26,9.54,-12.12,319.5466,0.646,-1.9984,55.814068,37.50038,210.7,NaN,,10.906001,,0 / 4,,234,2021-05-02 19:33:33:290
0.205908,-0.138868,9.749487,0.338521,-0.112264,9.800162,0.024696,0.013077,-0.001506,6.36,9.24,-12.42,324.0944,0.6768,-1.9994,55.814068,37.50038,210.7,NaN,,10.906001,,0 / 4,,243,2021-05-02 19:33:33:299
0.189148,-0.110137,9.62259,0.338521,-0.112264,9.800162,-0.000349,-0.013801,0.005213,6.36,9.24,-12.42,324.0944,0.6768,-1.9994,55.814068,37.50038,210.7,NaN,,10.906001,,0 / 4,,253,2021-05-02 19:33:33:309
0.28013,-0.105348,9.591465,0.337406,-0.108592,9.800242,-0.022951,-0.015633,0.00277,6.54,9.54,-12.9,324.0944,0.6768,-1.9994,55.814068,37.50038,210.7,NaN,,10.906001,,0 / 4,,263,2021-05-02 19:33:33:319
0.373507,-0.122108,9.703996,0.337406,-0.108592,9.800242,-0.02906,-0.008914,-0.000285,6.54,9.54,-12.9,324.0944,0.6768,-1.9994,55.814068,37.50038,210.7,NaN,,10.906001,,0 / 4,,273,2021-05-02 19:33:33:329
0.38069,-0.119714,9.828498,0.340162,-0.112332,9.800105,-0.024173,-0.012579,-0.001506,7.02,9.48,-12.84,319.9613,0.6345,-1.9718,55.814068,37.50038,210.7,NaN,,10.906001,,0 / 4,,284,2021-05-02 19:33:33:340
0.390267,-0.155628,9.878778,0.340162,-0.112332,9.800105,-0.00768,-0.009525,0.005213,7.02,9.48,-12.84,319.9613,0.6345,-1.9718,55.814068,37.50038,210.7,NaN,,10.906001,,0 / 4,,294,2021-05-02 19:33:33:350
0.390267,-0.155628,9.878778,0.342095,-0.116385,9.799991,0.01309,0.00819,-0.000285,6.72,9.48,-12.42,319.9613,0.6345,-1.9718,55.814068,37.50038,210.7,NaN,,10.906001,,0 / 4,,303,2021-05-02 19:33:33:359
0.375901,-0.165205,9.73991,0.342095,-0.116385,9.799991,0.01309,0.00819,-0.000285,6.72,9.48,-12.42,319.9613,0.6345,-1.9718,55.814068,37.50038,210.7,NaN,,10.906001,,0 / 4,,313,2021-05-02 19:33:33:369
0.323227,-0.110137,9.665688,0.342669,-0.117713,9.799954,0.009424,0.006358,-0.001506,6.96,9.12,-11.88,320.076,0.68,-1.9992,55.814068,37.50038,210.7,NaN,,10.906001,,0 / 4,,323,2021-05-02 19:33:33:379
0.272947,-0.153234,9.684841,0.342669,-0.117713,9.799954,0.009424,0.006358,-0.001506,6.96,9.12,-11.88,320.076,0.68,-1.9992,55.814068,37.50038,210.7,NaN,,10.906001,,0 / 4,,333,2021-05-02 19:33:33:389
0.272947,-0.153234,9.684841,0.34164,-0.11817,9.799985,-0.002793,-0.007692,-0.005172,6.6,8.82,-11.88,320.076,0.68,-1.9992,55.814068,37.50038,210.7,NaN,,10.906001,,0 / 4,,343,2021-05-02 19:33:33:399
0.241822,-0.136474,9.742304,0.34164,-0.11817,9.799985,-0.015621,-0.008914,-0.004561,6.6,8.82,-11.88,320.076,0.68,-1.9992,55.814068,37.50038,210.7,NaN,,10.906001,,0 / 4,,353,2021-05-02 19:33:33:409
0.258582,-0.081405,9.802161,0.339634,-0.123319,9.799992,-0.015621,-0.010746,-0.000896,6.48,9.3,-12.36,324.0882,0.6904,-1.9966,55.814068,37.50038,210.7,NaN,,10.906001,,0 / 4,,363,2021-05-02 19:33:33:419
0.294496,-0.193936,9.845258,0.339634,-0.123319,9.799992,-0.006458,-0.013801,-0.000285,6.48,9.3,-12.36,324.0882,0.6904,-1.9966,55.814068,37.50038,210.7,NaN,,10.906001,,0 / 4,,373,2021-05-02 19:33:33:429
0.371113,-0.342381,9.632168,0.335643,-0.12673,9.800085,0.005759,-0.010135,-0.000896,6.66,9.24,-11.58,324.0882,0.6904,-1.9966,55.814068,37.50038,210.7,NaN,,10.906001,,0 / 4,,384,2021-05-02 19:33:33:440
0.440547,-0.237033,9.615408,0.335643,-0.12673,9.800085,0.005759,0.002693,0.003381,6.66,9.24,-11.58,324.0882,0.6904,-1.9966,55.814068,37.50038,210.7,NaN,,10.906001,,0 / 4,,393,2021-05-02 19:33:33:449
0.440547,-0.237033,9.615408,0.334718,-0.135357,9.800001,0.005148,0.005136,0.000937,6.96,9.3,-11.1,320.237,0.7404,-1.9616,55.814068,37.50038,210.7,NaN,,10.906001,,0 / 4,,403,2021-05-02 19:33:33:459
0.452518,-0.086194,10.079897,0.334718,-0.135357,9.800001,0.019809,0.00758,0.007046,6.96,9.3,-11.1,320.237,0.7404,-1.9616,55.814068,37.50038,210.7,NaN,,10.906001,,0 / 4,,413,2021-05-02 19:33:33:469
0.328016,0.090982,10.122993,0.338999,-0.141699,9.799765,0.032026,0.00758,0.013765,7.26,9.66,-11.7,320.237,0.7404,-1.9616,55.814068,37.50038,210.7,NaN,,10.906001,,0 / 4,,423,2021-05-02 19:33:33:479
0.373507,0.337593,9.371192,0.338999,-0.141699,9.799765,0.032026,0.00758,0.013765,7.26,9.66,-11.7,320.237,0.7404,-1.9616,55.814068,37.50038,210.7,NaN,,10.906001,,0 / 4,,433,2021-05-02 19:33:33:489
0.26337,0.114925,8.779806,0.341586,-0.124989,9.799903,0.021642,0.009412,0.011933,6.84,9.9,-12.48,322.9856,0.8279,-1.9812,55.814068,37.50038,210.7,NaN,,10.906001,,0 / 4,,443,2021-05-02 19:33:33:499
0.045491,-0.184359,9.431048,0.341586,-0.124989,9.799903,-0.018675,0.035679,0.011322,6.84,9.9,-12.48,322.9856,0.8279,-1.9812,55.814068,37.50038,210.7,NaN,,10.906001,,0 / 4,,453,2021-05-02 19:33:33:509
0.045491,-0.184359,9.431048,0.336436,-0.104228,9.800323,-0.05716,0.02896,0.010711,6.6,9.96,-12.36,322.9856,0.8279,-1.9812,55.814068,37.50038,210.7,NaN,,10.906001,,0 / 4,,463,2021-05-02 19:33:33:519
0.177176,-0.545895,10.374393,0.336436,-0.104228,9.800323,-0.073042,-0.043122,0.006435,6.6,9.96,-12.36,322.9856,0.8279,-1.9812,55.814068,37.50038,210.7,NaN,,10.906001,,0 / 4,,474,2021-05-02 19:33:33:530
0.462095,-0.615329,10.702409,0.323889,-0.112226,9.800657,-0.054106,-0.074887,-0.002728,6.24,9.36,-11.7,324.1665,0.609,-1.9661,55.814068,37.50038,210.7,NaN,,10.906001,,0 / 4,,483,2021-05-02 19:33:33:539
0.481249,-0.476461,10.096657,0.323889,-0.112226,9.800657,0.002094,-0.017466,-0.000285,6.24,9.36,-11.7,324.1665,0.609,-1.9661,55.814068,37.50038,210.7,NaN,,10.906001,,0 / 4,,493,2021-05-02 19:33:33:549
0.567443,-0.004789,9.486116,0.329262,-0.140525,9.800114,0.050352,0.005136,-0.002728,6.06,9.18,-11.94,324.1665,0.609,-1.9661,55.814068,37.50038,210.7,NaN,,10.906001,,0 / 4,,504,2021-05-02 19:33:33:560
0.567443,-0.004789,9.486116,0.329262,-0.140525,9.800114,0.090059,-0.012579,-0.005782,6.06,9.18,-11.94,324.1665,0.609,-1.9661,55.814068,37.50038,210.7,NaN,,10.906001,,0 / 4,,513,2021-05-02 19:33:33:569
0.555472,0.205908,9.42626,0.33136,-0.14019,9.800048,0.098611,0.02163,-0.002117,6.72,9.78,-12.36,323.0328,0.821,-1.9243,55.814068,37.50038,210.7,NaN,,10.906001,,0 / 4,,524,2021-05-02 19:33:33:580
0.354353,0.268159,9.395134,0.33136,-0.14019,9.800048,0.057072,0.074164,0.007657,6.72,9.78,-12.36,323.0328,0.821,-1.9243,55.814068,37.50038,210.7,NaN,,10.906001,,0 / 4,,533,2021-05-02 19:33:33:589
0.21309,0.069434,9.196409,0.325419,-0.122749,9.800481,-0.019897,0.054616,0.007046,7.02,9.42,-12.72,323.0328,0.821,-1.9243,55.814068,37.50038,210.7,NaN,,10.906001,,0 / 4,,545,2021-05-02 19:33:33:601
0.141262,-0.210696,9.672871,0.325419,-0.122749,9.800481,-0.082205,-0.015633,0.009489,7.02,9.42,-12.72,323.0328,0.821,-1.9243,55.814068,37.50038,210.7,NaN,,10.906001,,0 / 4,,553,2021-05-02 19:33:33:609
0.141262,-0.210696,9.672871,0.31558,-0.126922,9.800749,-0.11397,-0.048009,0.008878,7.32,9,-12.54,319.9918,0.7416,-1.8443,55.814068,37.50038,210.7,NaN,,10.906001,,0 / 4,,563,2021-05-02 19:33:33:619
0.294496,-0.409421,10.206794,0.31558,-0.126922,9.800749,-0.096255,-0.037014,0.002159,7.32,9,-12.54,319.9918,0.7416,-1.8443,55.814068,37.50038,210.7,NaN,,10.906001,,0 / 4,,573,2021-05-02 19:33:33:629
0.292102,-0.569837,10.223554,0.323965,-0.147758,9.800183,-0.016232,-0.003416,0.001548,7.74,9.36,-11.64,319.9918,0.7416,-1.8443,55.814068,37.50038,210.7,NaN,,10.906001,,0 / 4,,583,2021-05-02 19:33:33:639
0.122108,-0.325621,9.852441,0.323965,-0.147758,9.800183,0.060126,0.001471,0.013154,7.74,9.36,-11.64,319.9918,0.7416,-1.8443,55.814068,37.50038,210.7,NaN,,10.906001,,0 / 4,,593,2021-05-02 19:33:33:649
0.373507,-0.01676,9.732727,0.325583,-0.152549,9.800056,0.110828,-0.007692,0.016209,7.62,9.24,-11.7,316.4314,0.8633,-1.8933,55.814068,37.50038,210.7,NaN,,10.906001,,0 / 4,,604,2021-05-02 19:33:33:660
0.31365,0.344776,9.787795,0.325583,-0.152549,9.800056,0.118158,0.024684,0.008267,7.62,9.24,-11.7,316.4314,0.8633,-1.8933,55.814068,37.50038,210.7,NaN,,10.906001,,0 / 4,,614,2021-05-02 19:33:33:670
0.31365,0.344776,9.787795,0.326075,-0.133031,9.800324,0.118158,0.024684,0.008267,6.96,9.12,-12.54,316.4314,0.8633,-1.8933,55.814068,37.50038,210.7,NaN,,10.906001,,0 / 4,,623,2021-05-02 19:33:33:679
0.306467,0.217879,9.000079,0.326075,-0.133031,9.800324,0.06257,0.066223,0.011933,6.96,9.12,-12.54,316.4314,0.8633,-1.8933,55.814068,37.50038,210.7,NaN,,10.906001,,0 / 4,,633,2021-05-02 19:33:33:689
0.651243,-0.019154,8.978531,0.316261,-0.117944,9.80084,-0.094423,-0.085272,-0.01128,6.66,9.54,-13.08,323.0136,0.6891,-1.8482,55.814068,37.50038,210.7,NaN,,10.906001,,0 / 4,,643,2021-05-02 19:33:33:699
0.651243,-0.019154,8.978531,0.316261,-0.117944,9.80084,-0.094423,-0.085272,-0.01128,6.66,9.54,-13.08,323.0136,0.6891,-1.8482,55.814068,37.50038,210.7,NaN,,10.906001,,0 / 4,,653,2021-05-02 19:33:33:709
0.407027,-0.395055,10.173274,0.328378,-0.132285,9.800258,-0.139016,-0.027851,-0.007004,7.2,9.54,-12.9,323.0136,0.6891,-1.8482,55.814068,37.50038,210.7,NaN,,10.906001,,0 / 4,,663,2021-05-02 19:33:33:719
0.337593,-0.430969,10.520444,0.328378,-0.132285,9.800258,-0.09992,0.025906,0.000937,7.2,9.54,-12.9,323.0136,0.6891,-1.8482,55.814068,37.50038,210.7,NaN,,10.906001,,0 / 4,,673,2021-05-02 19:33:33:729
0.318439,-0.292102,10.149331,0.325799,-0.155658,9.8,0.016144,-0.037014,-0.00395,7.38,9.18,-12.06,320.0769,0.7729,-1.9191,55.814068,37.50038,210.7,NaN,,10.906001,,0 / 4,,683,2021-05-02 19:33:33:739
0.222668,-0.093377,9.601042,0.325799,-0.155658,9.8,0.104719,0.025295,0.002159,7.38,9.18,-12.06,320.0769,0.7729,-1.9191,55.814068,37.50038,210.7,NaN,,10.906001,,0 / 4,,693,2021-05-02 19:33:33:749
0.227456,0.150839,9.244295,0.330339,-0.149115,9.799951,0.118769,0.07844,0.002159,6.84,9.54,-11.94,320.0769,0.7729,-1.9191,55.814068,37.50038,210.7,NaN,,10.906001,,0 / 4,,703,2021-05-02 19:33:33:759
0.227456,0.150839,9.244295,0.330339,-0.149115,9.799951,0.09067,0.02896,-0.003339,6.84,9.54,-11.94,320.0769,0.7729,-1.9191,55.814068,37.50038,210.7,NaN,,10.906001,,0 / 4,,713,2021-05-02 19:33:33:769
0.268159,-0.004789,9.419077,0.318497,-0.127368,9.80065,0.002094,-0.054729,-0.007615,6.66,9.36,-11.94,320.0028,0.8712,-1.9306,55.814068,37.50038,210.7,NaN,,10.906001,,0 / 4,,723,2021-05-02 19:33:33:779
0.36393,-0.172388,9.838076,0.318497,-0.127368,9.80065,-0.076708,-0.033959,-0.000285,6.66,9.36,-11.94,320.0028,0.8712,-1.9306,55.814068,37.50038,210.7,NaN,,10.906001,,0 / 4,,734,2021-05-02 19:33:33:790
0.509981,-0.205908,9.79019,0.32639,-0.125118,9.800419,-0.109083,-0.005859,0.000937,6.78,8.7,-12.24,320.0028,0.8712,-1.9306,55.814068,37.50038,210.7,NaN,,10.906001,,0 / 4,,743,2021-05-02 19:33:33:799
0.509981,-0.205908,9.79019,0.32639,-0.125118,9.800419,-0.096866,-0.003416,-0.000896,6.78,8.7,-12.24,320.0028,0.8712,-1.9306,55.814068,37.50038,210.7,NaN,,10.906001,,0 / 4,,753,2021-05-02 19:33:33:809
0.351958,-0.205908,9.792584,0.328011,-0.145603,9.800081,-0.030282,-0.018688,0.00277,6.42,8.7,-12.84,323.9592,0.731,-1.9075,55.814068,37.50038,210.7,NaN,,10.906001,,0 / 4,,763,2021-05-02 19:33:33:819
0.375901,-0.035914,9.955395,0.328011,-0.145603,9.800081,-0.030282,-0.018688,0.00277,6.42,8.7,-12.84,323.9592,0.731,-1.9075,55.814068,37.50038,210.7,NaN,,10.906001,,0 / 4,,773,2021-05-02 19:33:33:829
0.277736,0.098165,9.811738,0.330581,-0.152994,9.799882,0.058294,0.012467,-0.001506,6.06,8.28,-12.78,323.9592,0.731,-1.9075,55.814068,37.50038,210.7,NaN,,10.906001,,0 / 4,,784,2021-05-02 19:33:33:840
0.172388,-0.019154,9.431048,0.330581,-0.152994,9.799882,0.096778,0.047286,-0.002117,6.06,8.28,-12.78,323.9592,0.731,-1.9075,55.814068,37.50038,210.7,NaN,,10.906001,,0 / 4,,793,2021-05-02 19:33:33:849
0.172388,-0.019154,9.431048,0.324281,-0.136763,9.800333,0.070511,0.024073,0.002159,5.76,8.34,-12.24,320.6799,0.8939,-1.932,55.814068,37.50038,210.7,NaN,,10.906001,,0 / 4,,803,2021-05-02 19:33:33:859
0.249005,-0.177176,9.332883,0.324281,-0.136763,9.800333,-0.005847,-0.022964,-0.001506,5.76,8.34,-12.24,320.6799,0.8939,-1.932,55.814068,37.50038,210.7,NaN,,10.906001,,0 / 4,,814,2021-05-02 19:33:33:870
0.368718,-0.282524,9.680053,0.32396,-0.129545,9.800442,-0.085871,-0.015633,0.00277,6.24,9.42,-12.6,320.6799,0.8939,-1.932,55.814068,37.50038,210.7,NaN,,10.906001,,0 / 4,,823,2021-05-02 19:33:33:879
0.356747,-0.294496,10.039194,0.32396,-0.129545,9.800442,-0.100531,-0.005859,0.000937,6.24,9.42,-12.6,320.6799,0.8939,-1.932,55.814068,37.50038,210.7,NaN,,10.906001,,0 / 4,,833,2021-05-02 19:33:33:889
0.356747,-0.294496,10.039194,0.327003,-0.145856,9.800111,-0.063269,-0.025407,0.000326,6.72,9.9,-13.14,322.9338,0.7569,-1.8933,55.814068,37.50038,210.7,NaN,,10.906001,,0 / 4,,844,2021-05-02 19:33:33:900
0.38069,-0.251399,10.024829,0.327003,-0.145856,9.800111,0.0137,-0.026629,-0.000896,6.72,9.9,-13.14,322.9338,0.7569,-1.8933,55.814068,37.50038,210.7,NaN,,10.906001,,0 / 4,,854,2021-05-02 19:33:33:910
0.349564,-0.062251,9.821315,0.33175,-0.155936,9.799797,0.069289,0.015521,-0.002728,6.24,9.42,-12.9,322.9338,0.7569,-1.8933,55.814068,37.50038,210.7,NaN,,10.906001,,0 / 4,,863,2021-05-02 19:33:33:919
0.284919,-0.167599,9.57231,0.33175,-0.155936,9.799797,0.088837,0.047897,0.004602,6.24,9.42,-12.9,322.9338,0.7569,-1.8933,55.814068,37.50038,210.7,NaN,,10.906001,,0 / 4,,873,2021-05-02 19:33:33:929
0.325621,-0.06704,9.512454,0.328226,-0.142851,9.800115,0.069289,0.020408,-0.002117,6.96,9.54,-12.54,322.7988,0.9111,-1.9389,55.814068,37.50038,210.7,NaN,,10.906001,,0 / 4,,883,2021-05-02 19:33:33:939
0.325621,-0.06704,9.512454,0.328226,-0.142851,9.800115,0.023474,-0.002194,0.001548,6.96,9.54,-12.54,322.7988,0.9111,-1.9389,55.814068,37.50038,210.7,NaN,,10.906001,,0 / 4,,893,2021-05-02 19:33:33:949
0.253793,-0.062251,9.672871,0.324477,-0.130449,9.800412,-0.040056,-0.004638,0.000937,7.5,9.9,-12.24,322.7988,0.9111,-1.9389,55.814068,37.50038,210.7,NaN,,10.906001,,0 / 4,,903,2021-05-02 19:33:33:959
0.332804,0.028731,9.732727,0.324477,-0.130449,9.800412,-0.060214,-0.031516,0.001548,7.5,9.9,-12.24,322.7988,0.9111,-1.9389,55.814068,37.50038,210.7,NaN,,10.906001,,0 / 4,,913,2021-05-02 19:33:33:969
0.454912,-0.043097,9.61062,0.325484,-0.136465,9.800298,-0.051662,-0.043733,-0.006393,7.08,9.36,-12.12,320.1017,0.7622,-1.8963,55.814068,37.50038,210.7,NaN,,10.906001,,0 / 4,,924,2021-05-02 19:33:33:980
0.339987,0,9.658504,0.325484,-0.136465,9.800298,-0.024173,-0.002805,-0.00395,7.08,9.36,-12.12,320.1017,0.7622,-1.8963,55.814068,37.50038,210.7,NaN,,10.906001,,0 / 4,,933,2021-05-02 19:33:33:989
0.339987,0,9.658504,0.333092,-0.146551,9.799896,0.007592,0.029571,-0.002728,6.42,8.82,-11.82,320.1017,0.7622,-1.8963,55.814068,37.50038,210.7,NaN,,10.906001,,0 / 4,,943,2021-05-02 19:33:33:999
0.373507,-0.090982,9.668081,0.333092,-0.146551,9.799896,0.007592,0.029571,-0.002728,6.42,8.82,-11.82,320.1017,0.7622,-1.8963,55.814068,37.50038,210.7,NaN,,10.906001,,0 / 4,,953,2021-05-02 19:33:34:009
0.385478,-0.184359,9.885961,0.328775,-0.145024,9.800064,0.036303,0.004525,-0.00395,5.58,9.06,-12.3,324.0531,0.8473,-1.9215,55.814068,37.50038,210.7,NaN,,10.906001,,0 / 4,,963,2021-05-02 19:33:34:019
0.318439,-0.272947,9.912297,0.328775,-0.145024,9.800064,0.028972,0.003304,-0.006393,5.58,9.06,-12.3,324.0531,0.8473,-1.9215,55.814068,37.50038,210.7,NaN,,10.906001,,0 / 4,,974,2021-05-02 19:33:34:030
0.308861,-0.225062,9.565128,0.327931,-0.13914,9.800178,0.006981,0.018575,-0.002728,6.06,9.42,-12.6,324.0531,0.8473,-1.9215,55.814068,37.50038,210.7,NaN,,10.906001,,0 / 4,,984,2021-05-02 19:33:34:040
0.308861,-0.225062,9.565128,0.327931,-0.13914,9.800178,-0.022341,-0.018077,-0.002117,6.06,9.42,-12.6,324.0531,0.8473,-1.9215,55.814068,37.50038,210.7,NaN,,10.906001,,0 / 4,,993,2021-05-02 19:33:34:049
0.318439,-0.169993,9.593859,0.327865,-0.141363,9.800149,-0.029671,-0.037014,-0.005782,7.08,9.36,-12.48,320.0524,0.813,-1.9165,55.814068,37.50038,210.7,NaN,,10.906001,,0 / 4,,1003,2021-05-02 19:33:34:059
0.337593,-0.117319,9.847652,0.327865,-0.141363,9.800149,-0.018675,-0.004638,-0.000285,7.08,9.36,-12.48,320.0524,0.813,-1.9165,55.814068,37.50038,210.7,NaN,,10.906001,,0 / 4,,1013,2021-05-02 19:33:34:069
0.308861,-0.071828,9.727939,0.331978,-0.146081,9.799941,0.029583,-0.002194,-0.003339,7.26,9.9,-12.6,320.0524,0.813,-1.9165,55.814068,37.50038,210.7,NaN,,10.906001,,0 / 4,,1030,2021-05-02 19:33:34:086
0.361536,-0.131685,9.581888,0.331978,-0.146081,9.799941,0.029583,-0.002194,-0.003339,7.26,9.9,-12.6,320.0524,0.813,-1.9165,55.814068,37.50038,210.7,NaN,,10.906001,,0 / 4,,1033,2021-05-02 19:33:34:089
0.361536,-0.131685,9.581888,0.32835,-0.143003,9.800108,0.021642,-0.007692,-0.004561,6.3,10.02,-12.78,326.7254,0.8535,-1.9402,55.814068,37.50038,210.7,NaN,,10.906001,,0 / 4,,1043,2021-05-02 19:33:34:099
0.392661,-0.186753,9.727939,0.32835,-0.143003,9.800108,0.004538,0.005747,-0.010669,6.3,10.02,-12.78,326.7254,0.8535,-1.9402,55.814068,37.50038,210.7,NaN,,10.906001,,0 / 4,,1053,2021-05-02 19:33:34:109
0.342381,-0.141262,9.857229,0.329119,-0.139551,9.800133,-0.00768,0.000249,-0.008226,5.76,9.48,-12.9,326.7254,0.8535,-1.9402,55.814068,37.50038,210.7,NaN,,10.906001,,0 / 4,,1063,2021-05-02 19:33:34:119
0.38069,-0.05028,9.713573,0.329119,-0.139551,9.800133,-0.00768,-0.024796,-0.012502,5.76,9.48,-12.9,326.7254,0.8535,-1.9402,55.814068,37.50038,210.7,NaN,,10.906001,,0 / 4,,1074,2021-05-02 19:33:34:130
0.442941,0.009577,9.579494,0.329957,-0.140976,9.800084,-0.004625,-0.015022,-0.01128,5.82,9.54,-13.5,326.7636,0.8154,-1.9234,55.814068,37.50038,210.7,NaN,,10.906001,,0 / 4,,1084,2021-05-02 19:33:34:140
0.442941,0.009577,9.579494,0.329957,-0.140976,9.800084,-0.001571,0.019186,-0.014335,5.82,9.54,-13.5,326.7636,0.8154,-1.9234,55.814068,37.50038,210.7,NaN,,10.906001,,0 / 4,,1093,2021-05-02 19:33:34:149
0.402238,-0.01676,9.541185,0.339544,-0.134617,9.799846,-0.001571,0.019186,-0.014335,6.48,9.42,-13.26,326.7636,0.8154,-1.9234,55.814068,37.50038,210.7,NaN,,10.906001,,0 / 4,,1103,2021-05-02 19:33:34:159
0.320833,-0.129291,9.632168,0.339544,-0.134617,9.799846,0.000261,0.018575,-0.010669,6.48,9.42,-13.26,326.7636,0.8154,-1.9234,55.814068,37.50038,210.7,NaN,,10.906001,,0 / 4,,1113,2021-05-02 19:33:34:169
0.244216,-0.251399,9.857229,0.342397,-0.126183,9.799859,-0.002182,0.00086,-0.005172,6.9,9.3,-12.3,320.0172,0.7865,-1.9844,55.814068,37.50038,210.7,NaN,,10.906001,,0 / 4,,1123,2021-05-02 19:33:34:179
0.179571,-0.258582,9.955395,0.342397,-0.126183,9.799859,-0.009512,0.005136,-0.00395,6.9,9.3,-12.3,320.0172,0.7865,-1.9844,55.814068,37.50038,210.7,NaN,,10.906001,,0 / 4,,1133,2021-05-02 19:33:34:189
0.179571,-0.258582,9.955395,0.340764,-0.127257,9.799902,-0.005847,0.00819,0.000937,6.42,9.3,-12.24,320.0172,0.7865,-1.9844,55.814068,37.50038,210.7,NaN,,10.906001,,0 / 4,,1143,2021-05-02 19:33:34:199
0.201119,-0.198725,9.761458,0.336517,-0.130393,9.800008,0.002094,-0.007081,0.003381,6.06,9.3,-12.12,320.0172,0.7865,-1.9844,55.814068,37.50038,210.7,NaN,,10.906001,,0 / 4,,1153,2021-05-02 19:33:34:209
0.289707,-0.038308,9.553157,0.332763,-0.132619,9.800105,0.015533,-0.016244,-0.000896,6.06,9.06,-12.66,323.882,0.7618,-1.9667,55.814068,37.50038,210.7,NaN,,10.906001,,0 / 4,,1163,2021-05-02 19:33:34:219
0.368718,-0.011971,9.581888,0.332763,-0.132619,9.800105,0.015533,0.004525,-0.00395,6.06,9.06,-12.66,323.882,0.7618,-1.9667,55.814068,37.50038,210.7,NaN,,10.906001,,0 / 4,,1173,2021-05-02 19:33:34:229
0.368718,-0.011971,9.581888,0.327631,-0.128606,9.800331,0.008814,0.000249,-0.002728,6.48,9.3,-12.66,323.882,0.7618,-1.9667,55.814068,37.50038,210.7,NaN,,10.906001,,0 / 4,,1184,2021-05-02 19:33:34:240
0.404632,-0.093377,9.72315,0.327631,-0.128606,9.800331,-0.004625,-0.010746,-0.005172,6.48,9.3,-12.66,323.882,0.7618,-1.9667,55.814068,37.50038,210.7,NaN,,10.906001,,0 / 4,,1193,2021-05-02 19:33:34:249
0.392661,-0.138868,9.792584,0.327054,-0.121845,9.800437,-0.012567,-0.004638,-0.004561,6.84,9.54,-12.18,323.0805,0.7514,-1.9147,55.814068,37.50038,210.7,NaN,,10.906001,,0 / 4,,1204,2021-05-02 19:33:34:260
0.371113,-0.162811,9.725544,0.327054,-0.121845,9.800437,-0.021119,0.002693,-0.004561,6.84,9.54,-12.18,323.0805,0.7514,-1.9147,55.814068,37.50038,210.7,NaN,,10.906001,,0 / 4,,1214,2021-05-02 19:33:34:270
0.371113,-0.162811,9.725544,0.330514,-0.122447,9.800314,-0.013788,-0.000362,-0.00395,6.42,8.76,-12.36,323.0805,0.7514,-1.9147,55.814068,37.50038,210.7,NaN,,10.906001,,0 / 4,,1223,2021-05-02 19:33:34:279
0.349564,-0.122108,9.684841,0.330514,-0.122447,9.800314,0.002094,-0.00647,-0.007004,6.42,8.76,-12.36,323.0805,0.7514,-1.9147,55.814068,37.50038,210.7,NaN,,10.906001,,0 / 4,,1234,2021-05-02 19:33:34:290
0.335198,-0.095771,9.754275,0.334232,-0.124675,9.800159,0.016755,0.006969,-0.006393,5.94,8.82,-12.42,324.1288,0.7154,-1.9316,55.814068,37.50038,210.7,NaN,,10.906001,,0 / 4,,1243,2021-05-02 19:33:34:299
0.311256,-0.095771,9.720756,0.334232,-0.124675,9.800159,0.017977,0.00819,-0.001506,5.82,9.24,-12.36,324.1288,0.7154,-1.9316,55.814068,37.50038,210.7,NaN,,10.906001,,0 / 4,,1253,2021-05-02 19:33:34:309
0.304073,-0.143656,9.641745,0.335092,-0.121088,9.800176,0.006981,0.002082,0.000326,5.82,9.24,-12.36,324.1288,0.7154,-1.9316,55.814068,37.50038,210.7,NaN,,10.906001,,0 / 4,,1264,2021-05-02 19:33:34:320
0.332804,-0.220273,9.656111,0.335092,-0.121088,9.800176,-0.008291,-0.001583,0.003991,6.18,9.9,-12.96,324.1288,0.7154,-1.9316,55.814068,37.50038,210.7,NaN,,10.906001,,0 / 4,,1273,2021-05-02 19:33:34:329
0.332804,-0.220273,9.656111,0.334477,-0.120912,9.800199,-0.014399,0.006969,0.00277,6.54,10.08,-12.48,323.0729,0.7075,-1.9583,55.814068,37.50038,210.7,NaN,,10.906001,,0 / 4,,1284,2021-05-02 19:33:34:340
0.284919,-0.174782,9.787795,0.334477,-0.120912,9.800199,-0.01501,0.005747,0.000937,6.54,10.08,-12.48,323.0729,0.7075,-1.9583,55.814068,37.50038,210.7,NaN,,10.906001,,0 / 4,,1294,2021-05-02 19:33:34:350
0.28013,-0.117319,9.826104,0.332313,-0.128715,9.800173,0.005148,-0.010135,-0.002117,6.36,9.96,-12.3,323.0729,0.7075,-1.9583,55.814068,37.50038,210.7,NaN,,10.906001,,0 / 4,,1303,2021-05-02 19:33:34:359
0.308861,-0.047885,9.73991,0.332313,-0.128715,9.800173,0.019809,-0.013801,-0.007004,6.36,9.96,-12.3,323.0729,0.7075,-1.9583,55.814068,37.50038,210.7,NaN,,10.906001,,0 / 4,,1313,2021-05-02 19:33:34:369
0.33041,-0.028731,9.598648,0.331131,-0.130097,9.800195,0.023474,-0.004638,-0.006393,6.24,9,-12.66,323.9129,0.7601,-1.9352,55.814068,37.50038,210.7,NaN,,10.906001,,0 / 4,,1323,2021-05-02 19:33:34:379
0.361536,-0.052674,9.545974,0.331131,-0.130097,9.800195,0.01309,-0.000972,-0.005172,6.24,9,-12.66,323.9129,0.7601,-1.9352,55.814068,37.50038,210.7,NaN,,10.906001,,0 / 4,,1333,2021-05-02 19:33:34:389
0.361536,-0.052674,9.545974,0.330235,-0.122231,9.800325,-0.004015,-0.003416,-0.002728,6.9,9.24,-12.66,323.9129,0.7601,-1.9352,55.814068,37.50038,210.7,NaN,,10.906001,,0 / 4,,1344,2021-05-02 19:33:34:400
0.385478,-0.107742,9.632168,0.330235,-0.122231,9.800325,-0.004015,-0.003416,-0.002728,6.9,9.24,-12.66,323.9129,0.7601,-1.9352,55.814068,37.50038,210.7,NaN,,10.906001,,0 / 4,,1353,2021-05-02 19:33:34:409
0.387873,-0.131685,9.727939,0.332852,-0.117807,9.800292,-0.025395,0.002082,0.000326,6.54,9.36,-13.26,319.9394,0.7142,-1.9299,55.814068,37.50038,210.7,NaN,,10.906001,,0 / 4,,1363,2021-05-02 19:33:34:419
0.323227,-0.193936,9.797373,0.332852,-0.117807,9.800292,-0.029671,0.005747,0.001548,6.54,9.36,-13.26,319.9394,0.7142,-1.9299,55.814068,37.50038,210.7,NaN,,10.906001,,0 / 4,,1374,2021-05-02 19:33:34:430
0.29689,-0.205908,9.804555,0.335571,-0.120794,9.800162,-0.016232,0.005747,0.005213,6,8.82,-13.38,319.9394,0.7142,-1.9299,55.814068,37.50038,210.7,NaN,,10.906001,,0 / 4,,1384,2021-05-02 19:33:34:440
0.29689,-0.205908,9.804555,0.335571,-0.120794,9.800162,0.004538,0.002693,0.005824,6,8.82,-13.38,319.9394,0.7142,-1.9299,55.814068,37.50038,210.7,NaN,,10.906001,,0 / 4,,1393,2021-05-02 19:33:34:449
0.249005,-0.158022,9.768641,0.335676,-0.123978,9.800119,0.02042,0.011856,0.00277,5.88,9,-12.54,323.9263,0.7058,-1.9611,55.814068,37.50038,210.7,NaN,,10.906001,,0 / 4,,1404,2021-05-02 19:33:34:460
0.258582,-0.134079,9.692024,0.335676,-0.123978,9.800119,0.024085,0.011245,0.006435,5.88,9,-12.54,323.9263,0.7058,-1.9611,55.814068,37.50038,210.7,NaN,,10.906001,,0 / 4,,1413,2021-05-02 19:33:34:469
0.258582,-0.134079,9.692024,0.330578,-0.123919,9.800294,0.017977,-0.000362,0.007046,5.94,9.48,-12.42,323.9263,0.7058,-1.9611,55.814068,37.50038,210.7,NaN,,10.906001,,0 / 4,,1423,2021-05-02 19:33:34:479
0.260976,-0.090982,9.646533,0.330578,-0.123919,9.800294,0.004538,-0.003416,0.011933,5.94,9.48,-12.42,323.9263,0.7058,-1.9611,55.814068,37.50038,210.7,NaN,,10.906001,,0 / 4,,1433,2021-05-02 19:33:34:489
0.287313,-0.10056,9.641745,0.325397,-0.123687,9.800469,-0.011956,0.00086,0.016209,6.18,9.12,-12.84,323.941,0.724,-1.9319,55.814068,37.50038,210.7,NaN,,10.906001,,0 / 4,,1444,2021-05-02 19:33:34:500
0.253793,-0.110137,9.663293,0.325397,-0.123687,9.800469,-0.016843,-0.001583,0.022317,6.18,9.12,-12.84,323.941,0.724,-1.9319,55.814068,37.50038,210.7,NaN,,10.906001,,0 / 4,,1453,2021-05-02 19:33:34:509
0.26337,-0.088588,9.708784,0.319426,-0.125945,9.800637,-0.010123,-0.005859,0.019874,6.3,8.76,-12.9,323.941,0.724,-1.9319,55.814068,37.50038,210.7,NaN,,10.906001,,0 / 4,,1463,2021-05-02 19:33:34:519
0.26337,-0.088588,9.708784,0.319426,-0.125945,9.800637,0.005148,0.003304,0.028426,6.3,8.76,-12.9,323.941,0.724,-1.9319,55.814068,37.50038,210.7,NaN,,10.906001,,0 / 4,,1473,2021-05-02 19:33:34:529
0.256187,-0.112531,9.780613,0.313477,-0.125629,9.800834,0.012479,0.004525,0.034535,6.42,8.64,-13.14,323.9942,0.7359,-1.8667,55.814068,37.50038,210.7,NaN,,10.906001,,0 / 4,,1483,2021-05-02 19:33:34:539
0.239427,-0.095771,9.663293,0.313477,-0.125629,9.800834,0.008203,0.005747,0.043698,6.42,8.64,-13.14,323.9942,0.7359,-1.8667,55.814068,37.50038,210.7,NaN,,10.906001,,0 / 4,,1495,2021-05-02 19:33:34:551
0.189148,-0.141262,9.613013,0.304994,-0.121703,9.801151,-0.000349,0.006358,0.050417,6,9.06,-13.08,323.9942,0.7359,-1.8667,55.814068,37.50038,210.7,NaN,,10.906001,,0 / 4,,1503,2021-05-02 19:33:34:559
0.119714,-0.198725,9.699207,0.304994,-0.121703,9.801151,-0.008291,0.004525,0.058969,6,9.06,-13.08,323.9942,0.7359,-1.8667,55.814068,37.50038,210.7,NaN,,10.906001,,0 / 4,,1513,2021-05-02 19:33:34:569
0.119714,-0.198725,9.699207,0.293639,-0.122213,9.801491,-0.018675,-0.001583,0.076074,6.24,8.88,-12.42,324.2617,0.7111,-1.7824,55.814068,37.50038,210.7,NaN,,10.906001,,0 / 4,,1523,2021-05-02 19:33:34:579
0.105348,-0.22985,9.79019,0.293639,-0.122213,9.801491,-0.00768,-0.003416,0.085236,6.24,8.88,-12.42,324.2617,0.7111,-1.7824,55.814068,37.50038,210.7,NaN,,10.906001,,0 / 4,,1533,2021-05-02 19:33:34:589
0.102954,-0.222668,9.797373,0.277484,-0.129949,9.801863,-0.00768,-0.003416,0.085236,6.42,8.16,-12.36,324.2617,0.7111,-1.7824,55.814068,37.50038,210.7,NaN,,10.906001,,0 / 4,,1543,2021-05-02 19:33:34:599
0.129291,-0.148445,9.732727,0.277484,-0.129949,9.801863,0.002705,-0.000972,0.091345,6.42,8.16,-12.36,324.2617,0.7111,-1.7824,55.814068,37.50038,210.7,NaN,,10.906001,,0 / 4,,1553,2021-05-02 19:33:34:609
0.186753,-0.098165,9.711179,0.259146,-0.137167,9.802266,0.017366,-0.004638,0.101119,6.66,8.76,-12.54,320.1675,0.7593,-1.6216,55.814068,37.50038,210.7,NaN,,10.906001,,0 / 4,,1563,2021-05-02 19:33:34:619
0.186753,-0.098165,9.711179,0.259146,-0.137167,9.802266,0.022253,-0.009525,0.108449,6.66,8.76,-12.54,320.1675,0.7593,-1.6216,55.814068,37.50038,210.7,NaN,,10.906001,,0 / 4,,1573,2021-05-02 19:33:34:629
0.241822,-0.062251,9.684841,0.259905,-0.133601,9.802296,0.014311,-0.00647,0.11578,6.3,9.42,-12.66,320.1675,0.7593,-1.6216,55.814068,37.50038,210.7,NaN,,10.906001,,0 / 4,,1583,2021-05-02 19:33:34:639
0.282524,-0.021548,9.58907,0.259905,-0.133601,9.802296,0.003316,-0.001583,0.118834,6.3,9.42,-12.66,320.1675,0.7593,-1.6216,55.814068,37.50038,210.7,NaN,,10.906001,,0 / 4,,1594,2021-05-02 19:33:34:650
0.306467,-0.045491,9.586677,0.25964,-0.132653,9.802316,-0.007069,-0.005249,0.125554,5.58,9.3,-12.84,324.2933,0.7806,-1.5188,55.814068,37.50038,210.7,NaN,,10.906001,,0 / 4,,1603,2021-05-02 19:33:34:659
0.287313,-0.102954,9.699207,0.25964,-0.132653,9.802316,-0.019897,-0.002194,0.134106,5.58,9.3,-12.84,324.2933,0.7806,-1.5188,55.814068,37.50038,210.7,NaN,,10.906001,,0 / 4,,1613,2021-05-02 19:33:34:669
0.287313,-0.102954,9.699207,0.260387,-0.136279,9.802245,-0.019897,-0.002194,0.134106,6.12,9.18,-12.72,324.2933,0.7806,-1.5188,55.814068,37.50038,210.7,NaN,,10.906001,,0 / 4,,1624,2021-05-02 19:33:34:680
0.220273,-0.189148,9.761458,0.260387,-0.136279,9.802245,-0.011956,0.005136,0.145101,6.42,9.06,-13.14,324.2933,0.7806,-1.5188,55.814068,37.50038,210.7,NaN,,10.906001,,0 / 4,,1633,2021-05-02 19:33:34:689
0.122108,-0.237033,9.775824,0.259478,-0.139827,9.802219,0.000261,0.003914,0.154875,6.42,9.06,-13.14,324.2933,0.7806,-1.5188,55.814068,37.50038,210.7,NaN,,10.906001,,0 / 4,,1644,2021-05-02 19:33:34:700
0.047885,-0.244216,9.814133,0.259478,-0.139827,9.802219,0.005148,0.005136,0.166482,6.54,9.12,-13.2,320.2154,0.817,-1.5163,55.814068,37.50038,210.7,NaN,,10.906001,,0 / 4,,1653,2021-05-02 19:33:34:709
0.047885,-0.244216,9.814133,0.258102,-0.140432,9.802247,0.010646,0.001471,0.187862,6.54,9.12,-13.2,320.2154,0.817,-1.5163,55.814068,37.50038,210.7,NaN,,10.906001,,0 / 4,,1663,2021-05-02 19:33:34:719
0.03352,-0.225062,9.72315,0.258102,-0.140432,9.802247,0.010035,-0.005249,0.198247,6.54,9.48,-13.86,320.2154,0.817,-1.5163,55.814068,37.50038,210.7,NaN,,10.906001,,0 / 4,,1673,2021-05-02 19:33:34:729
0.055068,-0.160416,9.634562,0.256927,-0.139268,9.802295,0.005148,-0.007692,0.20802,6.72,9.36,-13.14,320.2154,0.817,-1.5163,55.814068,37.50038,210.7,NaN,,10.906001,,0 / 4,,1683,2021-05-02 19:33:34:739
0.114925,-0.138868,9.636956,0.256927,-0.139268,9.802295,-0.000349,-0.011357,0.220849,6.72,9.36,-13.14,320.2154,0.817,-1.5163,55.814068,37.50038,210.7,NaN,,10.906001,,0 / 4,,1693,2021-05-02 19:33:34:749
0.179571,-0.124502,9.732727,0.25777,-0.139281,9.802273,-0.002182,-0.007692,0.235509,6.6,9.72,-12.78,323.222,0.8137,-1.5014,55.814068,37.50038,210.7,NaN,,10.906001,,0 / 4,,1703,2021-05-02 19:33:34:759
0.179571,-0.124502,9.732727,0.25777,-0.139281,9.802273,0.000261,-0.010135,0.241618,6.6,9.72,-12.78,323.222,0.8137,-1.5014,55.814068,37.50038,210.7,NaN,,10.906001,,0 / 4,,1714,2021-05-02 19:33:34:770
0.234639,-0.124502,9.763853,0.258445,-0.140708,9.802234,0.003316,-0.002805,0.252614,6.24,10.2,-12.72,323.222,0.8137,-1.5014,55.814068,37.50038,210.7,NaN,,10.906001,,0 / 4,,1724,2021-05-02 19:33:34:780
0.239427,-0.129291,9.692024,0.258445,-0.140708,9.802234,0.003927,0.000249,0.259333,6.24,10.2,-12.72,323.222,0.8137,-1.5014,55.814068,37.50038,210.7,NaN,,10.906001,,0 / 4,,1734,2021-05-02 19:33:34:790
0.239427,-0.129291,9.692024,0.258536,-0.141604,9.802218,0.003927,-0.000972,0.266053,6.24,9.84,-12.66,327.1367,0.8221,-1.5103,55.814068,37.50038,210.7,NaN,,10.906001,,0 / 4,,1743,2021-05-02 19:33:34:799
0.191542,-0.098165,9.680053,0.258536,-0.141604,9.802218,0.001483,-0.001583,0.274605,6.24,9.84,-12.66,327.1367,0.8221,-1.5103,55.814068,37.50038,210.7,NaN,,10.906001,,0 / 4,,1753,2021-05-02 19:33:34:809
0.167599,-0.098165,9.63935,0.257158,-0.142073,9.802248,-0.005236,-0.004638,0.281935,6.72,9,-12.96,327.1367,0.8221,-1.5103,55.814068,37.50038,210.7,NaN,,10.906001,,0 / 4,,1763,2021-05-02 19:33:34:819
0.143657,-0.160416,9.677659,0.257158,-0.142073,9.802248,-0.005236,-0.004638,0.281935,6.72,9,-12.96,327.1367,0.8221,-1.5103,55.814068,37.50038,210.7,NaN,,10.906001,,0 / 4,,1773,2021-05-02 19:33:34:829
0.134079,-0.203513,9.737515,0.257055,-0.143832,9.802225,-0.010123,-0.00647,0.295374,6.84,8.7,-13.14,320.2175,0.8301,-1.5028,55.814068,37.50038,210.7,NaN,,10.906001,,0 / 4,,1783,2021-05-02 19:33:34:839
0.134079,-0.203513,9.737515,0.257055,-0.143832,9.802225,-0.011345,-0.007081,0.304537,6.84,8.7,-13.14,320.2175,0.8301,-1.5028,55.814068,37.50038,210.7,NaN,,10.906001,,0 / 4,,1793,2021-05-02 19:33:34:849
0.129291,-0.234639,9.780613,0.257318,-0.14725,9.802168,-0.009512,-0.007692,0.314311,6.9,8.76,-13.14,320.2175,0.8301,-1.5028,55.814068,37.50038,210.7,NaN,,10.906001,,0 / 4,,1803,2021-05-02 19:33:34:859
0.126897,-0.241822,9.75667,0.257318,-0.14725,9.802168,0.002094,-0.000972,0.33508,6.9,8.76,-13.14,320.2175,0.8301,-1.5028,55.814068,37.50038,210.7,NaN,,10.906001,,0 / 4,,1814,2021-05-02 19:33:34:870
0.071828,-0.227456,9.751882,0.25706,-0.149645,9.802138,0.009424,0.002082,0.349741,6.9,8.94,-12.66,320.1948,0.8603,-1.5037,55.814068,37.50038,210.7,NaN,,10.906001,,0 / 4,,1823,2021-05-02 19:33:34:879
0.035914,-0.181965,9.725544,0.25706,-0.149645,9.802138,0.010646,-0.001583,0.366845,6.9,8.94,-12.66,320.1948,0.8603,-1.5037,55.814068,37.50038,210.7,NaN,,10.906001,,0 / 4,,1833,2021-05-02 19:33:34:889
0.035914,-0.181965,9.725544,0.255564,-0.149636,9.802177,0.008203,-0.004638,0.385171,6.42,8.28,-12.72,320.1948,0.8603,-1.5037,55.814068,37.50038,210.7,NaN,,10.906001,,0 / 4,,1843,2021-05-02 19:33:34:899
0.023943,-0.155628,9.641745,0.255564,-0.149636,9.802177,-0.00096,-0.007692,0.404108,6.42,8.28,-12.72,320.1948,0.8603,-1.5037,55.814068,37.50038,210.7,NaN,,10.906001,,0 / 4,,1854,2021-05-02 19:33:34:910
0.052674,-0.162811,9.60583,0.255086,-0.149661,9.80219,-0.00096,-0.007692,0.404108,6.18,7.74,-13.44,320.9207,0.8743,-1.4935,55.814068,37.50038,210.7,NaN,,10.906001,,0 / 4,,1863,2021-05-02 19:33:34:919
0.102954,-0.210696,9.636956,0.255086,-0.149661,9.80219,-0.008291,-0.007692,0.41266,6.18,7.74,-13.44,320.9207,0.8743,-1.4935,55.814068,37.50038,210.7,NaN,,10.906001,,0 / 4,,1874,2021-05-02 19:33:34:930
0.193936,-0.225062,9.794978,0.255253,-0.152721,9.802137,-0.010734,-0.018688,0.432208,6.36,8.34,-12.72,320.9207,0.8743,-1.4935,55.814068,37.50038,210.7,NaN,,10.906001,,0 / 4,,1883,2021-05-02 19:33:34:939
0.193936,-0.225062,9.794978,0.255253,-0.152721,9.802137,-0.001571,-0.012579,0.442593,6.36,8.34,-12.72,320.9207,0.8743,-1.4935,55.814068,37.50038,210.7,NaN,,10.906001,,0 / 4,,1893,2021-05-02 19:33:34:949
0.220273,-0.272947,9.828498,0.256799,-0.156537,9.802037,0.00637,-0.005859,0.451756,6.36,9.12,-12.96,324.2413,0.8923,-1.4917,55.814068,37.50038,210.7,NaN,,10.906001,,0 / 4,,1903,2021-05-02 19:33:34:959
0.258582,-0.198725,9.694419,0.256799,-0.156537,9.802037,0.016144,-0.008303,0.456643,6.36,9.12,-12.96,324.2413,0.8923,-1.4917,55.814068,37.50038,210.7,NaN,,10.906001,,0 / 4,,1914,2021-05-02 19:33:34:970
0.258582,-0.126897,9.692024,0.256365,-0.157582,9.802032,0.014922,-0.005249,0.465195,6.36,9.18,-13.92,324.2413,0.8923,-1.4917,55.814068,37.50038,210.7,NaN,,10.906001,,0 / 4,,1923,2021-05-02 19:33:34:979
0.258582,-0.126897,9.692024,0.256365,-0.157582,9.802032,0.010035,-0.001583,0.46886,6.36,9.18,-13.92,324.2413,0.8923,-1.4917,55.814068,37.50038,210.7,NaN,,10.906001,,0 / 4,,1933,2021-05-02 19:33:34:989
0.265765,-0.105348,9.60583,0.25588,-0.156745,9.802058,0.010035,-0.001583,0.46886,6.36,8.58,-13.62,324.0534,0.9207,-1.4982,55.814068,37.50038,210.7,NaN,,10.906001,,0 / 4,,1943,2021-05-02 19:33:34:999
0.287313,-0.117319,9.577099,0.25588,-0.156745,9.802058,-0.003404,-0.011968,0.470692,6.36,8.58,-13.62,324.0534,0.9207,-1.4982,55.814068,37.50038,210.7,NaN,,10.906001,,0 / 4,,1953,2021-05-02 19:33:35:009
0.272947,-0.165205,9.701602,0.255987,-0.159128,9.802016,-0.01501,-0.015022,0.47619,6.36,8.46,-13.32,324.0534,0.9207,-1.4982,55.814068,37.50038,210.7,NaN,,10.906001,,0 / 4,,1964,2021-05-02 19:33:35:020
0.268159,-0.234639,9.792584,0.255987,-0.159128,9.802016,-0.020508,-0.00647,0.48291,6.36,8.46,-13.32,324.0534,0.9207,-1.4982,55.814068,37.50038,210.7,NaN,,10.906001,,0 / 4,,1974,2021-05-02 19:33:35:030
0.268159,-0.265764,9.778218,0.256476,-0.16509,9.801906,-0.012567,-0.007692,0.486575,6.3,8.1,-13.56,320.6992,0.9298,-1.496,55.814068,37.50038,210.7,NaN,,10.906001,,0 / 4,,1984,2021-05-02 19:33:35:040
0.292102,-0.265764,9.778218,0.256476,-0.16509,9.801906,0.005148,-0.007081,0.490851,6.3,8.1,-13.56,320.6992,0.9298,-1.496,55.814068,37.50038,210.7,NaN,,10.906001,,0 / 4,,1993,2021-05-02 19:33:35:049
0.225062,-0.260976,9.778218,0.256578,-0.168912,9.801838,0.011257,0.000249,0.497571,6.18,8.4,-13.8,320.6992,0.9298,-1.496,55.814068,37.50038,210.7,NaN,,10.906001,,0 / 4,,2003,2021-05-02 19:33:35:059
0.203513,-0.241822,9.711179,0.256578,-0.168912,9.801838,0.015533,-0.004638,0.50429,6.18,8.4,-13.8,320.6992,0.9298,-1.496,55.814068,37.50038,210.7,NaN,,10.906001,,0 / 4,,2013,2021-05-02 19:33:35:069
0.177176,-0.234639,9.684841,0.255214,-0.169173,9.801868,0.009424,-0.010135,0.513453,6.24,8.58,-12.9,324.1675,0.9869,-1.4995,55.814068,37.50038,210.7,NaN,,10.906001,,0 / 4,,2023,2021-05-02 19:33:35:079
0.186753,-0.174782,9.63935,0.255214,-0.169173,9.801868,0.002094,-0.008914,0.517118,6.24,8.58,-12.9,324.1675,0.9869,-1.4995,55.814068,37.50038,210.7,NaN,,10.906001,,0 / 4,,2033,2021-05-02 19:33:35:089
0.186753,-0.174782,9.63935,0.255236,-0.169873,9.801856,-0.005236,-0.010746,0.531168,6.18,8.34,-13.26,324.1675,0.9869,-1.4995,55.814068,37.50038,210.7,NaN,,10.906001,,0 / 4,,2043,2021-05-02 19:33:35:099
0.193936,-0.177176,9.617802,0.255236,-0.169873,9.801856,-0.005236,-0.010746,0.531168,6.18,8.34,-13.26,324.1675,0.9869,-1.4995,55.814068,37.50038,210.7,NaN,,10.906001,,0 / 4,,2053,2021-05-02 19:33:35:109
0.198725,-0.181965,9.689631,0.255158,-0.173444,9.801796,-0.00768,-0.008914,0.536666,5.88,9,-14.04,324.0057,0.9925,-1.4916,55.814068,37.50038,210.7,NaN,,10.906001,,0 / 4,,2064,2021-05-02 19:33:35:120
0.265765,-0.208302,9.783007,0.255158,-0.173444,9.801796,-0.006458,-0.016244,0.542164,5.88,9,-14.04,324.0057,0.9925,-1.4916,55.814068,37.50038,210.7,NaN,,10.906001,,0 / 4,,2074,2021-05-02 19:33:35:130
0.272947,-0.24661,9.725544,0.255705,-0.17716,9.801715,0.003316,-0.011357,0.54644,5.82,9.24,-13.02,324.0057,0.9925,-1.4916,55.814068,37.50038,210.7,NaN,,10.906001,,0 / 4,,2083,2021-05-02 19:33:35:139
0.272947,-0.24661,9.725544,0.255705,-0.17716,9.801715,0.00637,-0.005859,0.553159,5.82,9.24,-13.02,324.0057,0.9925,-1.4916,55.814068,37.50038,210.7,NaN,,10.906001,,0 / 4,,2093,2021-05-02 19:33:35:149
0.275342,-0.249005,9.656111,0.255524,-0.179328,9.801681,0.005759,-0.010135,0.557435,6,8.82,-12.78,324.1385,1.0351,-1.4944,55.814068,37.50038,210.7,NaN,,10.906001,,0 / 4,,2104,2021-05-02 19:33:35:160
0.256187,-0.26337,9.703996,0.255524,-0.179328,9.801681,0.000261,-0.010746,0.563544,6,8.82,-12.78,324.1385,1.0351,-1.4944,55.814068,37.50038,210.7,NaN,,10.906001,,0 / 4,,2113,2021-05-02 19:33:35:169
0.225062,-0.253793,9.780613,0.255754,-0.182097,9.801623,0.000261,-0.00647,0.567209,5.58,8.52,-13.92,324.1385,1.0351,-1.4944,55.814068,37.50038,210.7,NaN,,10.906001,,0 / 4,,2123,2021-05-02 19:33:35:179
0.198725,-0.201119,9.725544,0.255754,-0.182097,9.801623,0.003927,-0.005859,0.581259,5.58,8.52,-13.92,324.1385,1.0351,-1.4944,55.814068,37.50038,210.7,NaN,,10.906001,,0 / 4,,2133,2021-05-02 19:33:35:189
0.198725,-0.201119,9.725544,0.255266,-0.184998,9.801581,0.004538,-0.00647,0.587979,4.92,8.46,-13.92,325.2838,1.064,-1.4947,55.814068,37.50038,210.7,NaN,,10.906001,,0 / 4,,2143,2021-05-02 19:33:35:199
0.155628,-0.227456,9.644139,0.255266,-0.184998,9.801581,0.003927,-0.002194,0.593476,4.92,8.46,-13.92,325.2838,1.064,-1.4947,55.814068,37.50038,210.7,NaN,,10.906001,,0 / 4,,2153,2021-05-02 19:33:35:209
0.162811,-0.220273,9.627379,0.254301,-0.187129,9.801566,0.005759,-0.005859,0.602028,5.58,8.58,-13.26,325.2838,1.064,-1.4947,55.814068,37.50038,210.7,NaN,,10.906001,,0 / 4,,2164,2021-05-02 19:33:35:220
0.162811,-0.232245,9.694419,0.254301,-0.187129,9.801566,0.000261,-0.015022,0.611191,5.58,8.58,-13.26,325.2838,1.064,-1.4947,55.814068,37.50038,210.7,NaN,,10.906001,,0 / 4,,2173,2021-05-02 19:33:35:229
0.205908,-0.265764,9.732727,0.253983,-0.189495,9.801529,-0.002793,-0.013801,0.616078,6.24,8.88,-13.68,323.9345,1.0934,-1.4862,55.814068,37.50038,210.7,NaN,,10.906001,,0 / 4,,2183,2021-05-02 19:33:35:239
0.205908,-0.265764,9.732727,0.253983,-0.189495,9.801529,-0.00768,-0.017466,0.625852,6.24,8.88,-13.68,323.9345,1.0934,-1.4862,55.814068,37.50038,210.7,NaN,,10.906001,,0 / 4,,2193,2021-05-02 19:33:35:249
0.249005,-0.308861,9.699207,0.254227,-0.193337,9.801448,-0.004015,-0.016855,0.627685,5.7,8.16,-13.86,323.9345,1.0934,-1.4862,55.814068,37.50038,210.7,NaN,,10.906001,,0 / 4,,2203,2021-05-02 19:33:35:259
0.249005,-0.308861,9.699207,0.254227,-0.193337,9.801448,-0.004015,-0.016855,0.627685,5.7,8.16,-13.86,323.9345,1.0934,-1.4862,55.814068,37.50038,210.7,NaN,,10.906001,,0 / 4,,2213,2021-05-02 19:33:35:269
0.320833,-0.275342,9.792584,0.254841,-0.197769,9.801343,0.003927,-0.010135,0.634404,5.1,7.26,-13.26,321.6554,1.1297,-1.4858,55.814068,37.50038,210.7,NaN,,10.906001,,0 / 4,,2223,2021-05-02 19:33:35:279
0.301679,-0.220273,9.694419,0.254841,-0.197769,9.801343,0.0137,-0.001583,0.641124,5.1,7.26,-13.26,321.6554,1.1297,-1.4858,55.814068,37.50038,210.7,NaN,,10.906001,,0 / 4,,2233,2021-05-02 19:33:35:289
0.28013,-0.244216,9.593859,0.2532,-0.19936,9.801353,0.010646,-0.005249,0.641735,4.98,7.56,-12.84,321.6554,1.1297,-1.4858,55.814068,37.50038,210.7,NaN,,10.906001,,0 / 4,,2243,2021-05-02 19:33:35:299
0.21309,-0.268159,9.653716,0.2532,-0.19936,9.801353,0.003927,-0.001583,0.648454,4.98,7.56,-12.84,321.6554,1.1297,-1.4858,55.814068,37.50038,210.7,NaN,,10.906001,,0 / 4,,2254,2021-05-02 19:33:35:310
0.21309,-0.268159,9.653716,0.25123,-0.200947,9.801372,-0.005847,-0.003416,0.657006,5.16,8.34,-13.62,325.216,1.1649,-1.4798,55.814068,37.50038,210.7,NaN,,10.906001,,0 / 4,,2263,2021-05-02 19:33:35:319
0.158022,-0.328016,9.699207,0.249951,-0.202912,9.801364,-0.005847,-0.009525,0.661282,5.1,8.7,-13.62,325.216,1.1649,-1.4798,55.814068,37.50038,210.7,NaN,,10.906001,,0 / 4,,2273,2021-05-02 19:33:35:329
0.210696,-0.316044,9.775824,0.249951,-0.202912,9.801364,-0.002182,-0.024796,0.665558,5.1,8.7,-13.62,325.216,1.1649,-1.4798,55.814068,37.50038,210.7,NaN,,10.906001,,0 / 4,,2284,2021-05-02 19:33:35:340
0.265765,-0.292102,9.771035,0.250378,-0.207811,9.80125,0.008203,-0.016244,0.668613,4.98,8.28,-13.98,325.216,1.1649,-1.4798,55.814068,37.50038,210.7,NaN,,10.906001,,0 / 4,,2293,2021-05-02 19:33:35:349
0.344776,-0.201119,9.684841,0.250857,-0.209111,9.801211,0.016144,-0.017466,0.664948,5.22,8.22,-13.56,325.1938,1.2142,-1.4633,55.814068,37.50038,210.7,NaN,,10.906001,,0 / 4,,2303,2021-05-02 19:33:35:359
0.344776,-0.201119,9.684841,0.250857,-0.209111,9.801211,0.021031,-0.021131,0.664948,5.22,8.22,-13.56,325.1938,1.2142,-1.4633,55.814068,37.50038,210.7,NaN,,10.906001,,0 / 4,,2313,2021-05-02 19:33:35:369
0.450124,-0.160416,9.598648,0.253332,-0.214498,9.80103,0.009424,-0.009525,0.663726,6,8.28,-13.62,325.1938,1.2142,-1.4633,55.814068,37.50038,210.7,NaN,,10.906001,,0 / 4,,2323,2021-05-02 19:33:35:379
0.486038,-0.169993,9.641745,0.253332,-0.214498,9.80103,0.009424,-0.009525,0.663726,6,8.28,-13.62,325.1938,1.2142,-1.4633,55.814068,37.50038,210.7,NaN,,10.906001,,0 / 4,,2333,2021-05-02 19:33:35:389
0.464489,-0.203513,9.644139,0.265758,-0.220296,9.800573,-0.002793,0.000249,0.660672,5.76,8.34,-14.22,320.4284,1.2533,-1.4806,55.814068,37.50038,210.7,NaN,,10.906001,,0 / 4,,2343,2021-05-02 19:33:35:399
0.385478,-0.268159,9.665688,0.265758,-0.220296,9.800573,-0.013178,-0.005859,0.663726,5.76,8.34,-14.22,320.4284,1.2533,-1.4806,55.814068,37.50038,210.7,NaN,,10.906001,,0 / 4,,2353,2021-05-02 19:33:35:409
0.335198,-0.34717,9.725544,0.281937,-0.227221,9.799963,-0.018065,-0.008914,0.660672,5.16,7.68,-14.1,320.4284,1.2533,-1.4806,55.814068,37.50038,210.7,NaN,,10.906001,,0 / 4,,2363,2021-05-02 19:33:35:419
0.335198,-0.34717,9.725544,0.281937,-0.227221,9.799963,-0.010123,-0.002194,0.658839,5.16,7.68,-14.1,320.4284,1.2533,-1.4806,55.814068,37.50038,210.7,NaN,,10.906001,,0 / 4,,2373,2021-05-02 19:33:35:429
0.22985,-0.38069,9.818921,0.294,-0.238002,9.799353,0.003927,-0.004638,0.661282,5.76,7.44,-14.34,316.2167,1.3277,-1.6479,55.814068,37.50038,210.7,NaN,,10.906001,,0 / 4,,2384,2021-05-02 19:33:35:440
0.249005,-0.339987,9.828498,0.294,-0.238002,9.799353,0.018587,-0.013801,0.65945,5.76,7.44,-14.34,316.2167,1.3277,-1.6479,55.814068,37.50038,210.7,NaN,,10.906001,,0 / 4,,2393,2021-05-02 19:33:35:449
0.33041,-0.249005,9.720756,0.297404,-0.249608,9.798961,0.02714,-0.021742,0.657617,6.06,8.1,-14.7,316.2167,1.3277,-1.6479,55.814068,37.50038,210.7,NaN,,10.906001,,0 / 4,,2404,2021-05-02 19:33:35:460
0.33041,-0.249005,9.720756,0.297404,-0.249608,9.798961,0.021031,-0.017466,0.650898,6.06,8.1,-14.7,316.2167,1.3277,-1.6479,55.814068,37.50038,210.7,NaN,,10.906001,,0 / 4,,2414,2021-05-02 19:33:35:470
0.457306,-0.112531,9.517242,0.301212,-0.25564,9.798689,0.021031,-0.017466,0.650898,6.06,8.34,-14.1,319.9723,1.4585,-1.7384,55.814068,37.50038,210.7,NaN,,10.906001,,0 / 4,,2423,2021-05-02 19:33:35:479
0.574626,-0.098165,9.512454,0.301212,-0.25564,9.798689,0.003316,-0.021131,0.649065,6.06,8.34,-14.1,319.9723,1.4585,-1.7384,55.814068,37.50038,210.7,NaN,,10.906001,,0 / 4,,2433,2021-05-02 19:33:35:489
0.574626,-0.098165,9.512454,0.312379,-0.25489,9.798359,-0.011345,-0.022353,0.63868,5.46,8.16,-13.86,319.9723,1.4585,-1.7384,55.814068,37.50038,210.7,NaN,,10.906001,,0 / 4,,2443,2021-05-02 19:33:35:499
0.605752,-0.201119,9.692024,0.312379,-0.25489,9.798359,-0.021119,-0.008303,0.626463,5.46,8.16,-13.86,319.9723,1.4585,-1.7384,55.814068,37.50038,210.7,NaN,,10.906001,,0 / 4,,2453,2021-05-02 19:33:35:509
0.569837,-0.325621,9.802161,0.334256,-0.254278,9.797652,-0.023562,-0.001583,0.615468,4.62,8.28,-13.86,324.5218,1.4894,-1.826,55.814068,37.50038,210.7,NaN,,10.906001,,0 / 4,,2463,2021-05-02 19:33:35:519
0.514769,-0.378295,9.866806,0.334256,-0.254278,9.797652,-0.01501,-0.008303,0.606915,4.62,8.28,-13.86,324.5218,1.4894,-1.826,55.814068,37.50038,210.7,NaN,,10.906001,,0 / 4,,2473,2021-05-02 19:33:35:529
0.447729,-0.339987,9.859624,0.358501,-0.259212,9.796666,0.004538,-0.007692,0.595309,4.74,8.1,-13.5,324.5218,1.4894,-1.826,55.814068,37.50038,210.7,NaN,,10.906001,,0 / 4,,2484,2021-05-02 19:33:35:540
0.447729,-0.339987,9.859624,0.358501,-0.259212,9.796666,0.023474,-0.004638,0.584313,4.74,8.1,-13.5,324.5218,1.4894,-1.826,55.814068,37.50038,210.7,NaN,,10.906001,,0 / 4,,2493,2021-05-02 19:33:35:549
0.33041,-0.277736,9.742304,0.378202,-0.264693,9.795779,0.026529,-0.008914,0.580648,5.16,7.86,-13.5,324.4544,1.5146,-2.0958,55.814068,37.50038,210.7,NaN,,10.906001,,0 / 4,,2504,2021-05-02 19:33:35:560
0.335198,-0.205908,9.598648,0.378202,-0.264693,9.795779,0.017977,-0.011357,0.578205,5.16,7.86,-13.5,324.4544,1.5146,-2.0958,55.814068,37.50038,210.7,NaN,,10.906001,,0 / 4,,2513,2021-05-02 19:33:35:569
0.351958,-0.158022,9.543579,0.387573,-0.266651,9.79536,0.002094,-0.00647,0.578205,4.92,7.62,-13.08,324.4544,1.5146,-2.0958,55.814068,37.50038,210.7,NaN,,10.906001,,0 / 4,,2524,2021-05-02 19:33:35:580
0.407027,-0.201119,9.593859,0.387573,-0.266651,9.79536,-0.009512,-0.011357,0.571485,4.92,7.62,-13.08,324.4544,1.5146,-2.0958,55.814068,37.50038,210.7,NaN,,10.906001,,0 / 4,,2534,2021-05-02 19:33:35:590
0.407027,-0.201119,9.593859,0.388955,-0.268917,9.795243,-0.009512,-0.011357,0.571485,4.2,7.44,-13.26,325.8441,1.5581,-2.2658,55.814068,37.50038,210.7,NaN,,10.906001,,0 / 4,,2543,2021-05-02 19:33:35:599
0.457306,-0.237033,9.751882,0.388955,-0.268917,9.795243,-0.018675,-0.024185,0.561711,4.2,7.44,-13.26,325.8441,1.5581,-2.2658,55.814068,37.50038,210.7,NaN,,10.906001,,0 / 4,,2553,2021-05-02 19:33:35:609
0.517163,-0.234639,9.828498,0.389637,-0.276491,9.795005,-0.010123,-0.016244,0.556824,4.2,7.8,-13.5,325.8441,1.5581,-2.2658,55.814068,37.50038,210.7,NaN,,10.906001,,0 / 4,,2563,2021-05-02 19:33:35:619
0.538712,-0.265764,9.768641,0.389637,-0.276491,9.795005,-0.000349,-0.009525,0.551327,4.2,7.8,-13.5,325.8441,1.5581,-2.2658,55.814068,37.50038,210.7,NaN,,10.906001,,0 / 4,,2573,2021-05-02 19:33:35:629
0.538712,-0.265764,9.768641,0.38917,-0.281752,9.794874,0.010035,-0.008303,0.544607,4.62,7.44,-13.38,320.2848,1.6156,-2.278,55.814068,37.50038,210.7,NaN,,10.906001,,0 / 4,,2583,2021-05-02 19:33:35:639
0.52674,-0.28013,9.634562,0.38917,-0.281752,9.794874,0.012479,-0.003416,0.538498,4.62,7.44,-13.38,320.2848,1.6156,-2.278,55.814068,37.50038,210.7,NaN,,10.906001,,0 / 4,,2593,2021-05-02 19:33:35:649
0.418998,-0.301679,9.699207,0.38743,-0.283694,9.794887,0.005759,0.006969,0.528114,5.4,6.6,-13.98,320.2848,1.6156,-2.278,55.814068,37.50038,210.7,NaN,,10.906001,,0 / 4,,2604,2021-05-02 19:33:35:660
0.339987,-0.323227,9.732727,0.38743,-0.283694,9.794887,-0.00096,0.003304,0.526281,5.4,6.6,-13.98,320.2848,1.6156,-2.278,55.814068,37.50038,210.7,NaN,,10.906001,,0 / 4,,2615,2021-05-02 19:33:35:671
0.337593,-0.289707,9.761458,0.383224,-0.286555,9.794969,-0.004015,-0.012579,0.518951,5.34,7.02,-14.52,319.6095,1.6577,-2.2651,55.814068,37.50038,210.7,NaN,,10.906001,,0 / 4,,2623,2021-05-02 19:33:35:679
0.337593,-0.289707,9.761458,0.383224,-0.286555,9.794969,0.002705,-0.01319,0.513453,5.34,7.02,-14.52,319.6095,1.6577,-2.2651,55.814068,37.50038,210.7,NaN,,10.906001,,0 / 4,,2633,2021-05-02 19:33:35:689
0.349564,-0.239427,9.70639,0.382492,-0.290804,9.794872,0.007592,-0.012579,0.51101,5.1,7.74,-14.4,319.6095,1.6577,-2.2651,55.814068,37.50038,210.7,NaN,,10.906001,,0 / 4,,2644,2021-05-02 19:33:35:700
0.387873,-0.177176,9.677659,0.382492,-0.290804,9.794872,0.014311,-0.017466,0.506123,5.22,7.56,-14.64,319.6095,1.6577,-2.2651,55.814068,37.50038,210.7,NaN,,10.906001,,0 / 4,,2654,2021-05-02 19:33:35:710
0.462095,-0.162811,9.646533,0.384723,-0.289319,9.794828,0.014311,-0.017466,0.506123,5.22,7.56,-14.64,319.6095,1.6577,-2.2651,55.814068,37.50038,210.7,NaN,,10.906001,,0 / 4,,2663,2021-05-02 19:33:35:719
0.459701,-0.181965,9.608225,0.384723,-0.289319,9.794828,0.011257,-0.008914,0.499403,3.96,7.44,-14.7,325.0428,1.6906,-2.2493,55.814068,37.50038,210.7,NaN,,10.906001,,0 / 4,,2674,2021-05-02 19:33:35:730
0.459701,-0.181965,9.608225,0.390407,-0.28061,9.794857,0.000261,0.00086,0.49696,3.96,7.44,-14.7,325.0428,1.6906,-2.2493,55.814068,37.50038,210.7,NaN,,10.906001,,0 / 4,,2683,2021-05-02 19:33:35:739
0.418998,-0.210696,9.636956,0.392708,-0.276632,9.794878,-0.010123,-0.004027,0.496349,3.9,7.56,-15.12,325.0428,1.6906,-2.2493,55.814068,37.50038,210.7,NaN,,10.906001,,0 / 4,,2693,2021-05-02 19:33:35:749
0.332804,-0.260976,9.718362,0.392708,-0.276632,9.794878,-0.015621,-0.009525,0.489018,3.9,7.56,-15.12,325.0428,1.6906,-2.2493,55.814068,37.50038,210.7,NaN,,10.906001,,0 / 4,,2704,2021-05-02 19:33:35:760
0.332804,-0.260976,9.718362,0.396807,-0.27165,9.794853,-0.010734,-0.005859,0.486575,4.08,7.86,-14.4,329.0717,1.6164,-2.2959,55.814068,37.50038,210.7,NaN,,10.906001,,0 / 4,,2714,2021-05-02 19:33:35:770
0.277736,-0.28013,9.744699,0.39602,-0.270908,9.794906,-0.001571,-0.008303,0.485964,3.84,8.04,-13.8,329.0717,1.6164,-2.2959,55.814068,37.50038,210.7,NaN,,10.906001,,0 / 4,,2724,2021-05-02 19:33:35:780
0.244216,-0.287313,9.725544,0.39602,-0.270908,9.794906,0.00637,-0.010746,0.49024,3.84,8.04,-13.8,329.0717,1.6164,-2.2959,55.814068,37.50038,210.7,NaN,,10.906001,,0 / 4,,2733,2021-05-02 19:33:35:789
0.268159,-0.275342,9.675264,0.38981,-0.269205,9.795201,0.008203,-0.004027,0.494516,3.54,7.8,-13.62,329.0717,1.6164,-2.2959,55.814068,37.50038,210.7,NaN,,10.906001,,0 / 4,,2743,2021-05-02 19:33:35:799
0.306467,-0.282524,9.648928,0.38981,-0.269205,9.795201,0.008203,-0.004027,0.494516,3.54,7.8,-13.62,329.0717,1.6164,-2.2959,55.814068,37.50038,210.7,NaN,,10.906001,,0 / 4,,2753,2021-05-02 19:33:35:809
0.306467,-0.282524,9.648928,0.37898,-0.268524,9.795645,0.001483,-0.004638,0.492073,4.44,7.02,-13.62,325.4688,1.573,-2.2789,55.814068,37.50038,210.7,NaN,,10.906001,,0 / 4,,2764,2021-05-02 19:33:35:820
0.337593,-0.320833,9.665688,0.37898,-0.268524,9.795645,-0.007069,-0.012579,0.497571,4.44,7.02,-13.62,325.4688,1.573,-2.2789,55.814068,37.50038,210.7,NaN,,10.906001,,0 / 4,,2774,2021-05-02 19:33:35:830
0.366324,-0.356747,9.809344,0.370328,-0.272771,9.795858,-0.013788,-0.011968,0.492073,5.58,6.9,-13.74,325.4688,1.573,-2.2789,55.814068,37.50038,210.7,NaN,,10.906001,,0 / 4,,2783,2021-05-02 19:33:35:839
0.332804,-0.349564,9.830893,0.370328,-0.272771,9.795858,-0.000349,-0.008303,0.494516,5.58,6.9,-13.74,325.4688,1.573,-2.2789,55.814068,37.50038,210.7,NaN,,10.906001,,0 / 4,,2793,2021-05-02 19:33:35:849
0.31365,-0.251399,9.759064,0.364349,-0.280628,9.79586,0.005759,-0.010135,0.494516,5.1,6.9,-14.1,320.1222,1.5939,-2.165,55.814068,37.50038,210.7,NaN,,10.906001,,0 / 4,,2803,2021-05-02 19:33:35:859
0.31365,-0.251399,9.759064,0.364349,-0.280628,9.79586,0.023474,-0.002194,0.499403,5.1,6.9,-14.1,320.1222,1.5939,-2.165,55.814068,37.50038,210.7,NaN,,10.906001,,0 / 4,,2814,2021-05-02 19:33:35:870
0.306467,-0.208302,9.636956,0.358944,-0.284439,9.795951,0.017977,0.004525,0.496349,3.84,6.6,-14.1,320.1222,1.5939,-2.165,55.814068,37.50038,210.7,NaN,,10.906001,,0 / 4,,2823,2021-05-02 19:33:35:879
0.272947,-0.196331,9.555551,0.358944,-0.284439,9.795951,0.01309,0.00086,0.502457,3.84,6.6,-14.1,320.1222,1.5939,-2.165,55.814068,37.50038,210.7,NaN,,10.906001,,0 / 4,,2833,2021-05-02 19:33:35:889
0.249005,-0.196331,9.579494,0.350287,-0.281433,9.79635,-0.006458,-0.008914,0.503068,3.78,6.54,-14.04,325.636,1.6621,-2.0985,55.814068,37.50038,210.7,NaN,,10.906001,,0 / 4,,2843,2021-05-02 19:33:35:899
0.22985,-0.272947,9.670476,0.350287,-0.281433,9.79635,-0.019897,-0.01319,0.503679,3.78,6.54,-14.04,325.636,1.6621,-2.0985,55.814068,37.50038,210.7,NaN,,10.906001,,0 / 4,,2854,2021-05-02 19:33:35:910
0.22985,-0.272947,9.670476,0.341313,-0.279958,9.79671,-0.019897,-0.01319,0.503679,3.66,7.44,-13.44,325.636,1.6621,-2.0985,55.814068,37.50038,210.7,NaN,,10.906001,,0 / 4,,2863,2021-05-02 19:33:35:919
0.256187,-0.349564,9.768641,0.341313,-0.279958,9.79671,-0.02173,-0.016855,0.502457,3.66,7.44,-13.44,325.636,1.6621,-2.0985,55.814068,37.50038,210.7,NaN,,10.906001,,0 / 4,,2874,2021-05-02 19:33:35:930
0.282524,-0.349564,9.830893,0.331837,-0.284181,9.796913,-0.004015,-0.018077,0.509177,3.06,7.8,-13.74,335.429,1.6606,-1.94,55.814068,37.50038,210.7,NaN,,10.906001,,0 / 4,,2883,2021-05-02 19:33:35:939
0.270553,-0.289707,9.787795,0.331837,-0.284181,9.796913,0.0137,-0.007692,0.507955,3.06,7.8,-13.74,335.429,1.6606,-1.94,55.814068,37.50038,210.7,NaN,,10.906001,,0 / 4,,2893,2021-05-02 19:33:35:949
0.277736,-0.239427,9.672871,0.322909,-0.287379,9.797119,0.021642,-0.002194,0.517118,3,7.02,-13.62,335.429,1.6606,-1.94,55.814068,37.50038,210.7,NaN,,10.906001,,0 / 4,,2903,2021-05-02 19:33:35:959
0.277736,-0.239427,9.672871,0.322909,-0.287379,9.797119,0.019198,-0.004027,0.520783,3,7.02,-13.62,335.429,1.6606,-1.94,55.814068,37.50038,210.7,NaN,,10.906001,,0 / 4,,2913,2021-05-02 19:33:35:969
0.272947,-0.186753,9.596253,0.313779,-0.285869,9.79746,0.005759,-0.005859,0.522616,3.42,6.84,-13.02,332.6302,1.6793,-1.8878,55.814068,37.50038,210.7,NaN,,10.906001,,0 / 4,,2923,2021-05-02 19:33:35:979
0.260976,-0.220273,9.593859,0.313779,-0.285869,9.79746,-0.013178,-0.010135,0.524449,3.42,6.84,-13.02,332.6302,1.6793,-1.8878,55.814068,37.50038,210.7,NaN,,10.906001,,0 / 4,,2934,2021-05-02 19:33:35:990
0.26337,-0.292102,9.658504,0.30647,-0.284038,9.797744,-0.026006,-0.01319,0.527503,3,7.32,-13.8,332.6302,1.6793,-1.8878,55.814068,37.50038,210.7,NaN,,10.906001,,0 / 4,,2943,2021-05-02 19:33:35:999
0.277736,-0.36393,9.787795,0.30647,-0.284038,9.797744,-0.022341,-0.014412,0.531779,3,7.32,-13.8,332.6302,1.6793,-1.8878,55.814068,37.50038,210.7,NaN,,10.906001,,0 / 4,,2953,2021-05-02 19:33:36:009
0.277736,-0.36393,9.787795,0.301439,-0.288392,9.797772,-0.008291,-0.010135,0.536055,3.36,7.26,-14.64,332.1598,1.6597,-1.7916,55.814068,37.50038,210.7,NaN,,10.906001,,0 / 4,,2963,2021-05-02 19:33:36:019
0.24661,-0.416604,9.888355,0.301439,-0.288392,9.797772,0.010646,-0.00647,0.542164,3.36,7.26,-14.64,332.1598,1.6597,-1.7916,55.814068,37.50038,210.7,NaN,,10.906001,,0 / 4,,2974,2021-05-02 19:33:36:030
0.208302,-0.423787,9.826104,0.295819,-0.296089,9.797714,0.010646,-0.00647,0.542164,4.32,6.84,-15.18,332.1598,1.6597,-1.7916,55.814068,37.50038,210.7,NaN,,10.906001,,0 / 4,,2983,2021-05-02 19:33:36:039
0.208302,-0.423787,9.826104,0.295819,-0.296089,9.797714,0.022863,-0.000362,0.54644,4.32,6.84,-15.18,332.1598,1.6597,-1.7916,55.814068,37.50038,210.7,NaN,,10.906001,,0 / 4,,2994,2021-05-02 19:33:36:050
0.179571,-0.328016,9.648928,0.286326,-0.302117,9.797812,0.024696,-0.001583,0.559268,4.2,6.84,-15.06,325.794,1.7302,-1.7294,55.814068,37.50038,210.7,NaN,,10.906001,,0 / 4,,3004,2021-05-02 19:33:36:060
0.167599,-0.241822,9.60583,0.286326,-0.302117,9.797812,0.011868,-0.005859,0.565377,4.2,6.84,-15.06,325.794,1.7302,-1.7294,55.814068,37.50038,210.7,NaN,,10.906001,,0 / 4,,3013,2021-05-02 19:33:36:069
0.21309,-0.268159,9.641745,0.274485,-0.306142,9.798026,0.002094,-0.010746,0.567209,3.96,7.14,-14.88,325.794,1.7302,-1.7294,55.814068,37.50038,210.7,NaN,,10.906001,,0 / 4,,3023,2021-05-02 19:33:36:079
0.21309,-0.268159,9.641745,0.274485,-0.306142,9.798026,-0.008902,-0.018077,0.573929,3.96,7.14,-14.88,325.794,1.7302,-1.7294,55.814068,37.50038,210.7,NaN,,10.906001,,0 / 4,,3034,2021-05-02 19:33:36:090
0.21309,-0.268159,9.641745,0.274485,-0.306142,9.798026,-0.008902,-0.018077,0.573929,3.96,7.14,-14.88,325.794,1.7302,-1.7294,55.814068,37.50038,210.7,NaN,,10.906001,,0 / 4,,3043,2021-05-02 19:33:36:099
0.21309,-0.268159,9.641745,0.274485,-0.306142,9.798026,-0.008902,-0.018077,0.573929,3.96,7.14,-14.88,325.794,1.7302,-1.7294,55.814068,37.50038,210.7,NaN,,10.906001,,0 / 4,,3053,2021-05-02 19:33:36:109
0.217879,-0.289707,9.699207,0.264557,-0.308878,9.798214,-0.011345,-0.018077,0.57454,3.36,6.78,-14.46,332.6738,1.7889,-1.6047,55.814068,37.50038,210.7,NaN,,10.906001,,0 / 4,,3063,2021-05-02 19:33:36:119
0.272947,-0.328016,9.737515,0.264557,-0.308878,9.798214,0.01309,-0.003416,0.592865,3.36,6.78,-14.46,332.6738,1.7889,-1.6047,55.814068,37.50038,210.7,NaN,,10.906001,,0 / 4,,3073,2021-05-02 19:33:36:129
0.244216,-0.318439,9.684841,0.251673,-0.312646,9.798433,0.008203,-0.002805,0.592865,3.18,6.6,-14.58,332.6738,1.7889,-1.6047,55.814068,37.50038,210.7,NaN,,10.906001,,0 / 4,,3083,2021-05-02 19:33:36:139
0.244216,-0.318439,9.684841,0.251673,-0.312646,9.798433,0.004538,-0.007692,0.595309,3.18,6.6,-14.58,332.6738,1.7889,-1.6047,55.814068,37.50038,210.7,NaN,,10.906001,,0 / 4,,3093,2021-05-02 19:33:36:149
0.256187,-0.366324,9.680053,0.247497,-0.313629,9.798509,-0.000349,-0.012579,0.596531,2.94,6.18,-14.1,328.8352,1.827,-1.4713,55.814068,37.50038,210.7,NaN,,10.906001,,0 / 4,,3103,2021-05-02 19:33:36:159
0.277736,-0.371113,9.763853,0.247497,-0.313629,9.798509,-0.005847,-0.014412,0.602639,2.94,6.18,-14.1,328.8352,1.827,-1.4713,55.814068,37.50038,210.7,NaN,,10.906001,,0 / 4,,3113,2021-05-02 19:33:36:169
0.311256,-0.349564,9.778218,0.245946,-0.319245,9.798367,0.000261,-0.011357,0.605083,2.88,6.84,-15.42,328.8352,1.827,-1.4713,55.814068,37.50038,210.7,NaN,,10.906001,,0 / 4,,3124,2021-05-02 19:33:36:180
0.311256,-0.349564,9.778218,0.245946,-0.319245,9.798367,0.007592,-0.013801,0.600807,2.88,6.84,-15.42,328.8352,1.827,-1.4713,55.814068,37.50038,210.7,NaN,,10.906001,,0 / 4,,3133,2021-05-02 19:33:36:189
0.339987,-0.335198,9.735122,0.247011,-0.324942,9.798152,0.007592,-0.013801,0.600807,2.7,7.02,-15.42,332.5953,1.8655,-1.4379,55.814068,37.50038,210.7,NaN,,10.906001,,0 / 4,,3143,2021-05-02 19:33:36:199
0.342381,-0.289707,9.668081,0.247011,-0.324942,9.798152,0.015533,-0.007081,0.598974,2.7,7.02,-15.42,332.5953,1.8655,-1.4379,55.814068,37.50038,210.7,NaN,,10.906001,,0 / 4,,3153,2021-05-02 19:33:36:209
0.342381,-0.289707,9.668081,0.252296,-0.326374,9.79797,0.016144,-0.004027,0.60325,2.22,6.36,-14.04,332.5953,1.8655,-1.4379,55.814068,37.50038,210.7,NaN,,10.906001,,0 / 4,,3163,2021-05-02 19:33:36:219
0.325621,-0.287313,9.63935,0.252296,-0.326374,9.79797,0.011257,-0.002805,0.60325,2.22,6.36,-14.04,332.5953,1.8655,-1.4379,55.814068,37.50038,210.7,NaN,,10.906001,,0 / 4,,3173,2021-05-02 19:33:36:229
0.268159,-0.294496,9.718362,0.258349,-0.325359,9.797846,0.000261,-0.004638,0.602028,2.28,6.3,-14.28,336.9013,1.9072,-1.475,55.814068,37.50038,210.7,NaN,,10.906001,,0 / 4,,3183,2021-05-02 19:33:36:239
0.253793,-0.289707,9.684841,0.258349,-0.325359,9.797846,-0.005236,-0.010135,0.597752,2.28,6.3,-14.28,336.9013,1.9072,-1.475,55.814068,37.50038,210.7,NaN,,10.906001,,0 / 4,,3193,2021-05-02 19:33:36:249
0.26337,-0.292102,9.641745,0.262891,-0.325033,9.797736,-0.005847,-0.011968,0.599585,3.12,6.96,-14.82,336.9013,1.9072,-1.475,55.814068,37.50038,210.7,NaN,,10.906001,,0 / 4,,3203,2021-05-02 19:33:36:259
0.26337,-0.292102,9.641745,0.262891,-0.325033,9.797736,-0.00096,-0.019298,0.600196,3.12,6.96,-14.82,336.9013,1.9072,-1.475,55.814068,37.50038,210.7,NaN,,10.906001,,0 / 4,,3213,2021-05-02 19:33:36:269
0.28013,-0.311256,9.689631,0.266233,-0.324413,9.797666,-0.000349,-0.010746,0.601418,2.46,7.68,-15.48,342.2451,1.8994,-1.537,55.814068,37.50038,210.7,NaN,,10.906001,,0 / 4,,3224,2021-05-02 19:33:36:280
0.299284,-0.344776,9.780613,0.266233,-0.324413,9.797666,0.003316,-0.011357,0.604472,2.46,7.68,-15.48,342.2451,1.8994,-1.537,55.814068,37.50038,210.7,NaN,,10.906001,,0 / 4,,3233,2021-05-02 19:33:36:289
0.33041,-0.373507,9.763853,0.268873,-0.323287,9.797631,0.003316,-0.011357,0.604472,2.22,8.16,-15.6,342.2451,1.8994,-1.537,55.814068,37.50038,210.7,NaN,,10.906001,,0 / 4,,3243,2021-05-02 19:33:36:299
0.33041,-0.373507,9.763853,0.268873,-0.323287,9.797631,0.002094,-0.014412,0.606915,2.22,8.16,-15.6,342.2451,1.8994,-1.537,55.814068,37.50038,210.7,NaN,,10.906001,,0 / 4,,3253,2021-05-02 19:33:36:309
0.294496,-0.38069,9.713573,0.272562,-0.325339,9.797462,0.000872,0.002082,0.616078,2.52,7.56,-15.18,335.5151,1.9012,-1.5935,55.814068,37.50038,210.7,NaN,,10.906001,,0 / 4,,3263,2021-05-02 19:33:36:319
0.225062,-0.342381,9.682447,0.272562,-0.325339,9.797462,0.002705,-0.004638,0.617911,2.52,7.56,-15.18,335.5151,1.9012,-1.5935,55.814068,37.50038,210.7,NaN,,10.906001,,0 / 4,,3274,2021-05-02 19:33:36:330
0.181965,-0.325621,9.725544,0.273287,-0.330561,9.797267,0.006981,-0.009525,0.619744,2.4,6.84,-14.76,335.5151,1.9012,-1.5935,55.814068,37.50038,210.7,NaN,,10.906001,,0 / 4,,3284,2021-05-02 19:33:36:340
0.186753,-0.325621,9.725544,0.273287,-0.330561,9.797267,0.006981,-0.009525,0.619744,2.4,6.84,-14.76,335.5151,1.9012,-1.5935,55.814068,37.50038,210.7,NaN,,10.906001,,0 / 4,,3293,2021-05-02 19:33:36:349
0.186753,-0.325621,9.725544,0.269603,-0.332733,9.797295,0.009424,-0.010135,0.626463,2.46,6.42,-14.64,336.2459,1.9317,-1.5978,55.814068,37.50038,210.7,NaN,,10.906001,,0 / 5,,3303,2021-05-02 19:33:36:359
0.155628,-0.368718,9.677659,0.269603,-0.332733,9.797295,0.007592,-0.00647,0.635626,2.46,6.42,-14.64,336.2459,1.9317,-1.5978,55.814068,37.50038,210.7,NaN,,10.906001,,0 / 5,,3313,2021-05-02 19:33:36:369
0.174782,-0.371113,9.72315,0.261822,-0.335726,9.797404,0.002094,-0.015633,0.636848,3.18,7.08,-14.22,336.2459,1.9317,-1.5978,55.814068,37.50038,210.7,NaN,,10.906001,,0 / 5,,3323,2021-05-02 19:33:36:379
0.239427,-0.34717,9.742304,0.261822,-0.335726,9.797404,-0.000349,-0.011968,0.640513,3.18,7.08,-14.22,336.2459,1.9317,-1.5978,55.814068,37.50038,210.7,NaN,,10.906001,,0 / 5,,3333,2021-05-02 19:33:36:389
0.239427,-0.34717,9.742304,0.253446,-0.34049,9.79746,0.001483,-0.008303,0.641124,2.94,8.1,-14.1,335.8395,1.9619,-1.5308,55.814068,37.50038,210.7,NaN,,10.906001,,0 / 5,,3343,2021-05-02 19:33:36:399
0.299284,-0.29689,9.641745,0.253446,-0.34049,9.79746,0.004538,-0.010746,0.642956,2.94,8.1,-14.1,335.8395,1.9619,-1.5308,55.814068,37.50038,210.7,NaN,,10.906001,,0 / 5,,3353,2021-05-02 19:33:36:409
0.359141,-0.260976,9.653716,0.247744,-0.342856,9.797523,0.005759,-0.02052,0.635626,2.1,7.8,-14.22,335.8395,1.9619,-1.5308,55.814068,37.50038,210.7,NaN,,10.906001,,0 / 5,,3363,2021-05-02 19:33:36:419
0.426181,-0.29689,9.735122,0.247744,-0.342856,9.797523,0.001483,-0.018077,0.632572,2.1,7.8,-14.22,335.8395,1.9619,-1.5308,55.814068,37.50038,210.7,NaN,,10.906001,,0 / 5,,3373,2021-05-02 19:33:36:429
0.426181,-0.29689,9.735122,0.251568,-0.341124,9.797486,0.001483,-0.018077,0.632572,1.98,7.2,-14.4,340.1208,2.0036,-1.4485,55.814068,37.50038,210.7,NaN,,10.906001,,0 / 5,,3383,2021-05-02 19:33:36:439
0.450124,-0.337593,9.696813,0.251568,-0.341124,9.797486,-0.007069,-0.011968,0.630739,1.98,7.2,-14.4,340.1208,2.0036,-1.4485,55.814068,37.50038,210.7,NaN,,10.906001,,0 / 5,,3393,2021-05-02 19:33:36:449
0.476461,-0.387873,9.713573,0.264304,-0.341373,9.797142,-0.008902,-0.008914,0.623409,1.74,6.78,-15.12,340.1208,2.0036,-1.4485,55.814068,37.50038,210.7,NaN,,10.906001,,0 / 5,,3403,2021-05-02 19:33:36:459
0.416604,-0.466884,9.823709,0.264304,-0.341373,9.797142,-0.005236,-0.002194,0.618522,1.74,6.78,-15.12,340.1208,2.0036,-1.4485,55.814068,37.50038,210.7,NaN,,10.906001,,0 / 5,,3413,2021-05-02 19:33:36:469
0.308861,-0.421392,9.893144,0.281261,-0.346818,9.796478,0.005148,0.004525,0.618522,1.68,6.18,-14.64,336.3011,1.9949,-1.5453,55.814068,37.50038,210.7,NaN,,10.906001,,0 / 5,,3423,2021-05-02 19:33:36:479
0.201119,-0.34717,9.79019,0.281261,-0.346818,9.796478,0.019809,0.001471,0.619133,1.68,6.18,-14.64,336.3011,1.9949,-1.5453,55.814068,37.50038,210.7,NaN,,10.906001,,0 / 5,,3434,2021-05-02 19:33:36:490
0.201119,-0.34717,9.79019,0.291018,-0.352261,9.796,0.02775,-0.002805,0.616078,2.64,6.9,-14.58,336.3011,1.9949,-1.5453,55.814068,37.50038,210.7,NaN,,10.906001,,0 / 5,,3443,2021-05-02 19:33:36:499
0.136474,-0.244216,9.586677,0.291018,-0.352261,9.796,0.025307,-0.00647,0.619744,2.64,6.9,-14.58,336.3011,1.9949,-1.5453,55.814068,37.50038,210.7,NaN,,10.906001,,0 / 5,,3453,2021-05-02 19:33:36:509
0.160416,-0.251399,9.471751,0.289999,-0.351073,9.796073,0.006981,-0.017466,0.619744,3.72,7.8,-15.12,329.236,2.0516,-1.6957,55.814068,37.50038,210.7,NaN,,10.906001,,0 / 5,,3463,2021-05-02 19:33:36:519
0.265765,-0.253793,9.584282,0.289999,-0.351073,9.796073,-0.010123,-0.023575,0.621576,3.72,7.8,-15.12,329.236,2.0516,-1.6957,55.814068,37.50038,210.7,NaN,,10.906001,,0 / 5,,3473,2021-05-02 19:33:36:529
0.265765,-0.253793,9.584282,0.285051,-0.347775,9.796335,-0.010123,-0.023575,0.621576,3.36,7.44,-14.76,329.236,2.0516,-1.6957,55.814068,37.50038,210.7,NaN,,10.906001,,0 / 5,,3483,2021-05-02 19:33:36:539
0.344776,-0.328016,9.737515,0.285051,-0.347775,9.796335,-0.023562,-0.021742,0.615468,3.36,7.44,-14.76,329.236,2.0516,-1.6957,55.814068,37.50038,210.7,NaN,,10.906001,,0 / 5,,3493,2021-05-02 19:33:36:549
0.464489,-0.39745,9.840469,0.284597,-0.349003,9.796305,-0.018675,-0.019298,0.607526,2.88,7.8,-14.82,335.2944,2.0323,-1.6667,55.814068,37.50038,210.7,NaN,,10.906001,,0 / 5,,3503,2021-05-02 19:33:36:559
0.464489,-0.39745,9.840469,0.284597,-0.349003,9.796305,0.00637,-0.007081,0.601418,2.88,7.8,-14.82,335.2944,2.0323,-1.6667,55.814068,37.50038,210.7,NaN,,10.906001,,0 / 5,,3513,2021-05-02 19:33:36:569
0.486038,-0.407027,9.804555,0.292665,-0.352154,9.795955,0.00637,-0.007081,0.601418,2.7,7.74,-15.3,335.2944,2.0323,-1.6667,55.814068,37.50038,210.7,NaN,,10.906001,,0 / 5,,3524,2021-05-02 19:33:36:580
0.486038,-0.407027,9.804555,0.292665,-0.352154,9.795955,0.021642,0.006969,0.597752,2.7,7.74,-15.3,335.2944,2.0323,-1.6667,55.814068,37.50038,210.7,NaN,,10.906001,,0 / 5,,3533,2021-05-02 19:33:36:589
0.375901,-0.373507,9.70639,0.303482,-0.353197,9.795588,0.026529,0.010634,0.594698,2.34,7.56,-14.94,341.8361,2.0579,-1.7113,55.814068,37.50038,210.7,NaN,,10.906001,,0 / 5,,3543,2021-05-02 19:33:36:599
0.253793,-0.323227,9.672871,0.303482,-0.353197,9.795588,0.015533,-0.000972,0.592255,2.34,7.56,-14.94,341.8361,2.0579,-1.7113,55.814068,37.50038,210.7,NaN,,10.906001,,0 / 5,,3553,2021-05-02 19:33:36:609
0.24661,-0.332804,9.684841,0.310076,-0.353438,9.795372,-0.002793,-0.002805,0.584924,2.4,7.62,-14.34,341.8361,2.0579,-1.7113,55.814068,37.50038,210.7,NaN,,10.906001,,0 / 5,,3564,2021-05-02 19:33:36:620
0.205908,-0.342381,9.672871,0.310076,-0.353438,9.795372,-0.007069,-0.008303,0.583092,2.4,7.62,-14.34,341.8361,2.0579,-1.7113,55.814068,37.50038,210.7,NaN,,10.906001,,0 / 5,,3573,2021-05-02 19:33:36:629
0.205908,-0.342381,9.672871,0.310282,-0.356328,9.795261,-0.009512,-0.021131,0.583092,2.52,7.32,-14.76,331.7308,2.0654,-1.8131,55.814068,37.50038,210.7,NaN,,10.906001,,0 / 5,,3583,2021-05-02 19:33:36:639
0.258582,-0.335198,9.684841,0.310282,-0.356328,9.795261,0.001483,-0.022964,0.580648,2.52,7.32,-14.76,331.7308,2.0654,-1.8131,55.814068,37.50038,210.7,NaN,,10.906001,,0 / 5,,3593,2021-05-02 19:33:36:649
0.339987,-0.318439,9.799767,0.308299,-0.359613,9.795203,0.011257,-0.013801,0.578816,2.1,7.44,-15.36,331.7308,2.0654,-1.8131,55.814068,37.50038,210.7,NaN,,10.906001,,0 / 5,,3603,2021-05-02 19:33:36:659
0.373507,-0.272947,9.742304,0.308299,-0.359613,9.795203,0.016755,-0.00647,0.578816,2.1,7.44,-15.36,331.7308,2.0654,-1.8131,55.814068,37.50038,210.7,NaN,,10.906001,,0 / 5,,3613,2021-05-02 19:33:36:669
0.392661,-0.275342,9.579494,0.306664,-0.356833,9.795357,0.012479,-0.004027,0.576983,2.34,7.32,-15.18,339.0325,2.1015,-1.8028,55.814068,37.50038,210.7,NaN,,10.906001,,0 / 5,,3624,2021-05-02 19:33:36:680
0.392661,-0.275342,9.579494,0.306664,-0.356833,9.795357,-0.005236,-0.000362,0.573318,2.34,7.32,-15.18,339.0325,2.1015,-1.8028,55.814068,37.50038,210.7,NaN,,10.906001,,0 / 5,,3633,2021-05-02 19:33:36:689
0.34717,-0.301679,9.569917,0.308622,-0.351417,9.795491,-0.01501,0.002693,0.572096,2.28,7.08,-15,339.0325,2.1015,-1.8028,55.814068,37.50038,210.7,NaN,,10.906001,,0 / 5,,3643,2021-05-02 19:33:36:699
0.311256,-0.356747,9.72315,0.308622,-0.351417,9.795491,-0.018065,-0.005249,0.568431,2.28,7.08,-15,339.0325,2.1015,-1.8028,55.814068,37.50038,210.7,NaN,,10.906001,,0 / 5,,3653,2021-05-02 19:33:36:709
0.277736,-0.409421,9.826104,0.309873,-0.351253,9.795458,-0.018065,-0.005249,0.568431,1.56,7.14,-14.7,339.0664,2.0536,-1.8046,55.814068,37.50038,210.7,NaN,,10.906001,,0 / 5,,3663,2021-05-02 19:33:36:719
0.292102,-0.411815,9.818921,0.309873,-0.351253,9.795458,0.004538,-0.014412,0.556214,1.56,7.14,-14.7,339.0664,2.0536,-1.8046,55.814068,37.50038,210.7,NaN,,10.906001,,0 / 5,,3673,2021-05-02 19:33:36:729
0.292102,-0.411815,9.818921,0.310766,-0.355132,9.795289,0.004538,-0.014412,0.556214,1.44,7.38,-14.46,339.0664,2.0536,-1.8046,55.814068,37.50038,210.7,NaN,,10.906001,,0 / 5,,3683,2021-05-02 19:33:36:739
0.366324,-0.351958,9.737515,0.310766,-0.355132,9.795289,0.014311,-0.012579,0.547051,1.44,7.38,-14.46,339.0664,2.0536,-1.8046,55.814068,37.50038,210.7,NaN,,10.906001,,0 / 5,,3693,2021-05-02 19:33:36:749
0.435758,-0.282524,9.701602,0.311431,-0.355678,9.795248,0.022253,-0.012579,0.542775,1.5,6.96,-14.94,339.0241,2.0753,-1.8172,55.814068,37.50038,210.7,NaN,,10.906001,,0 / 5,,3703,2021-05-02 19:33:36:759
0.445335,-0.253793,9.632168,0.311431,-0.355678,9.795248,0.018587,-0.004638,0.536055,1.5,6.96,-14.94,339.0241,2.0753,-1.8172,55.814068,37.50038,210.7,NaN,,10.906001,,0 / 5,,3714,2021-05-02 19:33:36:770
0.407027,-0.253793,9.581888,0.317493,-0.351263,9.795213,0.005759,0.001471,0.53239,1.02,6.72,-14.88,339.0241,2.0753,-1.8172,55.814068,37.50038,210.7,NaN,,10.906001,,0 / 5,,3723,2021-05-02 19:33:36:779
0.407027,-0.253793,9.581888,0.317493,-0.351263,9.795213,-0.016843,-0.004638,0.522005,1.02,6.72,-14.88,339.0241,2.0753,-1.8172,55.814068,37.50038,210.7,NaN,,10.906001,,0 / 5,,3733,2021-05-02 19:33:36:789
0.29689,-0.265764,9.627379,0.325011,-0.34666,9.795131,-0.021119,-0.005249,0.519562,1.08,7.56,-14.46,349.0282,2.0527,-1.8565,55.814068,37.50038,210.7,NaN,,10.906001,,0 / 5,,3743,2021-05-02 19:33:36:799
0.265765,-0.354353,9.747093,0.325011,-0.34666,9.795131,-0.015621,-0.005859,0.514064,1.08,7.56,-14.46,349.0282,2.0527,-1.8565,55.814068,37.50038,210.7,NaN,,10.906001,,0 / 5,,3754,2021-05-02 19:33:36:810
0.215485,-0.404632,9.826104,0.328616,-0.345351,9.795056,-0.003404,-0.008303,0.51101,1.02,7.44,-14.22,349.0282,2.0527,-1.8565,55.814068,37.50038,210.7,NaN,,10.906001,,0 / 5,,3763,2021-05-02 19:33:36:819
0.210696,-0.450124,9.771035,0.328616,-0.345351,9.795056,0.010035,-0.010746,0.51101,1.02,7.44,-14.22,349.0282,2.0527,-1.8565,55.814068,37.50038,210.7,NaN,,10.906001,,0 / 5,,3774,2021-05-02 19:33:36:830
0.210696,-0.450124,9.771035,0.325039,-0.347231,9.79511,0.010035,-0.010746,0.51101,0.6,7.08,-14.28,347.274,2.0181,-1.9215,55.814068,37.50038,210.7,NaN,,10.906001,,0 / 5,,3783,2021-05-02 19:33:36:839
0.287313,-0.418998,9.747093,0.325039,-0.347231,9.79511,0.01309,-0.015633,0.50429,0.6,7.08,-14.28,347.274,2.0181,-1.9215,55.814068,37.50038,210.7,NaN,,10.906001,,0 / 5,,3793,2021-05-02 19:33:36:849
0.34717,-0.349564,9.816526,0.320171,-0.351414,9.79512,0.014922,-0.015633,0.501236,1.08,7.08,-14.52,347.274,2.0181,-1.9215,55.814068,37.50038,210.7,NaN,,10.906001,,0 / 5,,3803,2021-05-02 19:33:36:859
0.426181,-0.256187,9.668081,0.320171,-0.351414,9.79512,0.01309,-0.011968,0.500014,1.08,7.08,-14.52,347.274,2.0181,-1.9215,55.814068,37.50038,210.7,NaN,,10.906001,,0 / 5,,3813,2021-05-02 19:33:36:869
0.426181,-0.256187,9.668081,0.318834,-0.352984,9.795108,0.006981,-0.016244,0.492684,1.5,7.14,-14.64,338.9307,2.0536,-1.8722,55.814068,37.50038,210.7,NaN,,10.906001,,0 / 5,,3823,2021-05-02 19:33:36:879
0.395055,-0.239427,9.548368,0.318834,-0.352984,9.795108,-0.000349,-0.002805,0.487186,1.5,7.14,-14.64,338.9307,2.0536,-1.8722,55.814068,37.50038,210.7,NaN,,10.906001,,0 / 5,,3833,2021-05-02 19:33:36:889
0.339987,-0.256187,9.586677,0.322149,-0.349688,9.795117,-0.006458,0.003914,0.49024,1.08,7.5,-15,338.9307,2.0536,-1.8722,55.814068,37.50038,210.7,NaN,,10.906001,,0 / 5,,3843,2021-05-02 19:33:36:899
0.24661,-0.299284,9.732727,0.322149,-0.349688,9.795117,-0.00768,0.002082,0.487186,1.08,7.5,-15,338.9307,2.0536,-1.8722,55.814068,37.50038,210.7,NaN,,10.906001,,0 / 5,,3853,2021-05-02 19:33:36:909
0.203513,-0.387873,9.775824,0.322607,-0.34576,9.795242,-0.008902,-0.001583,0.481688,0.84,7.2,-15.48,346.9948,2.0435,-1.8837,55.814068,37.50038,210.7,NaN,,10.906001,,0 / 5,,3863,2021-05-02 19:33:36:919
0.203513,-0.387873,9.775824,0.322607,-0.34576,9.795242,-0.005847,-0.005249,0.483521,0.84,7.2,-15.48,346.9948,2.0435,-1.8837,55.814068,37.50038,210.7,NaN,,10.906001,,0 / 5,,3873,2021-05-02 19:33:36:929
0.174782,-0.404632,9.737515,0.317391,-0.344973,9.795441,-0.004015,-0.013801,0.481077,1.02,7.44,-14.88,346.9948,2.0435,-1.8837,55.814068,37.50038,210.7,NaN,,10.906001,,0 / 5,,3883,2021-05-02 19:33:36:939
0.21309,-0.404632,9.761458,0.317391,-0.344973,9.795441,0.000872,-0.016244,0.479855,1.02,7.44,-14.88,346.9948,2.0435,-1.8837,55.814068,37.50038,210.7,NaN,,10.906001,,0 / 5,,3894,2021-05-02 19:33:36:950
0.260976,-0.38069,9.759064,0.308087,-0.348192,9.795623,0.007592,-0.011968,0.480466,1.5,7.44,-14.88,339.0875,2.0348,-1.8014,55.814068,37.50038,210.7,NaN,,10.906001,,0 / 5,,3903,2021-05-02 19:33:36:959
0.260976,-0.38069,9.759064,0.308087,-0.348192,9.795623,0.010035,-0.00647,0.482299,1.5,7.44,-14.88,339.0875,2.0348,-1.8014,55.814068,37.50038,210.7,NaN,,10.906001,,0 / 5,,3913,2021-05-02 19:33:36:969
0.301679,-0.328016,9.648928,0.299148,-0.351669,9.795776,0.007592,-0.002805,0.483521,1.56,7.56,-15.9,339.0875,2.0348,-1.8014,55.814068,37.50038,210.7,NaN,,10.906001,,0 / 5,,3923,2021-05-02 19:33:36:979
0.292102,-0.292102,9.680053,0.299148,-0.351669,9.795776,0.007592,-0.002805,0.483521,1.56,7.56,-15.9,339.0875,2.0348,-1.8014,55.814068,37.50038,210.7,NaN,,10.906001,,0 / 5,,3934,2021-05-02 19:33:36:990
0.292102,-0.292102,9.680053,0.291593,-0.352885,9.79596,0.004538,-0.000362,0.482299,1.26,7.56,-15.84,348.6646,2.0551,-1.7492,55.814068,37.50038,210.7,NaN,,10.906001,,0 / 5,,3943,2021-05-02 19:33:36:999
0.28013,-0.320833,9.689631,0.291593,-0.352885,9.79596,-0.003404,-0.002194,0.481688,1.26,7.56,-15.84,348.6646,2.0551,-1.7492,55.814068,37.50038,210.7,NaN,,10.906001,,0 / 5,,3953,2021-05-02 19:33:37:009
0.272947,-0.36393,9.656111,0.285787,-0.352977,9.796127,-0.004015,-0.003416,0.478634,0.84,7.08,-14.76,348.6646,2.0551,-1.7492,55.814068,37.50038,210.7,NaN,,10.906001,,0 / 5,,3963,2021-05-02 19:33:37:019
0.294496,-0.368718,9.684841,0.283639,-0.353681,9.796165,-0.006458,-0.005859,0.474969,0.72,7.02,-14.28,348.6646,2.0551,-1.7492,55.814068,37.50038,210.7,NaN,,10.906001,,0 / 5,,3974,2021-05-02 19:33:37:030
0.371113,-0.368718,9.830893,0.283639,-0.353681,9.796165,-0.003404,-0.009525,0.469471,0.72,7.02,-14.28,348.6646,2.0551,-1.7492,55.814068,37.50038,210.7,NaN,,10.906001,,0 / 5,,3984,2021-05-02 19:33:37:040
0.371113,-0.368718,9.830893,0.282657,-0.356452,9.796093,0.008814,-0.010746,0.459697,0.36,7.32,-15.48,356.1522,2.0668,-1.6585,55.814068,37.50038,210.7,NaN,,10.906001,,0 / 5,,3993,2021-05-02 19:33:37:049
0.371113,-0.342381,9.804555,0.282657,-0.356452,9.796093,0.0137,-0.005249,0.456643,0.36,7.32,-15.48,356.1522,2.0668,-1.6585,55.814068,37.50038,210.7,NaN,,10.906001,,0 / 5,,4003,2021-05-02 19:33:37:059
0.36393,-0.332804,9.634562,0.28609,-0.3566,9.795988,0.0137,-0.005249,0.456643,0.54,7.38,-15.3,356.1522,2.0668,-1.6585,55.814068,37.50038,210.7,NaN,,10.906001,,0 / 5,,4013,2021-05-02 19:33:37:069
0.29689,-0.311256,9.617802,0.28609,-0.3566,9.795988,0.011257,0.005136,0.451145,0.54,7.38,-15.3,356.1522,2.0668,-1.6585,55.814068,37.50038,210.7,NaN,,10.906001,,0 / 5,,4023,2021-05-02 19:33:37:079
0.29689,-0.311256,9.617802,0.289422,-0.354763,9.795957,0.005148,0.00819,0.451756,0.9,7.26,-14.64,347.4386,2.0839,-1.6728,55.814068,37.50038,210.7,NaN,,10.906001,,0 / 5,,4034,2021-05-02 19:33:37:090
0.203513,-0.29689,9.711179,0.289879,-0.353696,9.795981,0.000261,0.010634,0.452366,0.78,7.56,-14.88,347.4386,2.0839,-1.6728,55.814068,37.50038,210.7,NaN,,10.906001,,0 / 5,,4043,2021-05-02 19:33:37:099
0.136474,-0.301679,9.708784,0.289879,-0.353696,9.795981,-0.003404,-0.000362,0.452977,0.78,7.56,-14.88,347.4386,2.0839,-1.6728,55.814068,37.50038,210.7,NaN,,10.906001,,0 / 5,,4053,2021-05-02 19:33:37:109
0.047885,-0.308861,9.727939,0.28405,-0.351006,9.796249,-0.001571,-0.004638,0.452977,0.6,7.8,-15.6,347.4386,2.0839,-1.6728,55.814068,37.50038,210.7,NaN,,10.906001,,0 / 5,,4063,2021-05-02 19:33:37:119
0.045491,-0.332804,9.677659,0.28405,-0.351006,9.796249,-0.00096,-0.008914,0.45481,0.6,7.8,-15.6,347.4386,2.0839,-1.6728,55.814068,37.50038,210.7,NaN,,10.906001,,0 / 5,,4073,2021-05-02 19:33:37:129
0.045491,-0.332804,9.677659,0.269435,-0.348115,9.796765,0.004538,-0.011968,0.461529,0.6,7.38,-14.88,347.4813,2.0512,-1.6609,55.814068,37.50038,210.7,NaN,,10.906001,,0 / 5,,4083,2021-05-02 19:33:37:139
0.110137,-0.342381,9.675264,0.269435,-0.348115,9.796765,0.002705,-0.018688,0.467638,0.6,7.38,-14.88,347.4813,2.0512,-1.6609,55.814068,37.50038,210.7,NaN,,10.906001,,0 / 5,,4093,2021-05-02 19:33:37:149
0.158022,-0.344776,9.725544,0.251494,-0.345637,9.797329,-0.001571,-0.010135,0.470692,0.36,7.2,-14.7,347.4813,2.0512,-1.6609,55.814068,37.50038,210.7,NaN,,10.906001,,0 / 5,,4104,2021-05-02 19:33:37:160
0.210696,-0.344776,9.696813,0.251494,-0.345637,9.797329,-0.004015,-0.008303,0.474358,0.36,7.2,-14.7,347.4813,2.0512,-1.6609,55.814068,37.50038,210.7,NaN,,10.906001,,0 / 5,,4114,2021-05-02 19:33:37:170
0.284919,-0.354353,9.684841,0.235308,-0.345029,9.797753,-0.005847,-0.017466,0.476801,0.9,7.38,-15.72,347.6348,2.0198,-1.4704,55.814068,37.50038,210.7,NaN,,10.906001,,0 / 5,,4124,2021-05-02 19:33:37:180
0.284919,-0.354353,9.684841,0.235308,-0.345029,9.797753,-0.006458,-0.01319,0.474358,0.9,7.38,-15.72,347.6348,2.0198,-1.4704,55.814068,37.50038,210.7,NaN,,10.906001,,0 / 5,,4133,2021-05-02 19:33:37:189
0.304073,-0.342381,9.725544,0.227769,-0.346222,9.79789,-0.003404,-0.004027,0.470082,0.96,6.84,-15.54,347.6348,2.0198,-1.4704,55.814068,37.50038,210.7,NaN,,10.906001,,0 / 5,,4143,2021-05-02 19:33:37:199
0.328016,-0.375901,9.701602,0.227769,-0.346222,9.79789,0.000872,-0.010746,0.465806,0.96,6.84,-15.54,347.6348,2.0198,-1.4704,55.814068,37.50038,210.7,NaN,,10.906001,,0 / 5,,4154,2021-05-02 19:33:37:210
0.328016,-0.375901,9.701602,0.226116,-0.347513,9.797882,0.000872,-0.010746,0.465806,0.42,6.36,-15.24,356.3513,2.0232,-1.3317,55.814068,37.50038,210.7,NaN,,10.906001,,0 / 5,,4163,2021-05-02 19:33:37:219
0.284919,-0.387873,9.79019,0.226116,-0.347513,9.797882,0.003316,-0.011357,0.463973,0.42,6.36,-15.24,356.3513,2.0232,-1.3317,55.814068,37.50038,210.7,NaN,,10.906001,,0 / 5,,4173,2021-05-02 19:33:37:229
0.284919,-0.39745,9.771035,0.229402,-0.3498,9.797724,0.005759,-0.000972,0.463362,0.12,6.9,-15.3,356.3513,2.0232,-1.3317,55.814068,37.50038,210.7,NaN,,10.906001,,0 / 5,,4183,2021-05-02 19:33:37:239
0.26337,-0.354353,9.699207,0.229402,-0.3498,9.797724,0.003927,0.001471,0.462751,0.12,6.9,-15.3,356.3513,2.0232,-1.3317,55.814068,37.50038,210.7,NaN,,10.906001,,0 / 5,,4193,2021-05-02 19:33:37:249
0.26337,-0.354353,9.699207,0.232612,-0.353279,9.797524,0.005148,-0.00647,0.459697,-0.18,7.5,-15.48,357.3053,2.0442,-1.3413,55.814068,37.50038,210.7,NaN,,10.906001,,0 / 5,,4203,2021-05-02 19:33:37:259
0.222668,-0.318439,9.692024,0.232612,-0.353279,9.797524,0.005148,-0.002194,0.462751,-0.18,7.5,-15.48,357.3053,2.0442,-1.3413,55.814068,37.50038,210.7,NaN,,10.906001,,0 / 5,,4214,2021-05-02 19:33:37:270
0.201119,-0.311256,9.677659,0.234817,-0.354995,9.797409,0.002094,-0.000972,0.459086,0,8.04,-15.42,357.3053,2.0442,-1.3413,55.814068,37.50038,210.7,NaN,,10.906001,,0 / 5,,4223,2021-05-02 19:33:37:279
0.146051,-0.294496,9.682447,0.234817,-0.354995,9.797409,0.004538,-0.007081,0.462751,0,8.04,-15.42,357.3053,2.0442,-1.3413,55.814068,37.50038,210.7,NaN,,10.906001,,0 / 5,,4233,2021-05-02 19:33:37:289
0.174782,-0.31365,9.694419,0.23329,-0.354357,9.797468,0.002094,-0.010135,0.466416,0,7.8,-15.3,357.2388,2.0745,-1.373,55.814068,37.50038,210.7,NaN,,10.906001,,0 / 5,,4243,2021-05-02 19:33:37:299
0.174782,-0.31365,9.694419,0.23329,-0.354357,9.797468,-0.002182,-0.010746,0.468249,0,7.8,-15.3,357.2388,2.0745,-1.373,55.814068,37.50038,210.7,NaN,,10.906001,,0 / 5,,4253,2021-05-02 19:33:37:309
0.165205,-0.335198,9.689631,0.229486,-0.35228,9.797633,-0.004015,-0.007692,0.468249,-0.6,6.9,-14.88,357.2388,2.0745,-1.373,55.814068,37.50038,210.7,NaN,,10.906001,,0 / 5,,4263,2021-05-02 19:33:37:319
0.146051,-0.371113,9.699207,0.229486,-0.35228,9.797633,-0.00096,-0.005249,0.475579,-0.6,6.9,-14.88,357.2388,2.0745,-1.373,55.814068,37.50038,210.7,NaN,,10.906001,,0 / 5,,4273,2021-05-02 19:33:37:329
0.090982,-0.404632,9.72315,0.222828,-0.351523,9.797814,-0.004015,0.005136,0.489018,-0.36,7.08,-14.88,356.8862,2.0587,-1.3418,55.814068,37.50038,210.7,NaN,,10.906001,,0 / 5,,4283,2021-05-02 19:33:37:339
0.090982,-0.404632,9.72315,0.222828,-0.351523,9.797814,-0.001571,0.003914,0.498792,-0.36,7.08,-14.88,356.8862,2.0587,-1.3418,55.814068,37.50038,210.7,NaN,,10.906001,,0 / 5,,4293,2021-05-02 19:33:37:349
0.06704,-0.464489,9.701602,0.211218,-0.354255,9.797974,-0.000349,-0.001583,0.503068,0,8.52,-14.82,356.8862,2.0587,-1.3418,55.814068,37.50038,210.7,NaN,,10.906001,,0 / 5,,4303,2021-05-02 19:33:37:359
0.021548,-0.445335,9.80695,0.211218,-0.354255,9.797974,0.003927,-0.000362,0.506123,0,8.52,-14.82,356.8862,2.0587,-1.3418,55.814068,37.50038,210.7,NaN,,10.906001,,0 / 5,,4313,2021-05-02 19:33:37:369
-0.007183,-0.471672,9.783007,0.195574,-0.361395,9.798038,0.010646,-0.004638,0.517118,0.18,8.88,-14.52,357.8096,2.0702,-1.235,55.814068,37.50038,210.7,NaN,,10.906001,,0 / 5,,4323,2021-05-02 19:33:37:379
0.014366,-0.402238,9.651321,0.195574,-0.361395,9.798038,0.01309,-0.015633,0.515286,0.18,8.88,-14.52,357.8096,2.0702,-1.235,55.814068,37.50038,210.7,NaN,,10.906001,,0 / 5,,4333,2021-05-02 19:33:37:389
0.122108,-0.33041,9.58907,0.175698,-0.368688,9.798141,0.0137,-0.024796,0.51834,0.18,7.56,-15.12,357.8096,2.0702,-1.235,55.814068,37.50038,210.7,NaN,,10.906001,,0 / 5,,4344,2021-05-02 19:33:37:400
0.122108,-0.33041,9.58907,0.175698,-0.368688,9.798141,0.010035,-0.021742,0.51834,0.18,7.56,-15.12,357.8096,2.0702,-1.235,55.814068,37.50038,210.7,NaN,,10.906001,,0 / 5,,4353,2021-05-02 19:33:37:409
0.174782,-0.26337,9.732727,0.160835,-0.371695,9.798284,0.005759,-0.018077,0.522005,0,7.5,-15.42,357.9272,2.1546,-1.0273,55.814068,37.50038,210.7,NaN,,10.906001,,0 / 5,,4363,2021-05-02 19:33:37:419
0.33041,-0.29689,9.636956,0.160835,-0.371695,9.798284,0.005759,-0.018077,0.522005,0,7.5,-15.42,357.9272,2.1546,-1.0273,55.814068,37.50038,210.7,NaN,,10.906001,,0 / 5,,4373,2021-05-02 19:33:37:429
0.371113,-0.29689,9.615408,0.153116,-0.369232,9.7985,-0.006458,-0.010135,0.523838,0.42,6.84,-15.06,357.9272,2.1546,-1.0273,55.814068,37.50038,210.7,NaN,,10.906001,,0 / 5,,4383,2021-05-02 19:33:37:439
0.371113,-0.29689,9.615408,0.153116,-0.369232,9.7985,-0.006458,-0.010135,0.523838,0.42,6.84,-15.06,357.9272,2.1546,-1.0273,55.814068,37.50038,210.7,NaN,,10.906001,,0 / 5,,4393,2021-05-02 19:33:37:449
0.323227,-0.368718,9.684841,0.157873,-0.366603,9.798524,-0.010123,0.011245,0.522616,0.48,6.6,-14.58,357.9126,2.1578,-0.8953,55.814068,37.50038,210.7,NaN,,10.906001,,0 / 5,,4403,2021-05-02 19:33:37:459
0.275342,-0.385478,9.814133,0.157873,-0.366603,9.798524,-0.007069,0.00819,0.523838,0.48,6.6,-14.58,357.9126,2.1578,-0.8953,55.814068,37.50038,210.7,NaN,,10.906001,,0 / 5,,4413,2021-05-02 19:33:37:469
0.21309,-0.402238,9.818921,0.16512,-0.366343,9.798413,0.003927,-0.005249,0.522616,-0.12,7.26,-14.4,357.9126,2.1578,-0.8953,55.814068,37.50038,210.7,NaN,,10.906001,,0 / 5,,4423,2021-05-02 19:33:37:479
0.21309,-0.402238,9.818921,0.16512,-0.366343,9.798413,0.006981,0.005136,0.523838,-0.12,7.26,-14.4,357.9126,2.1578,-0.8953,55.814068,37.50038,210.7,NaN,,10.906001,,0 / 5,,4433,2021-05-02 19:33:37:489
0.134079,-0.387873,9.677659,0.17278,-0.366808,9.798265,0.005759,0.003304,0.520783,-0.48,7.38,-14.1,357.9127,2.1409,-0.9654,55.814068,37.50038,210.7,NaN,,10.906001,,0 / 5,,4443,2021-05-02 19:33:37:499
0.112531,-0.383084,9.651321,0.17278,-0.366808,9.798265,0.005148,-0.007692,0.523227,-0.48,7.38,-14.1,357.9127,2.1409,-0.9654,55.814068,37.50038,210.7,NaN,,10.906001,,0 / 5,,4453,2021-05-02 19:33:37:509
0.071828,-0.371113,9.737515,0.173456,-0.368821,9.798177,0.002705,-0.008914,0.528725,-0.84,7.56,-14.22,357.9127,2.1409,-0.9654,55.814068,37.50038,210.7,NaN,,10.906001,,0 / 5,,4463,2021-05-02 19:33:37:519
0.090982,-0.373507,9.732727,0.173456,-0.368821,9.798177,0.001483,0.002693,0.537277,-0.84,7.56,-14.22,357.9127,2.1409,-0.9654,55.814068,37.50038,210.7,NaN,,10.906001,,0 / 5,,4473,2021-05-02 19:33:37:529
0.090982,-0.373507,9.732727,0.169861,-0.371539,9.798137,0.000261,0.003304,0.545218,-0.84,7.26,-14.88,6.5149,2.1554,-1.0142,55.814068,37.50038,210.7,NaN,,10.906001,,0 / 5,,4483,2021-05-02 19:33:37:539
0.047885,-0.335198,9.63935,0.169861,-0.371539,9.798137,0.002094,-0.004638,0.550716,-0.84,7.26,-14.88,6.5149,2.1554,-1.0142,55.814068,37.50038,210.7,NaN,,10.906001,,0 / 5,,4493,2021-05-02 19:33:37:549
0.06704,-0.301679,9.653716,0.160219,-0.373441,9.798227,0.003927,-0.010135,0.558657,-0.48,7.08,-15.42,6.5149,2.1554,-1.0142,55.814068,37.50038,210.7,NaN,,10.906001,,0 / 5,,4504,2021-05-02 19:33:37:560
0.079011,-0.356747,9.715967,0.160219,-0.373441,9.798227,0.001483,-0.005249,0.56049,-0.48,7.08,-15.42,6.5149,2.1554,-1.0142,55.814068,37.50038,210.7,NaN,,10.906001,,0 / 5,,4513,2021-05-02 19:33:37:569
0.079011,-0.356747,9.715967,0.148907,-0.372091,9.798457,0.000872,-0.005249,0.561101,-0.24,7.38,-15.24,357.9685,2.1745,-0.8707,55.814068,37.50038,210.7,NaN,,10.906001,,0 / 5,,4523,2021-05-02 19:33:37:579
0.119714,-0.359141,9.703996,0.148907,-0.372091,9.798457,-0.004015,-0.015633,0.56782,-0.24,7.38,-15.24,357.9685,2.1745,-0.8707,55.814068,37.50038,210.7,NaN,,10.906001,,0 / 5,,4533,2021-05-02 19:33:37:589
0.205908,-0.404632,9.680053,0.139594,-0.371021,9.798635,-0.009512,-0.013801,0.56782,-0.36,7.98,-14.52,357.9685,2.1745,-0.8707,55.814068,37.50038,210.7,NaN,,10.906001,,0 / 5,,4543,2021-05-02 19:33:37:599
0.217879,-0.440547,9.771035,0.139594,-0.371021,9.798635,-0.005236,-0.003416,0.569653,-0.36,7.98,-14.52,357.9685,2.1745,-0.8707,55.814068,37.50038,210.7,NaN,,10.906001,,0 / 5,,4553,2021-05-02 19:33:37:609
0.237033,-0.438152,9.833286,0.137067,-0.373653,9.798571,-0.005236,-0.003416,0.569653,-0.72,7.98,-14.4,6.1212,2.1682,-0.8162,55.814068,37.50038,210.7,NaN,,10.906001,,0 / 5,,4563,2021-05-02 19:33:37:619
0.237033,-0.438152,9.833286,0.137067,-0.373653,9.798571,0.006981,-0.005859,0.565377,-0.72,7.98,-14.4,6.1212,2.1682,-0.8162,55.814068,37.50038,210.7,NaN,,10.906001,,0 / 5,,4573,2021-05-02 19:33:37:629
0.215485,-0.361535,9.73991,0.139096,-0.376902,9.798417,0.011868,-0.004027,0.561101,-0.54,7.38,-14.52,6.1212,2.1682,-0.8162,55.814068,37.50038,210.7,NaN,,10.906001,,0 / 5,,4583,2021-05-02 19:33:37:639
0.198725,-0.325621,9.615408,0.139096,-0.376902,9.798417,0.014922,-0.000362,0.556214,-0.54,7.38,-14.52,6.1212,2.1682,-0.8162,55.814068,37.50038,210.7,NaN,,10.906001,,0 / 5,,4593,2021-05-02 19:33:37:649
0.189148,-0.304073,9.656111,0.143245,-0.376846,9.79836,0.010646,-0.005249,0.556214,-0.72,7.86,-14.7,6.0566,2.2026,-0.8133,55.814068,37.50038,210.7,NaN,,10.906001,,0 / 5,,4603,2021-05-02 19:33:37:659
0.189148,-0.304073,9.656111,0.143245,-0.376846,9.79836,0.002705,-0.015633,0.551327,-0.72,7.86,-14.7,6.0566,2.2026,-0.8133,55.814068,37.50038,210.7,NaN,,10.906001,,0 / 5,,4613,2021-05-02 19:33:37:669
0.232245,-0.289707,9.711179,0.149171,-0.374601,9.798358,-0.005236,-0.016855,0.545829,-1.26,8.82,-14.58,6.0566,2.2026,-0.8133,55.814068,37.50038,210.7,NaN,,10.906001,,0 / 5,,4623,2021-05-02 19:33:37:679
0.308861,-0.323227,9.672871,0.149171,-0.374601,9.798358,-0.008902,-0.013801,0.541553,-1.26,8.82,-14.58,6.0566,2.2026,-0.8133,55.814068,37.50038,210.7,NaN,,10.906001,,0 / 5,,4633,2021-05-02 19:33:37:689
0.316044,-0.344776,9.653716,0.158564,-0.372519,9.798289,-0.008902,-0.009525,0.539109,-1.08,8.34,-14.34,6.0214,2.1892,-0.8722,55.814068,37.50038,210.7,NaN,,10.906001,,0 / 5,,4643,2021-05-02 19:33:37:699
0.320833,-0.404632,9.761458,0.158564,-0.372519,9.798289,-0.006458,-0.007081,0.534833,-1.08,8.34,-14.34,6.0214,2.1892,-0.8722,55.814068,37.50038,210.7,NaN,,10.906001,,0 / 5,,4653,2021-05-02 19:33:37:709
0.320833,-0.404632,9.761458,0.171734,-0.37131,9.798113,-0.000349,-0.000362,0.531779,-1.02,7.98,-13.98,6.0214,2.1892,-0.8722,55.814068,37.50038,210.7,NaN,,10.906001,,0 / 5,,4663,2021-05-02 19:33:37:719
0.304073,-0.404632,9.802161,0.171734,-0.37131,9.798113,-0.000349,-0.000362,0.531779,-1.02,7.98,-13.98,6.0214,2.1892,-0.8722,55.814068,37.50038,210.7,NaN,,10.906001,,0 / 5,,4673,2021-05-02 19:33:37:729
0.258582,-0.39745,9.80695,0.185598,-0.370807,9.79788,0.007592,0.003914,0.525059,-0.96,7.86,-13.98,5.7725,2.1699,-1.0041,55.814068,37.50038,210.7,NaN,,10.906001,,0 / 5,,4683,2021-05-02 19:33:37:739
0.208302,-0.36393,9.715967,0.185598,-0.370807,9.79788,0.008814,0.00086,0.515286,-0.96,7.86,-13.98,5.7725,2.1699,-1.0041,55.814068,37.50038,210.7,NaN,,10.906001,,0 / 5,,4693,2021-05-02 19:33:37:749
0.189148,-0.339987,9.696813,0.196607,-0.37169,9.797631,0.003316,-0.004027,0.510399,-1.5,7.62,-14.64,5.7725,2.1699,-1.0041,55.814068,37.50038,210.7,NaN,,10.906001,,0 / 5,,4703,2021-05-02 19:33:37:759
0.134079,-0.301679,9.636956,0.196607,-0.37169,9.797631,0.002705,-0.002805,0.515897,-1.5,7.62,-14.64,5.7725,2.1699,-1.0041,55.814068,37.50038,210.7,NaN,,10.906001,,0 / 5,,4713,2021-05-02 19:33:37:769
0.134079,-0.301679,9.636956,0.202735,-0.372159,9.797489,-0.00096,-0.000972,0.513453,-1.26,7.68,-15.12,5.3769,2.1721,-1.1496,55.814068,37.50038,210.7,NaN,,10.906001,,0 / 5,,4723,2021-05-02 19:33:37:779
0.122108,-0.292102,9.63935,0.202735,-0.372159,9.797489,-0.001571,-0.004638,0.515286,-1.26,7.68,-15.12,5.3769,2.1721,-1.1496,55.814068,37.50038,210.7,NaN,,10.906001,,0 / 5,,4733,2021-05-02 19:33:37:789
0.10056,-0.354353,9.692024,0.201484,-0.370271,9.797586,-0.005847,-0.005249,0.516507,-1.32,7.56,-15.12,5.3769,2.1721,-1.1496,55.814068,37.50038,210.7,NaN,,10.906001,,0 / 5,,4743,2021-05-02 19:33:37:799
0.110137,-0.373507,9.720756,0.201484,-0.370271,9.797586,-0.009512,-0.002194,0.517118,-1.32,7.56,-15.12,5.3769,2.1721,-1.1496,55.814068,37.50038,210.7,NaN,,10.906001,,0 / 5,,4753,2021-05-02 19:33:37:809
0.110137,-0.445335,9.787795,0.195249,-0.369441,9.797743,-0.006458,-0.008914,0.520173,-1.32,7.68,-14.64,5.3182,2.1638,-1.1781,55.814068,37.50038,210.7,NaN,,10.906001,,0 / 5,,4763,2021-05-02 19:33:37:819
0.110137,-0.445335,9.787795,0.195249,-0.369441,9.797743,-0.00096,-0.004638,0.51834,-1.32,7.68,-14.64,5.3182,2.1638,-1.1781,55.814068,37.50038,210.7,NaN,,10.906001,,0 / 5,,4774,2021-05-02 19:33:37:830
0.112531,-0.474066,9.754275,0.186546,-0.372545,9.797796,0.00637,-0.010135,0.520173,-0.42,7.8,-14.76,5.3182,2.1638,-1.1781,55.814068,37.50038,210.7,NaN,,10.906001,,0 / 5,,4783,2021-05-02 19:33:37:839
0.146051,-0.41421,9.727939,0.186546,-0.372545,9.797796,0.009424,-0.005859,0.519562,-0.42,7.8,-14.76,5.3182,2.1638,-1.1781,55.814068,37.50038,210.7,NaN,,10.906001,,0 / 5,,4793,2021-05-02 19:33:37:849
0.158022,-0.366324,9.715967,0.178207,-0.377185,9.797773,0.01309,-0.005249,0.520783,-0.18,8.16,-14.64,357.7975,2.1771,-1.0908,55.814068,37.50038,210.7,NaN,,10.906001,,0 / 5,,4803,2021-05-02 19:33:37:859
0.122108,-0.366324,9.672871,0.178207,-0.377185,9.797773,0.010646,-0.004027,0.52567,-0.18,8.16,-14.64,357.7975,2.1771,-1.0908,55.814068,37.50038,210.7,NaN,,10.906001,,0 / 5,,4813,2021-05-02 19:33:37:869
0.122108,-0.366324,9.672871,0.169784,-0.379183,9.797846,0.00637,-0.005859,0.52567,-0.36,8.64,-14.04,357.7975,2.1771,-1.0908,55.814068,37.50038,210.7,NaN,,10.906001,,0 / 5,,4823,2021-05-02 19:33:37:879
0.126897,-0.36393,9.651321,0.169784,-0.379183,9.797846,-0.000349,-0.007692,0.524449,-0.36,8.64,-14.04,357.7975,2.1771,-1.0908,55.814068,37.50038,210.7,NaN,,10.906001,,0 / 5,,4833,2021-05-02 19:33:37:889
0.153234,-0.33041,9.711179,0.162579,-0.379992,9.797936,-0.002182,-0.005249,0.522616,-1.5,8.16,-13.92,5.8025,2.2159,-0.9928,55.814068,37.50038,210.7,NaN,,10.906001,,0 / 5,,4843,2021-05-02 19:33:37:899
0.129291,-0.318439,9.744699,0.162579,-0.379992,9.797936,-0.002182,-0.005249,0.522616,-1.5,8.16,-13.92,5.8025,2.2159,-0.9928,55.814068,37.50038,210.7,NaN,,10.906001,,0 / 5,,4853,2021-05-02 19:33:37:909
0.193936,-0.294496,9.656111,0.157199,-0.379153,9.798057,0.002094,-0.007692,0.522616,-1.56,7.92,-14.58,5.8025,2.2159,-0.9928,55.814068,37.50038,210.7,NaN,,10.906001,,0 / 5,,4863,2021-05-02 19:33:37:919
0.193936,-0.294496,9.656111,0.157199,-0.379153,9.798057,0.003927,-0.011968,0.523227,-1.56,7.92,-14.58,5.8025,2.2159,-0.9928,55.814068,37.50038,210.7,NaN,,10.906001,,0 / 5,,4873,2021-05-02 19:33:37:929
0.196331,-0.289707,9.60583,0.155332,-0.374046,9.798283,-0.002793,-0.001583,0.518951,-0.9,7.92,-14.88,5.8475,2.2158,-0.9192,55.814068,37.50038,210.7,NaN,,10.906001,,0 / 5,,4883,2021-05-02 19:33:37:939
0.186753,-0.332804,9.684841,0.155332,-0.374046,9.798283,-0.005847,0.00086,0.518951,-0.9,7.92,-14.88,5.8475,2.2158,-0.9192,55.814068,37.50038,210.7,NaN,,10.906001,,0 / 5,,4893,2021-05-02 19:33:37:949
0.177176,-0.433364,9.80695,0.155319,-0.369904,9.798441,-0.008902,-0.00647,0.516507,-0.84,8.4,-13.98,5.8475,2.2158,-0.9192,55.814068,37.50038,210.7,NaN,,10.906001,,0 / 5,,4903,2021-05-02 19:33:37:959
0.179571,-0.469278,9.759064,0.155319,-0.369904,9.798441,-0.00768,-0.008303,0.512231,-0.84,8.4,-13.98,5.8475,2.2158,-0.9192,55.814068,37.50038,210.7,NaN,,10.906001,,0 / 5,,4913,2021-05-02 19:33:37:969
0.179571,-0.469278,9.759064,0.156575,-0.37139,9.798364,-0.002793,-0.003416,0.513453,-1.26,8.76,-13.86,5.2511,2.1617,-0.9081,55.814068,37.50038,210.7,NaN,,10.906001,,0 / 5,,4923,2021-05-02 19:33:37:979
0.146051,-0.435758,9.768641,0.156575,-0.37139,9.798364,0.003927,-0.000972,0.507955,-1.26,8.76,-13.86,5.2511,2.1617,-0.9081,55.814068,37.50038,210.7,NaN,,10.906001,,0 / 5,,4934,2021-05-02 19:33:37:990
0.122108,-0.409421,9.797373,0.157656,-0.376719,9.798143,0.016144,-0.003416,0.510399,-1.32,8.88,-13.74,5.2511,2.1617,-0.9081,55.814068,37.50038,210.7,NaN,,10.906001,,0 / 5,,4943,2021-05-02 19:33:37:999
0.126897,-0.325621,9.742304,0.157656,-0.376719,9.798143,0.016144,-0.003416,0.510399,-1.32,8.88,-13.74,5.2511,2.1617,-0.9081,55.814068,37.50038,210.7,NaN,,10.906001,,0 / 5,,4953,2021-05-02 19:33:38:009
0.143657,-0.268159,9.557945,0.155958,-0.378168,9.798115,0.023474,-0.005249,0.508566,-0.78,9.42,-13.86,5.2347,2.2015,-0.9218,55.814068,37.50038,210.7,NaN,,10.906001,,0 / 5,,4963,2021-05-02 19:33:38:019
0.143657,-0.268159,9.557945,0.155958,-0.378168,9.798115,0.012479,0.003304,0.509177,-0.78,9.42,-13.86,5.2347,2.2015,-0.9218,55.814068,37.50038,210.7,NaN,,10.906001,,0 / 5,,4973,2021-05-02 19:33:38:029
0.114925,-0.277736,9.567522,0.152026,-0.374802,9.798306,-0.002182,0.001471,0.510399,-0.72,8.82,-14.04,5.2347,2.2015,-0.9218,55.814068,37.50038,210.7,NaN,,10.906001,,0 / 5,,4983,2021-05-02 19:33:38:039
0.079011,-0.316044,9.70639,0.152026,-0.374802,9.798306,-0.006458,-0.004027,0.514064,-0.72,8.82,-14.04,5.2347,2.2015,-0.9218,55.814068,37.50038,210.7,NaN,,10.906001,,0 / 5,,4993,2021-05-02 19:33:38:049
0.079011,-0.316044,9.70639,0.146617,-0.371666,9.798508,-0.014399,-0.007692,0.515897,-1.26,8.22,-13.8,5.9906,2.1903,-0.8889,55.814068,37.50038,210.7,NaN,,10.906001,,0 / 5,,5003,2021-05-02 19:33:38:059
0.095771,-0.351958,9.785401,0.146617,-0.371666,9.798508,-0.008291,-0.000972,0.517729,-1.26,8.22,-13.8,5.9906,2.1903,-0.8889,55.814068,37.50038,210.7,NaN,,10.906001,,0 / 5,,5013,2021-05-02 19:33:38:069
0.06704,-0.366324,9.751882,0.139792,-0.370134,9.798665,-0.000349,-0.002194,0.515286,-1.74,8.34,-13.44,5.9906,2.1903,-0.8889,55.814068,37.50038,210.7,NaN,,10.906001,,0 / 5,,5023,2021-05-02 19:33:38:079
0.088588,-0.373507,9.720756,0.135634,-0.36919,9.798759,0.010646,-0.007081,0.519562,-1.8,8.46,-13.5,5.9906,2.1903,-0.8889,55.814068,37.50038,210.7,NaN,,10.906001,,0 / 5,,5033,2021-05-02 19:33:38:089
0.119714,-0.387873,9.682447,0.135634,-0.36919,9.798759,0.010646,-0.007081,0.519562,-1.8,8.46,-13.5,5.9906,2.1903,-0.8889,55.814068,37.50038,210.7,NaN,,10.906001,,0 / 5,,5043,2021-05-02 19:33:38:099
0.119714,-0.387873,9.682447,0.128955,-0.366679,9.798944,0.005759,-0.00647,0.515286,-0.84,8.34,-13.92,6.1619,2.1575,-0.793,55.814068,37.50038,210.7,NaN,,10.906001,,0 / 5,,5053,2021-05-02 19:33:38:109
0.131685,-0.395055,9.675264,0.126715,-0.366632,9.798975,-0.000349,-0.000972,0.51834,-0.6,8.46,-14.28,6.1619,2.1575,-0.793,55.814068,37.50038,210.7,NaN,,10.906001,,0 / 5,,5063,2021-05-02 19:33:38:119
0.141262,-0.404632,9.783007,0.126715,-0.366632,9.798975,-0.004015,-0.007081,0.520173,-0.6,8.46,-14.28,6.1619,2.1575,-0.793,55.814068,37.50038,210.7,NaN,,10.906001,,0 / 5,,5073,2021-05-02 19:33:38:129
0.136474,-0.390267,9.780613,0.12347,-0.369486,9.798909,-0.004625,-0.004638,0.526892,-0.96,8.58,-14.4,6.1619,2.1575,-0.793,55.814068,37.50038,210.7,NaN,,10.906001,,0 / 5,,5083,2021-05-02 19:33:38:139
0.136474,-0.351958,9.70639,0.12347,-0.369486,9.798909,0.004538,0.003304,0.527503,-0.96,8.58,-14.4,6.1619,2.1575,-0.793,55.814068,37.50038,210.7,NaN,,10.906001,,0 / 5,,5093,2021-05-02 19:33:38:149
0.136474,-0.351958,9.70639,0.120807,-0.372636,9.798823,0.010646,0.010023,0.526892,-1.38,8.82,-14.04,5.5562,2.1592,-0.7219,55.814068,37.50038,210.7,NaN,,10.906001,,0 / 5,,5104,2021-05-02 19:33:38:160
0.105348,-0.308861,9.653716,0.120807,-0.372636,9.798823,0.010035,0.010634,0.531779,-1.38,8.82,-14.04,5.5562,2.1592,-0.7219,55.814068,37.50038,210.7,NaN,,10.906001,,0 / 5,,5113,2021-05-02 19:33:38:169
0.059857,-0.349564,9.665688,0.115612,-0.371067,9.798945,0.006981,0.005747,0.536055,-1.26,8.58,-14.1,5.5562,2.1592,-0.7219,55.814068,37.50038,210.7,NaN,,10.906001,,0 / 5,,5123,2021-05-02 19:33:38:179
0.040703,-0.36393,9.703996,0.115612,-0.371067,9.798945,-0.00096,0.006358,0.540331,-1.26,8.58,-14.1,5.5562,2.1592,-0.7219,55.814068,37.50038,210.7,NaN,,10.906001,,0 / 5,,5134,2021-05-02 19:33:38:190
0.040703,-0.36393,9.703996,0.108627,-0.369183,9.799096,-0.010734,0.002693,0.541553,-2.16,8.4,-13.98,13.8104,2.1685,-0.676,55.814068,37.50038,210.7,NaN,,10.906001,,0 / 5,,5143,2021-05-02 19:33:38:199
-0.002394,-0.39745,9.77343,0.108627,-0.369183,9.799096,-0.005236,-0.001583,0.551327,-2.16,8.4,-13.98,13.8104,2.1685,-0.676,55.814068,37.50038,210.7,NaN,,10.906001,,0 / 5,,5153,2021-05-02 19:33:38:209
-0.004789,-0.423787,9.735122,0.099521,-0.371238,9.799116,-0.004015,-0.002805,0.55377,-2.58,8.94,-13.86,13.8104,2.1685,-0.676,55.814068,37.50038,210.7,NaN,,10.906001,,0 / 5,,5163,2021-05-02 19:33:38:219
-0.004789,-0.404632,9.720756,0.099521,-0.371238,9.799116,0.008203,0.003914,0.561711,-2.58,8.94,-13.86,13.8104,2.1685,-0.676,55.814068,37.50038,210.7,NaN,,10.906001,,0 / 5,,5173,2021-05-02 19:33:38:229
-0.038308,-0.373507,9.749487,0.08795,-0.374538,9.799101,0.011868,0.009412,0.565987,-2.34,8.82,-13.92,12.3809,2.1695,-0.5819,55.814068,37.50038,210.7,NaN,,10.906001,,0 / 5,,5183,2021-05-02 19:33:38:239
-0.038308,-0.373507,9.749487,0.08795,-0.374538,9.799101,0.0137,0.002082,0.570264,-2.34,8.82,-13.92,12.3809,2.1695,-0.5819,55.814068,37.50038,210.7,NaN,,10.906001,,0 / 5,,5194,2021-05-02 19:33:38:250
-0.03352,-0.349564,9.713573,0.073083,-0.374589,9.799221,0.008203,-0.002805,0.576983,-2.04,8.94,-13.74,12.3809,2.1695,-0.5819,55.814068,37.50038,210.7,NaN,,10.906001,,0 / 5,,5203,2021-05-02 19:33:38:259
-0.052674,-0.361535,9.60583,0.073083,-0.374589,9.799221,-0.002182,-0.002805,0.586146,-2.04,8.94,-13.74,12.3809,2.1695,-0.5819,55.814068,37.50038,210.7,NaN,,10.906001,,0 / 5,,5213,2021-05-02 19:33:38:269
-0.059857,-0.383084,9.663293,0.057868,-0.373986,9.799345,-0.008902,-0.005249,0.587979,-1.92,9.06,-14.04,12.6318,2.1891,-0.4273,55.814068,37.50038,210.7,NaN,,10.906001,,0 / 5,,5223,2021-05-02 19:33:38:279
-0.064645,-0.404632,9.775824,0.057868,-0.373986,9.799345,-0.008902,-0.008914,0.596531,-1.92,9.06,-14.04,12.6318,2.1891,-0.4273,55.814068,37.50038,210.7,NaN,,10.906001,,0 / 5,,5233,2021-05-02 19:33:38:289
-0.064645,-0.404632,9.775824,0.042884,-0.376613,9.799322,-0.002182,-0.016244,0.597752,-1.92,8.82,-14.22,12.6318,2.1891,-0.4273,55.814068,37.50038,210.7,NaN,,10.906001,,0 / 5,,5243,2021-05-02 19:33:38:299
0.011971,-0.373507,9.809344,0.042884,-0.376613,9.799322,0.006981,-0.012579,0.604472,-1.92,8.82,-14.22,12.6318,2.1891,-0.4273,55.814068,37.50038,210.7,NaN,,10.906001,,0 / 5,,5253,2021-05-02 19:33:38:309
0.019154,-0.409421,9.708784,0.030349,-0.379076,9.799273,0.006981,-0.012579,0.604472,-2.04,9.24,-14.28,12.914,2.2009,-0.2507,55.814068,37.50038,210.7,NaN,,10.906001,,0 / 5,,5263,2021-05-02 19:33:38:319
0.055068,-0.371113,9.672871,0.030349,-0.379076,9.799273,0.010035,-0.002805,0.607526,-2.04,9.24,-14.28,12.914,2.2009,-0.2507,55.814068,37.50038,210.7,NaN,,10.906001,,0 / 5,,5273,2021-05-02 19:33:38:329
0.055068,-0.371113,9.672871,0.020929,-0.379242,9.799293,0.011257,-0.007081,0.60997,-1.92,8.88,-13.92,12.914,2.2009,-0.2507,55.814068,37.50038,210.7,NaN,,10.906001,,0 / 5,,5283,2021-05-02 19:33:38:339
0.090982,-0.368718,9.696813,0.020929,-0.379242,9.799293,0.000872,-0.013801,0.611802,-1.92,8.88,-13.92,12.914,2.2009,-0.2507,55.814068,37.50038,210.7,NaN,,10.906001,,0 / 5,,5293,2021-05-02 19:33:38:349
0.10056,-0.356747,9.73991,0.017493,-0.379902,9.799273,-0.001571,-0.008914,0.611191,-1.26,9.24,-14.46,6.5478,2.2163,-0.1224,55.814068,37.50038,210.7,NaN,,10.906001,,0 / 5,,5304,2021-05-02 19:33:38:360
0.112531,-0.354353,9.696813,0.017493,-0.379902,9.799273,-0.001571,-0.002805,0.612413,-1.26,9.24,-14.46,6.5478,2.2163,-0.1224,55.814312,37.499714,192.813,NaN,0.5798,64,335.0429,5 / 5,,5313,2021-05-02 19:33:38:369
0.112531,-0.354353,9.696813,0.018628,-0.38029,9.799256,-0.001571,-0.002805,0.612413,-1.38,9.84,-13.86,6.5478,2.2163,-0.1224,55.814312,37.499714,192.813,NaN,0.5798,64,335.0429,5 / 5,,5323,2021-05-02 19:33:38:379
0.10056,-0.342381,9.696813,0.018628,-0.38029,9.799256,0.000872,-0.008914,0.614246,-1.38,9.84,-13.86,6.5478,2.2163,-0.1224,55.814312,37.499714,192.813,NaN,0.5798,64,335.0429,5 / 5,,5333,2021-05-02 19:33:38:389
0.076617,-0.383084,9.720756,0.023368,-0.379052,9.799294,0.003927,-0.000362,0.614857,-1.92,9.18,-12.72,13.099,2.2224,-0.1089,55.814312,37.499714,192.813,NaN,0.5798,64,335.0429,5 / 5,,5343,2021-05-02 19:33:38:399
0.076617,-0.383084,9.720756,0.025406,-0.378468,9.799312,0.005148,0.003914,0.619133,-1.86,8.76,-12.48,13.099,2.2224,-0.1089,55.814312,37.499714,192.813,NaN,0.5798,64,335.0429,5 / 5,,5353,2021-05-02 19:33:38:409
0.009577,-0.404632,9.699207,0.02665,-0.378011,9.799326,-0.000349,-0.002805,0.619744,-2.04,8.94,-13.74,13.099,2.2224,-0.1089,55.814312,37.499714,192.813,NaN,0.5798,64,335.0429,5 / 5,,5363,2021-05-02 19:33:38:419
0.009577,-0.404632,9.699207,0.02665,-0.378011,9.799326,-0.000349,-0.003416,0.622187,-2.04,8.94,-13.74,13.099,2.2224,-0.1089,55.814312,37.499714,192.813,NaN,0.5798,64,335.0429,5 / 5,,5373,2021-05-02 19:33:38:429
-0.057463,-0.399844,9.775824,0.026518,-0.379538,9.799267,0.000261,-0.010746,0.624631,-1.74,9.6,-14.34,11.7253,2.2091,-0.1558,55.814312,37.499714,192.813,NaN,0.5798,64,335.0429,5 / 5,,5383,2021-05-02 19:33:38:439
-0.019154,-0.399844,9.73991,0.026518,-0.379538,9.799267,0.005148,-0.016244,0.625241,-1.74,9.6,-14.34,11.7253,2.2091,-0.1558,55.814312,37.499714,192.813,NaN,0.5798,64,335.0429,5 / 5,,5393,2021-05-02 19:33:38:449
0.002394,-0.385478,9.713573,0.022778,-0.381664,9.799194,0.00637,-0.015022,0.630739,-2.16,9.96,-14.34,11.7253,2.2091,-0.1558,55.814312,37.499714,192.813,NaN,0.5798,64,335.0429,5 / 5,,5403,2021-05-02 19:33:38:459
0.055068,-0.351958,9.682447,0.022778,-0.381664,9.799194,0.009424,-0.010746,0.630128,-2.16,9.96,-14.34,11.7253,2.2091,-0.1558,55.814312,37.499714,192.813,NaN,0.5798,64,335.0429,5 / 5,,5413,2021-05-02 19:33:38:469
0.105348,-0.351958,9.699207,0.020496,-0.381979,9.799187,0.008814,-0.009525,0.635015,-2.88,9.84,-13.86,17.4378,2.2305,-0.1332,55.814312,37.499714,192.813,NaN,0.5798,64,335.0429,5 / 5,,5423,2021-05-02 19:33:38:479
0.105348,-0.351958,9.699207,0.020496,-0.381979,9.799187,0.008814,-0.009525,0.635015,-2.88,9.84,-13.86,17.4378,2.2305,-0.1332,55.814312,37.499714,192.813,NaN,0.5798,64,335.0429,5 / 5,,5433,2021-05-02 19:33:38:489
0.122108,-0.354353,9.718362,0.021143,-0.380914,9.799227,0.000261,-0.002805,0.636848,-3,9.54,-13.44,17.4378,2.2305,-0.1332,55.814312,37.499714,192.813,NaN,0.5798,64,335.0429,5 / 5,,5443,2021-05-02 19:33:38:499
0.10056,-0.354353,9.713573,0.021143,-0.380914,9.799227,-0.00096,-0.002805,0.633794,-3,9.54,-13.44,17.4378,2.2305,-0.1332,55.814312,37.499714,192.813,NaN,0.5798,64,335.0429,5 / 5,,5453,2021-05-02 19:33:38:509
0.090982,-0.38069,9.711179,0.025431,-0.379731,9.799262,-0.00096,-0.002805,0.633794,-3,9.3,-14.22,19.366,2.2261,-0.1236,55.814312,37.499714,192.813,NaN,0.5798,64,335.0429,5 / 5,,5463,2021-05-02 19:33:38:519
0.090982,-0.38069,9.711179,0.025431,-0.379731,9.799262,-0.000349,-0.002194,0.635015,-3,9.3,-14.22,19.366,2.2261,-0.1236,55.814312,37.499714,192.813,NaN,0.5798,64,335.0429,5 / 5,,5474,2021-05-02 19:33:38:530
0.038308,-0.390267,9.744699,0.030255,-0.379396,9.799262,0.001483,0.00086,0.636237,-2.76,9.9,-14.46,19.366,2.2261,-0.1236,55.814312,37.499714,192.813,NaN,0.5798,64,335.0429,5 / 5,,5483,2021-05-02 19:33:38:539
0.019154,-0.390267,9.744699,0.030255,-0.379396,9.799262,0.003927,-0.000362,0.636237,-2.76,9.9,-14.46,19.366,2.2261,-0.1236,55.814312,37.499714,192.813,NaN,0.5798,64,335.0429,5 / 5,,5493,2021-05-02 19:33:38:549
0.01676,-0.342381,9.742304,0.032148,-0.379264,9.799261,0.008814,-0.002805,0.635626,-2.16,9.72,-13.92,11.6978,2.2172,-0.1769,55.814312,37.499714,192.813,NaN,0.5798,64,335.0429,5 / 5,,5503,2021-05-02 19:33:38:559
0.014366,-0.325621,9.692024,0.032148,-0.379264,9.799261,0.010035,-0.004638,0.63807,-2.16,9.72,-13.92,11.6978,2.2172,-0.1769,55.814312,37.499714,192.813,NaN,0.5798,64,335.0429,5 / 5,,5513,2021-05-02 19:33:38:569
0.023943,-0.33041,9.644139,0.031335,-0.376741,9.79936,0.005148,-0.004638,0.63807,-1.8,9.66,-13.86,11.6978,2.2172,-0.1769,55.814312,37.499714,192.813,NaN,0.5798,64,335.0429,5 / 5,,5523,2021-05-02 19:33:38:579
0.023943,-0.33041,9.644139,0.031335,-0.376741,9.79936,-0.002793,-0.00647,0.641124,-1.8,9.66,-13.86,11.6978,2.2172,-0.1769,55.814312,37.499714,192.813,NaN,0.5798,64,335.0429,5 / 5,,5533,2021-05-02 19:33:38:589
-0.007183,-0.36393,9.711179,0.029216,-0.374457,9.799455,-0.005236,-0.000362,0.647233,-1.92,10.62,-13.98,10.5939,2.2017,-0.1832,55.814312,37.499714,192.813,NaN,0.5798,64,335.0429,5 / 5,,5543,2021-05-02 19:33:38:599
-0.009577,-0.39745,9.785401,0.029216,-0.374457,9.799455,-0.002793,-0.000362,0.647843,-1.92,10.62,-13.98,10.5939,2.2017,-0.1832,55.814312,37.499714,192.813,NaN,0.5798,64,335.0429,5 / 5,,5553,2021-05-02 19:33:38:609
-0.014366,-0.385478,9.761458,0.024872,-0.373686,9.799497,-0.00096,-0.002194,0.647233,-1.74,10.02,-13.92,10.5939,2.2017,-0.1832,55.814312,37.499714,192.813,NaN,0.5798,64,335.0429,5 / 5,,5563,2021-05-02 19:33:38:619
-0.014366,-0.373507,9.730332,0.024872,-0.373686,9.799497,0.005759,-0.005859,0.648454,-1.74,10.02,-13.92,10.5939,2.2017,-0.1832,55.814312,37.499714,192.813,NaN,0.5798,64,335.0429,5 / 5,,5574,2021-05-02 19:33:38:630
-0.045491,-0.373507,9.730332,0.018691,-0.373375,9.799521,0.010646,-0.010746,0.646622,-1.86,9.54,-14.28,11.7324,2.1838,-0.1454,55.814312,37.499714,192.813,NaN,0.5798,64,335.0429,5 / 5,,5583,2021-05-02 19:33:38:639
-0.01676,-0.332804,9.715967,0.018691,-0.373375,9.799521,0.010646,-0.010746,0.646622,-1.86,9.54,-14.28,11.7324,2.1838,-0.1454,55.814312,37.499714,192.813,NaN,0.5798,64,335.0429,5 / 5,,5593,2021-05-02 19:33:38:649
0.019154,-0.301679,9.696813,0.012669,-0.371247,9.799612,0.00637,-0.013801,0.647843,-2.46,9.9,-14.82,11.7324,2.1838,-0.1454,55.814312,37.499714,192.813,NaN,0.5798,64,335.0429,5 / 5,,5603,2021-05-02 19:33:38:659
0.081405,-0.306467,9.663293,0.012669,-0.371247,9.799612,-0.000349,-0.013801,0.649676,-2.46,9.9,-14.82,11.7324,2.1838,-0.1454,55.814312,37.499714,192.813,NaN,0.5798,64,335.0429,5 / 5,,5613,2021-05-02 19:33:38:669
0.122108,-0.351958,9.670476,0.010086,-0.367669,9.79975,-0.008291,-0.011968,0.649065,-2.76,10.08,-14.52,17.5496,2.1695,-0.0741,55.814312,37.499714,192.813,NaN,0.5798,64,335.0429,5 / 5,,5623,2021-05-02 19:33:38:679
0.122108,-0.351958,9.670476,0.010086,-0.367669,9.79975,-0.009512,-0.008914,0.646011,-2.76,10.08,-14.52,17.5496,2.1695,-0.0741,55.814312,37.499714,192.813,NaN,0.5798,64,335.0429,5 / 5,,5634,2021-05-02 19:33:38:690
0.119714,-0.409421,9.73991,0.011863,-0.365551,9.799828,-0.009512,-0.003416,0.646011,-2.46,10.38,-14.22,17.5496,2.1695,-0.0741,55.814312,37.499714,192.813,NaN,0.5798,64,335.0429,5 / 5,,5643,2021-05-02 19:33:38:699
0.098165,-0.440547,9.830893,0.011863,-0.365551,9.799828,-0.005847,0.00086,0.642956,-2.46,10.38,-14.22,17.5496,2.1695,-0.0741,55.814312,37.499714,192.813,NaN,0.5798,64,335.0429,5 / 5,,5653,2021-05-02 19:33:38:709
0.035914,-0.440547,9.828498,0.016314,-0.367186,9.799761,0.005759,-0.005249,0.639902,-2.04,10.56,-14.58,10.7556,2.1362,-0.0694,55.814312,37.499714,192.813,NaN,0.5798,64,335.0429,5 / 5,,5663,2021-05-02 19:33:38:719
0.035914,-0.440547,9.828498,0.016314,-0.367186,9.799761,0.0137,-0.005249,0.641124,-2.04,10.56,-14.58,10.7556,2.1362,-0.0694,55.814312,37.499714,192.813,NaN,0.5798,64,335.0429,5 / 5,,5673,2021-05-02 19:33:38:729
-0.007183,-0.373507,9.759064,0.019968,-0.370182,9.799641,0.016144,-0.005859,0.634404,-2.34,10.74,-14.28,10.7556,2.1362,-0.0694,55.814312,37.499714,192.813,NaN,0.5798,64,335.0429,5 / 5,,5683,2021-05-02 19:33:38:739
0,-0.308861,9.63935,0.019968,-0.370182,9.799641,0.01309,-0.010746,0.632572,-2.34,10.74,-14.28,10.7556,2.1362,-0.0694,55.814312,37.499714,192.813,NaN,0.5798,64,335.0429,5 / 5,,5693,2021-05-02 19:33:38:749
0.043097,-0.265764,9.644139,0.020571,-0.370277,9.799636,0.005759,-0.017466,0.634404,-2.16,10.5,-13.74,10.6702,2.1633,-0.1167,55.814312,37.499714,192.813,NaN,0.5798,64,335.0429,5 / 5,,5703,2021-05-02 19:33:38:759
0.043097,-0.265764,9.644139,0.020571,-0.370277,9.799636,0.005759,-0.017466,0.634404,-2.16,10.5,-13.74,10.6702,2.1633,-0.1167,55.814312,37.499714,192.813,NaN,0.5798,64,335.0429,5 / 5,,5713,2021-05-02 19:33:38:769
0.105348,-0.234639,9.72315,0.02217,-0.36659,9.79977,-0.002182,-0.013801,0.625852,-2.4,10.26,-13.26,10.6702,2.1633,-0.1167,55.814312,37.499714,192.813,NaN,0.5798,64,335.0429,5 / 5,,5723,2021-05-02 19:33:38:779
0.155628,-0.301679,9.675264,0.02217,-0.36659,9.79977,-0.002182,-0.013801,0.625852,-2.4,10.26,-13.26,10.6702,2.1633,-0.1167,55.814312,37.499714,192.813,NaN,0.5798,64,335.0429,5 / 5,,5733,2021-05-02 19:33:38:789
0.198725,-0.270553,9.648928,0.027862,-0.360097,9.799996,-0.006458,-0.014412,0.621576,-3.12,10.56,-13.26,15.7882,2.1423,-0.1296,55.814312,37.499714,192.813,NaN,0.5798,64,335.0429,5 / 5,,5743,2021-05-02 19:33:38:799
0.198725,-0.270553,9.648928,0.027862,-0.360097,9.799996,-0.006458,-0.008303,0.614857,-3.12,10.56,-13.26,15.7882,2.1423,-0.1296,55.814312,37.499714,192.813,NaN,0.5798,64,335.0429,5 / 5,,5753,2021-05-02 19:33:38:809
0.205908,-0.311256,9.735122,0.039342,-0.353284,9.800205,-0.007069,-0.003416,0.602028,-2.46,10.68,-13.92,15.7882,2.1423,-0.1296,55.814312,37.499714,192.813,NaN,0.5798,64,335.0429,5 / 5,,5763,2021-05-02 19:33:38:819
0.193936,-0.351958,9.792584,0.039342,-0.353284,9.800205,-0.006458,-0.008914,0.594698,-2.46,10.68,-13.92,15.7882,2.1423,-0.1296,55.814312,37.499714,192.813,NaN,0.5798,64,335.0429,5 / 5,,5773,2021-05-02 19:33:38:829
0.172388,-0.390267,9.787795,0.052799,-0.348124,9.800326,-0.001571,-0.008914,0.589811,-2.46,10.68,-14.22,10.4995,2.0645,-0.23,55.814312,37.499714,192.813,NaN,0.5798,64,335.0429,5 / 5,,5783,2021-05-02 19:33:38:839
0.124502,-0.351958,9.742304,0.052799,-0.348124,9.800326,-0.00096,-0.007692,0.580037,-2.46,10.68,-14.22,10.4995,2.0645,-0.23,55.814312,37.499714,192.813,NaN,0.5798,64,335.0429,5 / 5,,5793,2021-05-02 19:33:38:849
0.064645,-0.34717,9.72315,0.066611,-0.346627,9.800297,0.002094,-0.00647,0.573318,-2.82,11.04,-13.8,10.4995,2.0645,-0.23,55.814312,37.499714,192.813,NaN,0.5798,64,335.0429,5 / 5,,5803,2021-05-02 19:33:38:859
0.064645,-0.34717,9.72315,0.066611,-0.346627,9.800297,0.002705,-0.008914,0.572096,-2.82,11.04,-13.8,10.4995,2.0645,-0.23,55.814312,37.499714,192.813,NaN,0.5798,64,335.0429,5 / 5,,5813,2021-05-02 19:33:38:869
0.06704,-0.36393,9.696813,0.075924,-0.346228,9.800242,0.002705,-0.009525,0.565987,-3.24,10.92,-14.52,15.4824,2.0256,-0.3894,55.814312,37.499714,192.813,NaN,0.5798,64,335.0429,5 / 5,,5823,2021-05-02 19:33:38:879
0.028731,-0.325621,9.747093,0.075924,-0.346228,9.800242,0.003316,-0.004638,0.567209,-3.24,10.92,-14.52,15.4824,2.0256,-0.3894,55.814312,37.499714,192.813,NaN,0.5798,64,335.0429,5 / 5,,5833,2021-05-02 19:33:38:889
0.004789,-0.332804,9.747093,0.079331,-0.345998,9.800223,0.003316,-0.005249,0.567209,-3,11.04,-14.34,15.4824,2.0256,-0.3894,55.814312,37.499714,192.813,NaN,0.5798,64,335.0429,5 / 5,,5843,2021-05-02 19:33:38:899
0.004789,-0.332804,9.747093,0.079331,-0.345998,9.800223,0.005759,-0.007692,0.570264,-3,11.04,-14.34,15.4824,2.0256,-0.3894,55.814312,37.499714,192.813,NaN,0.5798,64,335.0429,5 / 5,,5853,2021-05-02 19:33:38:909
0.014366,-0.270553,9.718362,0.076858,-0.344722,9.800288,0.005759,-0.008914,0.570264,-2.22,12,-13.08,9.3293,2.0219,-0.4638,55.814312,37.499714,192.813,NaN,0.5798,64,335.0429,5 / 5,,5863,2021-05-02 19:33:38:919
0.040703,-0.26337,9.641745,0.076858,-0.344722,9.800288,0.003927,-0.008914,0.565377,-2.22,12,-13.08,9.3293,2.0219,-0.4638,55.814312,37.499714,192.813,NaN,0.5798,64,335.0429,5 / 5,,5873,2021-05-02 19:33:38:929
0.105348,-0.260976,9.613013,0.072417,-0.339383,9.800508,-0.000349,-0.014412,0.557435,-1.92,11.64,-13.86,9.3293,2.0219,-0.4638,55.814312,37.499714,192.813,NaN,0.5798,64,335.0429,5 / 5,,5883,2021-05-02 19:33:38:939
0.155628,-0.275342,9.694419,0.072417,-0.339383,9.800508,-0.003404,-0.018077,0.549494,-1.92,11.64,-13.86,9.3293,2.0219,-0.4638,55.814312,37.499714,192.813,NaN,0.5798,64,335.0429,5 / 5,,5893,2021-05-02 19:33:38:949
0.155628,-0.275342,9.694419,0.069645,-0.332655,9.800758,-0.011345,-0.013801,0.542775,-2.1,10.92,-14.7,10.2243,1.9833,-0.4234,55.814312,37.499714,192.813,NaN,0.5798,64,335.0429,5 / 5,,5903,2021-05-02 19:33:38:959
0.186753,-0.311256,9.804555,0.069645,-0.332655,9.800758,-0.00768,-0.004027,0.538498,-2.1,10.92,-14.7,10.2243,1.9833,-0.4234,55.814312,37.499714,192.813,NaN,0.5798,64,335.0429,5 / 5,,5913,2021-05-02 19:33:38:969
0.148445,-0.344776,9.759064,0.073261,-0.328015,9.800889,-0.00768,-0.004027,0.538498,-2.7,10.98,-13.98,10.2243,1.9833,-0.4234,55.814312,37.499714,192.813,NaN,0.5798,64,335.0429,5 / 5,,5923,2021-05-02 19:33:38:979
0.098165,-0.325621,9.727939,0.073261,-0.328015,9.800889,-0.005236,-0.000972,0.534833,-2.7,10.98,-13.98,10.2243,1.9833,-0.4234,55.814312,37.499714,192.813,NaN,0.5798,64,335.0429,5 / 5,,5933,2021-05-02 19:33:38:989
0.047885,-0.304073,9.747093,0.078565,-0.326511,9.800898,0.002705,0.002693,0.531168,-2.28,10.98,-13.86,10.2081,1.9168,-0.4283,55.814312,37.499714,192.813,NaN,0.5798,64,335.0429,5 / 5,,5943,2021-05-02 19:33:38:999
