ACCELEROMETER X (m/s²),ACCELEROMETER Y (m/s²),ACCELEROMETER Z (m/s²),GYROSCOPE X (rad/s),GYROSCOPE Y (rad/s),GYROSCOPE Z (rad/s),MAGNETIC FIELD X (μT),MAGNETIC FIELD Y (μT),MAGNETIC FIELD Z (μT),ORIENTATION Z (azimuth °),ORIENTATION X (pitch °),ORIENTATION Y (roll °),LOCATION Latitude : ,LOCATION Longitude : ,LOCATION Altitude ( m),LOCATION Speed ( m/s),Time since start in ms 
-0.160416,1.055875,9.713573,-0.000852,0.009396,0.006289,-24.12,16.56,-18.72,53.4204,-6.2447,0.8922,55.567165,37.55927,210.1212,0,8
-0.153234,1.067847,9.766247,0.00037,0.003288,0.008733,-24.06,16.68,-18.36,53.4204,-6.2447,0.8922,55.567165,37.55927,210.1212,0,18
-0.141262,1.113338,9.694419,0.00037,0.003288,0.008733,-24.06,16.68,-18.36,53.4204,-6.2447,0.8922,55.567165,37.55927,210.1212,0,28
-0.143656,1.213897,9.72315,-0.005128,0.002677,0.000792,-24.78,16.62,-18.96,53.226,-6.2336,0.9488,55.567165,37.55927,210.1212,0,38
-0.141262,1.213897,9.737515,0.00037,-0.000988,0.000181,-24.78,16.62,-18.96,53.226,-6.2336,0.9488,55.567165,37.55927,210.1212,0,48
-0.141262,1.213897,9.737515,0.004035,-0.005264,-0.001041,-24.6,16.74,-18.6,53.226,-6.2336,0.9488,55.567165,37.55927,210.1212,0,58
-0.141262,1.130098,9.615408,-0.012458,0.007564,-0.002263,-24.6,16.74,-18.6,53.226,-6.2336,0.9488,55.567165,37.55927,210.1212,0,68
-0.179571,1.022355,9.852441,-0.026508,0.013062,0.000181,-24.54,17.22,-18.96,53.2161,-6.2613,0.9532,55.567165,37.55927,210.1212,0,78
-0.179571,1.022355,9.852441,-0.012458,0.017948,0.006289,-24.48,17.04,-19.68,53.2161,-6.2613,0.9532,55.567165,37.55927,210.1212,0,88
-0.141262,0.909824,9.955395,-0.012458,0.017948,0.006289,-24.48,17.04,-19.68,53.2161,-6.2613,0.9532,55.567165,37.55927,210.1212,0,99
-0.0838,0.902642,9.859624,0.001592,0.001455,0.005068,-25.08,17.28,-19.92,53.2161,-6.2613,0.9532,55.567165,37.55927,210.1212,0,108
-0.117319,1.005595,9.914692,0.00709,-0.004654,-0.00043,-24.78,16.62,-19.92,53.0523,-6.3066,0.9447,55.567165,37.55927,210.1212,0,119
-0.162811,1.106155,9.842864,0.020529,-0.005875,-0.001652,-24.78,16.62,-19.92,53.0523,-6.3066,0.9447,55.567165,37.55927,210.1212,0,129
-0.162811,1.106155,9.842864,0.030913,-0.007097,0.005679,-24.54,17.1,-19.26,53.0523,-6.3066,0.9447,55.567165,37.55927,210.1212,0,138
-0.225062,1.118126,9.63935,0.016253,0.010007,0.008733,-24.54,17.1,-19.26,53.0523,-6.3066,0.9447,55.567165,37.55927,210.1212,0,149
-0.244216,1.182772,9.632168,0.000981,0.01184,0.002624,-24.54,17.52,-19.02,51.7833,-6.2498,0.9033,55.567165,37.55927,210.1212,0,158
-0.186753,1.216292,9.658504,0.00709,0.001455,0.003235,-25.02,17.4,-18.78,51.7833,-6.2498,0.9033,55.567165,37.55927,210.1212,0,168
-0.119714,1.106155,9.644139,0.00037,-0.000988,0.002624,-25.02,17.4,-18.78,51.7833,-6.2498,0.9033,55.567165,37.55927,210.1212,0,178
-0.119714,1.106155,9.644139,-0.014291,0.003899,-0.001652,-24.3,17.52,-19.5,51.7833,-6.2498,0.9033,55.567165,37.55927,210.1212,0,189
-0.172388,1.065452,9.735122,-0.014291,0.003899,-0.001652,-24.3,17.52,-19.5,51.7833,-6.2498,0.9033,55.567165,37.55927,210.1212,0,198
-0.138868,1.031933,9.785401,-0.021621,0.010007,-0.002263,-24.18,16.86,-18.9,52.0699,-6.3196,0.9411,55.567165,37.55927,210.1212,0,208
-0.090982,1.055875,9.754275,-0.015512,-0.001599,-0.008371,-24.18,16.86,-18.9,52.0699,-6.3196,0.9411,55.567165,37.55927,210.1212,0,218
-0.090982,1.055875,9.754275,-0.013069,0.002066,-0.00715,-24,16.68,-19.08,52.0699,-6.3196,0.9411,55.567165,37.55927,210.1212,0,228
-0.241822,1.039115,9.759064,-0.017345,0.003288,-0.009593,-24,16.68,-19.08,52.0699,-6.3196,0.9411,55.567165,37.55927,210.1212,0,238
-0.181965,1.031933,9.866806,0.002814,0.001455,0.007511,-24.3,16.92,-19.26,52.0712,-6.3185,0.943,55.567165,37.55927,210.1212,0,248
-0.181965,1.031933,9.866806,0.002814,0.001455,0.007511,-24.3,16.92,-19.26,52.0712,-6.3185,0.943,55.567165,37.55927,210.1212,0,258
-0.181965,1.031933,9.866806,0.005868,0.00512,0.01362,-24.3,16.92,-19.26,52.0712,-6.3185,0.943,55.567165,37.55927,210.1212,0,268
-0.191542,1.065452,9.687236,-0.011236,0.006953,0.002013,-24.18,17.4,-19.8,52.0712,-6.3185,0.943,55.567165,37.55927,210.1212,0,278
-0.165205,1.120521,9.75667,-0.014901,0.008785,-0.001041,-23.88,17.76,-20.04,50.5335,-6.2716,0.9577,55.567165,37.55927,210.1212,0,289
-0.184359,1.063058,9.75667,-0.006349,-0.00954,-0.004095,-23.88,17.76,-20.04,50.5335,-6.2716,0.9577,55.567165,37.55927,210.1212,0,298
-0.251399,1.05827,9.818921,-0.003295,-0.000378,-0.002263,-24.18,17.64,-19.2,50.5335,-6.2716,0.9577,55.567165,37.55927,210.1212,0,309
-0.251399,1.05827,9.818921,-0.001462,0.004509,0.002624,-24.18,17.64,-19.2,50.5335,-6.2716,0.9577,55.567165,37.55927,210.1212,0,318
-0.186753,1.115732,9.850046,0.012587,-0.000988,0.007511,-24.66,16.62,-19.74,53.0848,-6.2536,0.9648,55.567165,37.55927,210.1212,0,328
-0.138868,1.108549,9.720756,0.010144,-0.000378,0.0069,-24.66,16.62,-19.74,53.0848,-6.2536,0.9648,55.567165,37.55927,210.1212,0,339
-0.181965,1.098972,9.627379,-0.016123,0.016727,-0.002874,-24.48,16.44,-19.5,53.0848,-6.2536,0.9648,55.567165,37.55927,210.1212,0,349
-0.193936,1.096578,9.718362,-0.02101,0.021003,-0.010815,-24.48,16.44,-19.5,53.0848,-6.2536,0.9648,55.567165,37.55927,210.1212,0,358
-0.193936,1.096578,9.718362,-0.011847,0.00512,-0.012036,-24.24,17.1,-18.18,52.2512,-6.2756,0.9903,55.567165,37.55927,210.1212,0,368
-0.179571,1.043904,9.763853,0.004646,-0.013206,-0.001652,-24.24,17.1,-18.18,52.2512,-6.2756,0.9903,55.567165,37.55927,210.1212,0,378
-0.193936,1.043904,9.768641,0.00037,-0.015038,0.003846,-24,17.04,-18.24,52.2512,-6.2756,0.9903,55.567165,37.55927,210.1212,0,389
-0.193936,1.043904,9.768641,0.00037,-0.015038,0.003846,-24,17.04,-18.24,52.2512,-6.2756,0.9903,55.567165,37.55927,210.1212,0,399
-0.158022,1.053481,9.905115,0.00037,-0.007097,0.007511,-23.82,16.8,-19.08,52.1149,-6.2882,1.0133,55.567165,37.55927,210.1212,0,408
-0.098165,1.039115,9.77343,0.005257,-0.010151,0.007511,-23.82,16.8,-19.08,52.1149,-6.2882,1.0133,55.567165,37.55927,210.1212,0,418
-0.203513,1.005595,9.708784,-0.000241,-0.004043,0.003846,-24.36,16.92,-19.38,52.1149,-6.2882,1.0133,55.567165,37.55927,210.1212,0,428
-0.282524,1.060664,9.818921,-0.009404,-0.001599,-0.010204,-24.36,16.92,-19.38,52.1149,-6.2882,1.0133,55.567165,37.55927,210.1212,0,438
-0.282524,1.060664,9.818921,0.01442,-0.007708,-0.00715,-24.3,16.74,-19.26,52.1056,-6.2809,0.9851,55.567165,37.55927,210.1212,0,449
-0.189148,0.998413,9.759064,0.025416,-0.013206,0.001403,-24.3,16.74,-19.26,52.1056,-6.2809,0.9851,55.567165,37.55927,210.1212,0,458
-0.126897,1.010384,9.658504,0.016253,-0.010762,-0.00043,-24.6,16.26,-19.14,52.1056,-6.2809,0.9851,55.567165,37.55927,210.1212,0,468
-0.146051,1.079818,9.73991,0.00709,-0.008319,0.000181,-24.6,16.26,-19.14,52.1056,-6.2809,0.9851,55.567165,37.55927,210.1212,0,478
-0.093377,1.089395,9.725544,0.005257,-0.002821,-0.00043,-24.78,16.44,-18.96,54.7137,-6.2442,0.9997,55.567165,37.55927,210.1212,0,488
-0.093377,1.089395,9.725544,0.005257,-0.002821,-0.00043,-24.78,16.44,-18.96,54.7137,-6.2442,0.9997,55.567165,37.55927,210.1212,0,499
-0.090982,1.118126,9.701602,-0.009404,0.008175,0.000792,-24.9,16.5,-18.6,54.7137,-6.2442,0.9997,55.567165,37.55927,210.1212,0,508
-0.205908,1.137281,9.749487,-0.022843,0.010618,-0.002263,-24.9,16.5,-18.6,54.7137,-6.2442,0.9997,55.567165,37.55927,210.1212,0,518
-0.172388,1.154041,9.854836,-0.00696,-0.004654,0.002624,-24.72,16.32,-18.84,54.717,-6.2172,0.9791,55.567165,37.55927,210.1212,0,529
-0.107742,1.137281,9.656111,0.004646,-0.000988,0.0069,-24.72,16.32,-18.84,54.717,-6.2172,0.9791,55.567165,37.55927,210.1212,0,538
-0.107742,1.137281,9.656111,-0.00696,0.000844,-0.00043,-24.66,16.26,-19.32,54.717,-6.2172,0.9791,55.567165,37.55927,210.1212,0,549
-0.162811,1.110944,9.627379,-0.017956,0.008175,-0.002874,-24.66,16.26,-19.32,54.717,-6.2172,0.9791,55.567165,37.55927,210.1212,0,558
-0.160416,1.084607,9.797373,-0.00696,0.006953,0.003235,-24.66,16.62,-18.78,53.2219,-6.2547,0.9603,55.567165,37.55927,210.1212,0,568
-0.090982,1.046298,9.735122,-0.003906,0.01184,0.000792,-24.66,16.62,-18.78,53.2219,-6.2547,0.9603,55.567165,37.55927,210.1212,0,578
-0.093377,1.087001,9.713573,-0.010015,0.010618,-0.002874,-24.6,16.8,-18.3,53.2219,-6.2547,0.9603,55.567165,37.55927,210.1212,0,589
-0.093377,1.087001,9.713573,-0.010015,0.010618,-0.002874,-24.6,16.8,-18.3,53.2219,-6.2547,0.9603,55.567165,37.55927,210.1212,0,599
-0.174782,1.087001,9.799767,-0.008182,0.002677,-0.010204,-24.72,16.86,-18.48,53.3395,-6.3012,0.9497,55.567165,37.55927,210.1212,0,608
-0.184359,1.019961,9.73991,0.007701,-0.007708,-0.003484,-24.72,16.86,-18.48,53.3395,-6.3012,0.9497,55.567165,37.55927,210.1212,0,618
-0.232245,1.04151,9.653716,-0.005738,-0.000378,-0.004095,-24.48,16.62,-18.72,53.3395,-6.3012,0.9497,55.567165,37.55927,210.1212,0,628
-0.232245,1.04151,9.653716,-0.018567,0.002677,-0.005317,-24.6,16.86,-18.36,53.3395,-6.3012,0.9497,55.567165,37.55927,210.1212,0,638
-0.215485,1.053481,9.751882,-0.018567,0.002677,-0.005317,-24.6,16.86,-18.36,53.3395,-6.3012,0.9497,55.567165,37.55927,210.1212,0,648
-0.167599,1.010384,9.79019,-0.009404,-0.000988,-0.001652,-24.42,17.04,-18.48,52.2113,-6.3023,0.9208,55.567165,37.55927,210.1212,0,658
-0.222668,1.067847,9.775824,-0.003906,-0.012595,0.002624,-24.42,17.04,-18.48,52.2113,-6.3023,0.9208,55.567165,37.55927,210.1212,0,668
-0.222668,1.067847,9.775824,-0.003295,-0.005875,-0.001652,-24.3,16.74,-18.6,52.2113,-6.3023,0.9208,55.567165,37.55927,210.1212,0,678
-0.165205,1.106155,9.804555,-0.005128,0.000844,-0.003484,-24.3,16.74,-18.6,52.2113,-6.3023,0.9208,55.567165,37.55927,210.1212,0,688
-0.146051,1.04151,9.77343,-0.00696,0.007564,-0.001041,-24.18,16.38,-18.9,53.5974,-6.2448,0.9585,55.567165,37.55927,210.1212,0,698
-0.172388,1.055875,9.761458,-0.002684,0.001455,0.006289,-24.18,16.38,-18.9,53.5974,-6.2448,0.9585,55.567165,37.55927,210.1212,0,709
-0.155628,1.067847,9.804555,-0.002684,-0.008319,-0.004706,-24.06,16.68,-18.96,53.5974,-6.2448,0.9585,55.567165,37.55927,210.1212,0,718
-0.155628,1.067847,9.804555,0.010144,-0.007097,-0.005317,-24.06,16.68,-18.96,53.5974,-6.2448,0.9585,55.567165,37.55927,210.1212,0,728
-0.167599,1.046298,9.759064,0.010144,-0.005875,0.000792,-24.66,16.86,-18.96,53.2535,-6.2176,0.9982,55.567165,37.55927,210.1212,0,738
-0.237033,0.988836,9.689631,0.010144,-0.005875,0.000792,-24.66,16.86,-18.96,53.2535,-6.2176,0.9982,55.567165,37.55927,210.1212,0,748
-0.208302,1.091789,9.771035,-0.005738,0.004509,0.003235,-25.14,16.5,-18.96,53.2535,-6.2176,0.9982,55.567165,37.55927,210.1212,0,759
-0.134079,1.094184,9.79019,-0.010015,0.014894,-0.001041,-25.14,16.5,-18.96,53.2535,-6.2176,0.9982,55.567165,37.55927,210.1212,0,768
-0.134079,1.094184,9.79019,0.002814,0.002677,-0.008982,-24.9,16.44,-19.26,54.7267,-6.2125,0.9972,55.567165,37.55927,210.1212,0,778
-0.114925,1.029538,9.687236,0.001592,-0.001599,-0.00776,-24.9,16.44,-19.26,54.7267,-6.2125,0.9972,55.567165,37.55927,210.1212,0,788
-0.160416,1.091789,9.711179,-0.010015,-0.000378,-0.005317,-24.42,16.74,-18.72,54.7267,-6.2125,0.9972,55.567165,37.55927,210.1212,0,799
-0.155628,1.060664,9.766247,-0.006349,0.000844,0.000181,-24.42,16.74,-18.72,54.7267,-6.2125,0.9972,55.567165,37.55927,210.1212,0,809
-0.155628,1.060664,9.766247,-0.006349,0.000844,0.000181,-24.24,17.28,-18.84,52.1612,-6.1913,1.0247,55.567165,37.55927,210.1212,0,818
-0.150839,1.048692,9.749487,0.004646,-0.003432,0.008122,-24.24,17.28,-18.84,52.1612,-6.1913,1.0247,55.567165,37.55927,210.1212,0,828
-0.191542,1.048692,9.737515,-0.013069,0.011229,0.003846,-24.48,17.46,-18.6,52.1612,-6.1913,1.0247,55.567165,37.55927,210.1212,0,839
-0.191542,1.048692,9.737515,-0.008793,0.008175,-0.002874,-24.48,17.46,-18.6,52.1612,-6.1913,1.0247,55.567165,37.55927,210.1212,0,848
-0.155628,1.00799,9.850046,0.005868,-0.007097,-0.00043,-24.6,17.22,-18.24,53.4043,-6.1937,1.0045,55.567165,37.55927,210.1212,0,858
-0.172388,1.027144,9.727939,0.010755,-0.003432,0.000181,-24.6,17.22,-18.24,53.4043,-6.1937,1.0045,55.567165,37.55927,210.1212,0,869
-0.174782,1.120521,9.73991,0.000981,0.001455,0.003235,-24.48,17.1,-18.36,53.4043,-6.1937,1.0045,55.567165,37.55927,210.1212,0,878
-0.090982,1.144463,9.672871,-0.000852,0.010007,0.005068,-24.24,17.04,-18.24,53.4043,-6.1937,1.0045,55.567165,37.55927,210.1212,0,888
-0.090982,1.144463,9.672871,-0.002684,0.008175,-0.001652,-24.24,17.04,-18.24,53.4043,-6.1937,1.0045,55.567165,37.55927,210.1212,0,898
-0.095771,1.103761,9.579494,-0.017345,0.006342,-0.009593,-25.32,17.16,-17.88,53.4117,-6.1767,1.0061,55.567165,37.55927,210.1212,0,908
-0.217879,1.106155,9.730332,-0.021621,0.011229,-0.010204,-25.32,17.16,-17.88,53.4117,-6.1767,1.0061,55.567165,37.55927,210.1212,0,918
-0.201119,1.02475,9.859624,-0.003295,0.002066,-0.005928,-25.14,16.86,-18.6,53.4117,-6.1767,1.0061,55.567165,37.55927,210.1212,0,929
-0.201119,1.02475,9.859624,-0.003295,0.002066,-0.005928,-25.08,16.8,-18.6,53.4117,-6.1767,1.0061,55.567165,37.55927,210.1212,0,938
-0.131685,0.943344,9.73991,0.00709,-0.004043,0.001403,-25.08,16.8,-18.6,53.4117,-6.1767,1.0061,55.567165,37.55927,210.1212,0,948
-0.220273,1.012778,9.783007,-0.008182,0.00512,-0.00043,-24.9,16.98,-19.32,53.2502,-6.2164,0.9891,55.567165,37.55927,210.1212,0,958
-0.208302,1.029538,9.818921,-0.002073,0.002677,0.003235,-24.9,16.98,-19.32,53.2502,-6.2164,0.9891,55.567165,37.55927,210.1212,0,968
-0.179571,1.036721,9.715967,0.00709,-0.005264,0.004457,-24.42,16.56,-19.38,53.2502,-6.2164,0.9891,55.567165,37.55927,210.1212,0,979
-0.179571,1.036721,9.715967,0.00709,-0.005264,0.004457,-24.42,16.56,-19.38,53.2502,-6.2164,0.9891,55.567165,37.55927,210.1212,0,988
-0.155628,1.043904,9.699207,0.007701,0.002677,0.000181,-24.48,16.38,-19.08,53.64,-6.1857,0.9957,55.567165,37.55927,210.1212,0,999
-0.141262,1.091789,9.778218,-0.000241,-0.002821,-0.005317,-24.78,15.9,-18.9,53.64,-6.1857,0.9957,55.567165,37.55927,210.1212,0,1009
-0.141262,1.091789,9.778218,-0.002073,-0.002821,-0.005317,-24.78,15.9,-18.9,53.64,-6.1857,0.9957,55.567165,37.55927,210.1212,0,1018
-0.107742,1.019961,9.708784,-0.004517,-0.002821,-0.006539,-23.94,16.14,-19.38,53.64,-6.1857,0.9957,55.567165,37.55927,210.1212,0,1029
-0.210696,1.043904,9.783007,-0.005128,0.006342,-0.005317,-24.24,16.8,-19.5,52.1638,-6.1631,1.0033,55.567165,37.55927,210.1212,0,1038
-0.268159,1.101366,9.811738,0.015642,0.004509,0.009344,-24.24,16.8,-19.5,52.1638,-6.1631,1.0033,55.567165,37.55927,210.1212,0,1048
-0.268159,1.101366,9.811738,0.026027,0.003899,0.008122,-24.24,16.92,-19.02,52.1638,-6.1631,1.0033,55.567165,37.55927,210.1212,0,1059
-0.191542,1.134886,9.579494,0.009533,0.003899,0.003846,-24.24,16.92,-19.02,52.1638,-6.1631,1.0033,55.567165,37.55927,210.1212,0,1068
-0.193936,1.154041,9.550762,-0.002684,-0.000988,-0.005928,-24.06,17.04,-18.96,52.1677,-6.1538,1.003,55.567165,37.55927,210.1212,0,1078
-0.191542,1.142069,9.663293,-0.000852,-0.005264,-0.001652,-23.88,16.68,-18.84,52.1677,-6.1538,1.003,55.567165,37.55927,210.1212,0,1088
-0.162811,1.036721,9.613013,-0.017956,-0.000988,-0.001652,-23.88,16.68,-18.84,52.1677,-6.1538,1.003,55.567165,37.55927,210.1212,0,1098
-0.162811,1.036721,9.613013,-0.033227,0.002066,-0.00043,-23.7,16.98,-19.14,52.1677,-6.1538,1.003,55.567165,37.55927,210.1212,0,1108
-0.179571,1.00799,9.763853,-0.032006,-0.000988,0.000181,-23.7,16.98,-19.14,52.1677,-6.1538,1.003,55.567165,37.55927,210.1212,0,1118
-0.174782,1.010384,9.950606,-0.012458,-0.003432,0.002624,-24.66,17.16,-18.66,53.2556,-6.2569,1.0424,55.567165,37.55927,210.1212,0,1128
-0.119714,0.960104,9.907509,-0.001462,-0.010762,0.000792,-24.72,16.98,-18.84,53.2556,-6.2569,1.0424,55.567165,37.55927,210.1212,0,1138
-0.141262,1.015173,9.816526,-0.000241,-0.000988,-0.008371,-24.72,16.98,-18.84,53.2556,-6.2569,1.0424,55.567165,37.55927,210.1212,0,1148
-0.141262,1.015173,9.816526,0.002203,-0.005875,-0.00776,-24.36,17.46,-19.2,53.2556,-6.2569,1.0424,55.567165,37.55927,210.1212,0,1158
-0.205908,0.996018,9.90272,0.009533,-0.00893,-0.004706,-24.36,17.46,-19.2,53.2556,-6.2569,1.0424,55.567165,37.55927,210.1212,0,1168
-0.172388,0.962499,9.826104,0.009533,-0.00893,-0.004706,-24.06,17.28,-19.56,52.0274,-6.1903,1.0322,55.567165,37.55927,210.1212,0,1178
-0.181965,0.964893,9.763853,0.01442,-0.017482,0.003846,-24.06,17.28,-19.56,52.0274,-6.1903,1.0322,55.567165,37.55927,210.1212,0,1188
-0.181965,0.964893,9.763853,0.007701,-0.005875,-0.00043,-23.88,16.68,-19.56,52.0274,-6.1903,1.0322,55.567165,37.55927,210.1212,0,1198
-0.196331,1.02475,9.830893,0.012587,-0.000988,0.002624,-23.88,16.68,-19.56,52.0274,-6.1903,1.0322,55.567165,37.55927,210.1212,0,1208
-0.146051,1.036721,9.672871,0.02847,-0.007708,0.008733,-23.88,16.2,-19.08,53.674,-6.1148,1.001,55.567165,37.55927,210.1212,0,1218
-0.210696,1.1708,9.553157,0.023583,-0.000378,0.010566,-23.88,16.2,-19.08,53.674,-6.1148,1.001,55.567165,37.55927,210.1212,0,1228
-0.210696,1.1708,9.553157,0.008922,0.010007,0.006289,-24.12,16.38,-19.32,53.674,-6.1148,1.001,55.567165,37.55927,210.1212,0,1239
-0.196331,1.209109,9.603436,0.003425,0.003899,0.010566,-24.12,16.38,-19.32,53.674,-6.1148,1.001,55.567165,37.55927,210.1212,0,1249
-0.112531,1.259389,9.615408,0.001592,0.001455,0.000181,-24.24,17.34,-19.68,52.0683,-6.0648,0.9978,55.567165,37.55927,210.1212,0,1258
-0.129291,1.130098,9.577099,-0.009404,-0.007097,-0.004095,-24.24,17.34,-19.68,52.0683,-6.0648,0.9978,55.567165,37.55927,210.1212,0,1268
-0.129291,1.130098,9.577099,-0.009404,-0.007097,-0.004095,-24.18,16.86,-19.26,52.0683,-6.0648,0.9978,55.567165,37.55927,210.1212,0,1279
-0.189148,1.077424,9.751882,-0.030784,0.007564,-0.001652,-24.18,16.32,-18.72,52.0683,-6.0648,0.9978,55.567165,37.55927,210.1212,0,1288
-0.148445,0.993624,9.73991,-0.031395,0.013672,-0.00043,-24.18,16.32,-18.72,52.0683,-6.0648,0.9978,55.567165,37.55927,210.1212,0,1298
-0.148445,0.993624,9.73991,-0.033838,0.005731,0.002013,-24.18,16.32,-19.68,53.4841,-6.2069,0.9928,55.567165,37.55927,210.1212,0,1308
-0.181965,1.015173,9.881172,-0.02773,-0.001599,-0.006539,-24.18,16.32,-19.68,53.4841,-6.2069,0.9928,55.567165,37.55927,210.1212,0,1318
-0.210696,1.055875,9.897932,-0.006349,-0.00221,-0.004095,-24.54,16.92,-20.1,53.4841,-6.2069,0.9928,55.567165,37.55927,210.1212,0,1328
-0.193936,1.022355,9.754275,0.007701,-0.015038,-0.001041,-24.54,16.92,-20.1,53.4841,-6.2069,0.9928,55.567165,37.55927,210.1212,0,1339
-0.193936,1.022355,9.754275,0.006479,-0.00954,0.008122,-24.9,16.68,-19.74,53.1147,-6.2056,0.9845,55.567165,37.55927,210.1212,0,1348
-0.191542,0.993624,9.694419,-0.011236,0.006953,0.016063,-24.9,16.68,-19.74,53.1147,-6.2056,0.9845,55.567165,37.55927,210.1212,0,1358
-0.150839,0.986441,9.866806,-0.011236,0.012451,0.021561,-24.42,16.68,-19.26,53.1147,-6.2056,0.9845,55.567165,37.55927,210.1212,0,1368
-0.074223,0.952921,9.77343,-0.003295,0.007564,0.015452,-24.42,16.68,-19.26,53.1147,-6.2056,0.9845,55.567165,37.55927,210.1212,0,1379
-0.074223,0.952921,9.77343,0.005868,-0.008319,0.005068,-24.06,16.86,-18.96,52.1476,-6.1863,0.9889,55.567165,37.55927,210.1212,0,1388
-0.134079,1.012778,9.811738,0.004646,-0.013206,-0.011426,-24.06,16.86,-18.96,52.1476,-6.1863,0.9889,55.567165,37.55927,210.1212,0,1398
-0.196331,1.101366,9.854836,0.005257,-0.005875,-0.016923,-24.36,16.98,-18.6,52.1476,-6.1863,0.9889,55.567165,37.55927,210.1212,0,1408
-0.162811,1.055875,9.694419,0.009533,-0.010151,-0.013258,-24.36,16.98,-18.6,52.1476,-6.1863,0.9889,55.567165,37.55927,210.1212,0,1419
-0.237033,1.079818,9.672871,-0.000241,-0.004043,-0.003484,-24.96,16.68,-18.72,53.2894,-6.1005,0.966,55.567165,37.55927,210.1212,0,1428
-0.237033,1.079818,9.672871,-0.016734,0.017338,0.001403,-24.96,16.68,-18.72,53.2894,-6.1005,0.966,55.567165,37.55927,210.1212,0,1438
-0.284919,1.067847,9.826104,-0.008182,0.017948,0.0069,-24.96,17.16,-18.9,53.2894,-6.1005,0.966,55.567165,37.55927,210.1212,0,1448
-0.196331,0.986441,9.814133,0.004646,0.00512,0.008122,-24.96,17.16,-18.9,53.2894,-6.1005,0.966,55.567165,37.55927,210.1212,0,1458
-0.198725,1.005595,9.802161,0.010144,-0.001599,-0.00043,-23.88,17.34,-19.32,52.181,-6.0887,0.9699,55.567165,37.55927,210.1212,0,1468
-0.222668,1.04151,9.833286,0.013809,-0.000378,-0.002874,-23.88,17.34,-19.32,52.181,-6.0887,0.9699,55.567165,37.55927,210.1212,0,1478
-0.222668,1.04151,9.833286,0.019307,-0.002821,0.002013,-23.94,16.86,-18.9,52.181,-6.0887,0.9699,55.567165,37.55927,210.1212,0,1488
-0.143656,1.067847,9.761458,0.019918,-0.008319,0.009344,-23.94,16.86,-18.9,52.181,-6.0887,0.9699,55.567165,37.55927,210.1212,0,1498
-0.131685,1.103761,9.522031,0.002814,-0.010151,0.008122,-24.72,17.28,-18.3,53.4627,-6.0848,1.042,55.567165,37.55927,210.1212,0,1508
-0.203513,1.173195,9.620196,-0.011236,-0.000378,0.006289,-24.72,17.28,-18.3,53.4627,-6.0848,1.042,55.567165,37.55927,210.1212,0,1519
-0.155628,1.122915,9.684841,-0.011236,-0.000378,0.006289,-24.84,16.68,-18.84,53.4627,-6.0848,1.042,55.567165,37.55927,210.1212,0,1528
-0.155628,1.122915,9.684841,-0.008793,0.000844,0.012398,-24.84,16.68,-18.84,53.4627,-6.0848,1.042,55.567165,37.55927,210.1212,0,1538
-0.10056,1.036721,9.680053,-0.013069,-0.005264,0.009955,-24.48,16.38,-18.42,53.8257,-6.1302,1.0364,55.567165,37.55927,210.1212,0,1548
-0.158022,0.984047,9.768641,-0.020399,0.003288,0.000181,-24.48,16.38,-18.42,53.8257,-6.1302,1.0364,55.567165,37.55927,210.1212,0,1558
-0.181965,0.97447,9.907509,-0.027119,0.007564,-0.003484,-24,16.5,-19.14,53.8257,-6.1302,1.0364,55.567165,37.55927,210.1212,0,1568
-0.105348,0.976864,9.754275,-0.016123,0.009396,-0.005928,-24,16.5,-19.14,53.8257,-6.1302,1.0364,55.567165,37.55927,210.1212,0,1578
-0.105348,0.976864,9.754275,-0.015512,0.006953,-0.006539,-24.12,16.26,-19.74,53.5143,-6.1651,1.0161,55.567165,37.55927,210.1212,0,1588
-0.129291,0.984047,9.751882,-0.02101,0.00512,-0.00776,-24.12,16.26,-19.74,53.5143,-6.1651,1.0161,55.567165,37.55927,210.1212,0,1598
-0.22985,1.031933,9.909904,-0.011236,0.010007,-0.002874,-24.54,16.92,-19.2,53.5143,-6.1651,1.0161,55.567165,37.55927,210.1212,0,1608
-0.22985,1.031933,9.909904,0.015642,-0.004654,0.012398,-24.54,16.92,-19.2,53.5143,-6.1651,1.0161,55.567165,37.55927,210.1212,0,1618
-0.158022,1.003201,9.804555,0.015642,-0.004654,0.012398,-24.54,16.92,-19.2,53.5143,-6.1651,1.0161,55.567165,37.55927,210.1212,0,1628
-0.158022,1.003201,9.804555,0.015642,-0.004654,0.012398,-24.54,16.92,-19.2,53.5143,-6.1651,1.0161,55.567165,37.55927,210.1212,0,1639
-0.141262,1.00799,9.778218,0.019307,-0.010151,0.013009,-24.18,16.92,-20.1,52.0534,-6.0929,0.9931,55.567165,37.55927,210.1212,0,1648
-0.153234,1.02475,9.804555,0.013809,0.000844,0.005679,-24,15.84,-19.92,52.0534,-6.0929,0.9931,55.567165,37.55927,210.1212,0,1658
-0.153234,1.02475,9.804555,0.013809,0.000844,0.005679,-24,15.84,-19.92,52.0534,-6.0929,0.9931,55.567165,37.55927,210.1212,0,1668
-0.131685,1.051087,9.713573,0.008922,0.001455,0.000181,-24.54,15.9,-19.92,54.6485,-6.0558,0.9815,55.567165,37.55927,210.1212,0,1678
-0.131685,1.051087,9.713573,0.008922,0.001455,0.000181,-24.54,15.9,-19.92,54.6485,-6.0558,0.9815,55.567165,37.55927,210.1212,0,1688
-0.217879,1.118126,9.766247,0.002203,-0.000378,-0.002263,-24,16.74,-19.26,54.6485,-6.0558,0.9815,55.567165,37.55927,210.1212,0,1698
-0.198725,1.113338,9.668081,0.025416,-0.01626,0.005068,-24,16.74,-19.26,54.6485,-6.0558,0.9815,55.567165,37.55927,210.1212,0,1708
-0.205908,1.125309,9.763853,0.019918,-0.006486,0.001403,-23.88,16.98,-19.2,52.2014,-6.051,0.9796,55.567165,37.55927,210.1212,0,1718
-0.160416,1.079818,9.842864,0.010144,0.002066,0.006289,-23.88,16.98,-19.2,52.2014,-6.051,0.9796,55.567165,37.55927,210.1212,0,1728
-0.160416,1.079818,9.842864,0.02114,0.011229,0.0069,-24.24,17.04,-19.56,52.2014,-6.051,0.9796,55.567165,37.55927,210.1212,0,1738
-0.079011,1.077424,9.754275,0.026027,-0.005875,-0.002263,-24.24,17.04,-19.56,52.2014,-6.051,0.9796,55.567165,37.55927,210.1212,0,1748
-0.153234,1.098972,9.703996,0.023583,-0.010762,-0.001652,-23.94,17.28,-19.02,52.1441,-6.2107,1.0047,55.567165,37.55927,210.1212,0,1758
-0.153234,1.098972,9.703996,0.023583,-0.010762,-0.001652,-23.94,17.28,-19.02,52.1441,-6.2107,1.0047,55.567165,37.55927,210.1212,0,1768
-0.196331,1.223474,9.62259,0.033357,0.003899,0.022172,-23.82,17.58,-19.02,52.1441,-6.2107,1.0047,55.567165,37.55927,210.1212,0,1779
-0.148445,1.352765,9.423865,0.031524,-0.00221,0.028281,-23.82,17.58,-19.02,52.1441,-6.2107,1.0047,55.567165,37.55927,210.1212,0,1788
-0.131685,1.410228,9.471751,0.013809,0.010618,0.017896,-23.94,17.58,-19.44,50.6832,-6.2708,0.9919,55.567165,37.55927,210.1212,0,1798
-0.136474,1.37192,9.514848,-0.000241,0.021003,0.005068,-23.94,17.58,-19.44,50.6832,-6.2708,0.9919,55.567165,37.55927,210.1212,0,1808
-0.136474,1.37192,9.514848,-0.01368,0.020392,-0.011426,-24.24,16.98,-19.14,50.6832,-6.2708,0.9919,55.567165,37.55927,210.1212,0,1818
-0.102954,1.225869,9.505271,-0.02773,0.01184,-0.024865,-24.24,16.98,-19.14,50.6832,-6.2708,0.9919,55.567165,37.55927,210.1212,0,1829
-0.155628,1.230657,9.749487,-0.02834,0.008175,-0.036471,-24.36,16.68,-18.96,51.9943,-6.5515,0.9925,55.567165,37.55927,210.1212,0,1838
-0.225062,1.209109,9.929058,-0.002684,-0.019314,-0.030973,-24.36,16.68,-18.96,51.9943,-6.5515,0.9925,55.567165,37.55927,210.1212,0,1848
-0.225062,1.22108,9.883567,0.015031,-0.034586,-0.02181,-23.94,16.74,-19.14,51.9943,-6.5515,0.9925,55.567165,37.55927,210.1212,0,1858
-0.225062,1.22108,9.883567,0.010755,-0.03031,-0.011426,-23.94,16.74,-19.14,51.9943,-6.5515,0.9925,55.567165,37.55927,210.1212,0,1868
-0.256187,1.297697,9.905115,0.005257,-0.015038,0.001403,-24.66,17.16,-18.3,53.1662,-6.7658,0.9738,55.567165,37.55927,210.1212,0,1878
-0.28013,1.307274,9.98652,0.009533,-0.016871,0.009344,-24.66,17.16,-18.3,53.1662,-6.7658,0.9738,55.567165,37.55927,210.1212,0,1888
-0.215485,1.2546,9.979338,0.02114,-0.020536,0.011787,-24.96,16.56,-18.72,53.1662,-6.7658,0.9738,55.567165,37.55927,210.1212,0,1898
-0.191542,1.259389,9.998491,0.033357,-0.017482,0.010566,-24.9,16.32,-19.14,53.1662,-6.7658,0.9738,55.567165,37.55927,210.1212,0,1908
-0.191542,1.259389,9.998491,0.040687,-0.008319,0.014231,-24.9,16.32,-19.14,53.1662,-6.7658,0.9738,55.567165,37.55927,210.1212,0,1918
-0.227456,1.297697,10.022434,0.065733,-0.006486,0.022172,-24.42,16.86,-19.8,51.6497,-6.9803,0.9744,55.567165,37.55927,210.1212,0,1928
-0.205908,1.424594,9.900327,0.065733,-0.006486,0.022172,-24.42,16.86,-19.8,51.6497,-6.9803,0.9744,55.567165,37.55927,210.1212,0,1938
-0.141262,1.541913,9.761458,0.080394,-0.005875,0.027059,-24.36,16.86,-19.26,51.6497,-6.9803,0.9744,55.567165,37.55927,210.1212,0,1948
-0.110137,1.728666,9.624985,0.082837,0.001455,0.02767,-24.42,16.14,-19.2,51.6497,-6.9803,0.9744,55.567165,37.55927,210.1212,0,1958
-0.110137,1.728666,9.624985,0.083448,0.002677,0.028281,-24.42,16.14,-19.2,51.6497,-6.9803,0.9744,55.567165,37.55927,210.1212,0,1968
-0.040703,1.822043,9.502876,0.074896,0.002677,0.018507,-25.14,16.56,-18.96,52.8381,-7.2554,1.0321,55.567165,37.55927,210.1212,0,1978
-0.059857,1.7981,9.308941,0.051683,0.012451,0.011176,-25.14,16.56,-18.96,52.8381,-7.2554,1.0321,55.567165,37.55927,210.1212,0,1989
-0.059857,1.7981,9.308941,0.022972,0.017338,0.008733,-25.2,17.28,-19.32,52.8381,-7.2554,1.0321,55.567165,37.55927,210.1212,0,1998
-0.0838,1.747821,9.416683,0.005868,0.031998,0.011176,-24.66,17.22,-19.32,52.8381,-7.2554,1.0321,55.567165,37.55927,210.1212,0,2008
-0.038308,1.644867,9.368797,-0.009404,0.031387,0.003235,-24.66,17.22,-19.32,52.8381,-7.2554,1.0321,55.567165,37.55927,210.1212,0,2019
-0.052674,1.582616,9.402317,-0.02773,0.016116,0.000792,-24.42,16.26,-18.9,53.112,-7.4424,1.0458,55.567165,37.55927,210.1212,0,2028
-0.146051,1.596981,9.519637,-0.035671,0.013062,-0.005928,-24.42,16.26,-18.9,53.112,-7.4424,1.0458,55.567165,37.55927,210.1212,0,2038
-0.146051,1.596981,9.519637,-0.035671,0.013062,-0.005928,-24.24,15.9,-19.5,53.112,-7.4424,1.0458,55.567165,37.55927,210.1212,0,2048
-0.208302,1.558673,9.500483,-0.039336,-0.005264,-0.00776,-24.36,16.32,-19.26,53.112,-7.4424,1.0458,55.567165,37.55927,210.1212,0,2058
-0.239427,1.55149,9.620196,-0.053386,-0.014427,-0.016313,-24.36,16.32,-19.26,53.112,-7.4424,1.0458,55.567165,37.55927,210.1212,0,2068
-0.239427,1.55149,9.620196,-0.066825,-0.00954,-0.020589,-24.72,16.62,-19.68,52.6462,-7.3997,1.1012,55.567165,37.55927,210.1212,0,2078
-0.234639,1.503605,9.885961,-0.065603,0.004509,-0.016923,-24.72,16.62,-19.68,52.6462,-7.3997,1.1012,55.567165,37.55927,210.1212,0,2088
-0.22985,1.462902,9.976943,-0.046056,-0.00893,-0.015091,-24.6,16.86,-19.08,52.6462,-7.3997,1.1012,55.567165,37.55927,210.1212,0,2099
-0.205908,1.407834,9.991309,-0.024064,-0.021758,-0.012036,-24.42,16.8,-19.02,52.6462,-7.3997,1.1012,55.567165,37.55927,210.1212,0,2108
-0.26337,1.400651,10.111023,-0.018567,-0.00893,-0.004706,-24.42,16.8,-19.02,52.6462,-7.3997,1.1012,55.567165,37.55927,210.1212,0,2118
-0.26337,1.400651,10.111023,0.002814,0.007564,0.008733,-24.48,16.44,-19.2,53.2137,-7.2513,1.0895,55.567165,37.55927,210.1212,0,2128
-0.232245,1.419805,10.082292,0.02114,0.001455,0.010566,-24.48,16.44,-19.2,53.2137,-7.2513,1.0895,55.567165,37.55927,210.1212,0,2138
-0.237033,1.465296,9.998491,0.0358,0.004509,0.015452,-24.3,16.44,-19.02,53.2137,-7.2513,1.0895,55.567165,37.55927,210.1212,0,2149
-0.241822,1.532336,9.933846,0.048018,0.011229,0.019118,-24.42,16.5,-18.84,53.2137,-7.2513,1.0895,55.567165,37.55927,210.1212,0,2158
-0.241822,1.532336,9.933846,0.048018,0.011229,0.019118,-24.42,16.5,-18.84,53.2137,-7.2513,1.0895,55.567165,37.55927,210.1212,0,2168
-0.160416,1.661627,9.658504,0.0639,0.005731,0.022783,-24.3,17.16,-18.84,51.7365,-7.2548,1.0714,55.567165,37.55927,210.1212,0,2178
-0.134079,1.690358,9.414289,0.054737,0.002066,0.017285,-24.3,17.16,-18.84,51.7365,-7.2548,1.0714,55.567165,37.55927,210.1212,0,2189
-0.138868,1.755004,9.399923,0.02847,0.01917,0.014842,-24.6,17.4,-19.62,51.7365,-7.2548,1.0714,55.567165,37.55927,210.1212,0,2198
-0.141262,1.735849,9.474146,0.008311,0.025279,0.011176,-24.6,17.46,-19.74,51.7365,-7.2548,1.0714,55.567165,37.55927,210.1212,0,2208
-0.141262,1.735849,9.474146,-0.001462,0.022224,0.011176,-24.6,17.46,-19.74,51.7365,-7.2548,1.0714,55.567165,37.55927,210.1212,0,2218
-0.071828,1.690358,9.44302,-0.003295,0.006953,0.004457,-24.06,16.86,-19.44,51.6846,-7.4023,1.0908,55.567165,37.55927,210.1212,0,2228
-0.076617,1.68557,9.445415,-0.011847,-0.001599,-0.004706,-24.06,16.86,-19.44,51.6846,-7.4023,1.0908,55.567165,37.55927,210.1212,0,2238
-0.093377,1.632896,9.483723,-0.023454,-0.004654,-0.004095,-24.18,17.04,-19.02,51.6846,-7.4023,1.0908,55.567165,37.55927,210.1212,0,2248
-0.095771,1.582616,9.42626,-0.04239,-0.004043,-0.002263,-24.54,16.86,-19.02,51.6846,-7.4023,1.0908,55.567165,37.55927,210.1212,0,2258
-0.095771,1.582616,9.42626,-0.068658,0.010007,-0.003484,-24.54,16.86,-19.02,51.6846,-7.4023,1.0908,55.567165,37.55927,210.1212,0,2269
-0.153234,1.570644,9.512454,-0.085151,0.009396,-0.001041,-25.02,16.86,-18.72,52.8198,-7.4028,1.128,55.567165,37.55927,210.1212,0,2278
-0.205908,1.491633,9.893144,-0.071712,0.003288,-0.004706,-25.02,16.86,-18.72,52.8198,-7.4028,1.128,55.567165,37.55927,210.1212,0,2288
-0.21309,1.417411,9.938635,-0.046056,-0.003432,-0.004706,-24.84,16.86,-18.36,52.8198,-7.4028,1.128,55.567165,37.55927,210.1212,0,2298
-0.244216,1.364737,9.933846,-0.030784,-0.011984,-0.008371,-25.08,16.74,-18.78,52.8198,-7.4028,1.128,55.567165,37.55927,210.1212,0,2308
-0.244216,1.364737,9.933846,-0.012458,-0.004654,-0.002263,-25.08,16.74,-18.78,52.8198,-7.4028,1.128,55.567165,37.55927,210.1212,0,2318
-0.275342,1.386285,9.988914,0.005868,-0.001599,-0.001041,-24.9,16.62,-18.78,52.8888,-7.2427,1.1375,55.567165,37.55927,210.1212,0,2329
-0.294496,1.345583,9.838076,0.016864,-0.000378,0.002013,-24.9,16.62,-18.78,52.8888,-7.2427,1.1375,55.567165,37.55927,210.1212,0,2339
-0.260976,1.352765,9.804555,0.016864,-0.000378,0.002013,-24.9,16.98,-18.9,52.8888,-7.2427,1.1375,55.567165,37.55927,210.1212,0,2348
-0.24661,1.510787,9.881172,0.022361,0.001455,-0.001041,-24.9,16.98,-18.9,52.8888,-7.2427,1.1375,55.567165,37.55927,210.1212,0,2358
-0.24661,1.510787,9.881172,0.034579,0.001455,0.003846,-25.14,17.1,-19.62,52.736,-7.2187,1.1284,55.567165,37.55927,210.1212,0,2368
-0.162811,1.606559,9.778218,0.051072,-0.006486,0.000181,-25.14,17.1,-19.62,52.736,-7.2187,1.1284,55.567165,37.55927,210.1212,0,2378
-0.102954,1.611347,9.641745,0.041909,-0.012595,0.004457,-24.84,16.8,-19.56,52.736,-7.2187,1.1284,55.567165,37.55927,210.1212,0,2389
-0.141262,1.731061,9.680053,0.016864,0.003288,0.004457,-24.84,16.8,-19.56,52.736,-7.2187,1.1284,55.567165,37.55927,210.1212,0,2398
-0.141262,1.731061,9.680053,0.002814,0.017948,0.013009,-24.48,16.44,-19.26,53.2091,-7.3013,1.1273,55.567165,37.55927,210.1212,0,2408
-0.143656,1.762186,9.641745,0.002814,0.017948,0.013009,-24.48,16.44,-19.26,53.2091,-7.3013,1.1273,55.567165,37.55927,210.1212,0,2418
-0.136474,1.800495,9.658504,-0.003295,-0.000988,0.005679,-24.84,16.74,-19.32,53.2091,-7.3013,1.1273,55.567165,37.55927,210.1212,0,2428
-0.153234,1.757398,9.634562,-0.004517,-0.011984,0.001403,-24.84,16.74,-19.32,53.2091,-7.3013,1.1273,55.567165,37.55927,210.1212,0,2438
-0.162811,1.68557,9.613013,-0.002073,-0.010151,0.003846,-25.68,16.86,-19.14,53.2091,-7.3013,1.1273,55.567165,37.55927,210.1212,0,2448
-0.162811,1.68557,9.613013,-0.004517,-0.003432,0.009344,-25.68,16.86,-19.14,53.2091,-7.3013,1.1273,55.567165,37.55927,210.1212,0,2458
-0.143656,1.546702,9.541185,-0.009404,0.002677,0.02095,-25.62,16.8,-19.08,53.9083,-7.3403,1.1265,55.567165,37.55927,210.1212,0,2468
-0.162811,1.541913,9.603436,-0.019178,0.012451,0.019729,-25.62,16.8,-19.08,53.9083,-7.3403,1.1265,55.567165,37.55927,210.1212,0,2478
-0.146051,1.53473,9.689631,-0.015512,0.018559,0.018507,-25.2,17.34,-19.02,53.9083,-7.3403,1.1265,55.567165,37.55927,210.1212,0,2488
-0.117319,1.580221,9.617802,0.00037,0.003899,0.008122,-25.2,17.34,-19.02,53.9083,-7.3403,1.1265,55.567165,37.55927,210.1212,0,2498
-0.117319,1.580221,9.617802,0.015642,-0.00954,-0.001041,-25.02,17.64,-19.5,51.3596,-7.5497,1.1086,55.567165,37.55927,210.1212,0,2509
-0.169993,1.65205,9.433443,0.008311,-0.004654,-0.01448,-25.02,17.64,-19.5,51.3596,-7.5497,1.1086,55.567165,37.55927,210.1212,0,2518
-0.189148,1.637684,9.371192,-0.007571,-0.001599,-0.019367,-24.72,17.28,-19.8,51.3596,-7.5497,1.1086,55.567165,37.55927,210.1212,0,2529
-0.174782,1.613741,9.419077,-0.025897,-0.003432,-0.020589,-24.72,17.28,-19.8,51.3596,-7.5497,1.1086,55.567165,37.55927,210.1212,0,2538
-0.227456,1.549096,9.615408,-0.043001,-0.007097,-0.023032,-25.26,16.56,-19.86,52.2792,-8.2078,1.0449,55.567165,37.55927,210.1212,0,2548
-0.227456,1.549096,9.615408,-0.055829,0.002066,-0.024865,-25.26,16.56,-19.86,52.2792,-8.2078,1.0449,55.567165,37.55927,210.1212,0,2558
-0.217879,1.515576,9.871595,-0.044223,-0.001599,-0.013258,-26.22,16.44,-19.08,52.2792,-8.2078,1.0449,55.567165,37.55927,210.1212,0,2568
-0.239427,1.505999,9.98652,-0.018567,-0.018093,-0.008371,-26.22,16.44,-19.08,52.2792,-8.2078,1.0449,55.567165,37.55927,210.1212,0,2579
-0.299284,1.470085,9.91948,-0.002073,-0.02298,-0.001652,-26.22,16.26,-18.9,54.781,-8.6108,1.0364,55.567165,37.55927,210.1212,0,2588
-0.29689,1.494028,9.96976,-0.001462,-0.013206,-0.002263,-26.22,16.26,-18.9,54.781,-8.6108,1.0364,55.567165,37.55927,210.1212,0,2599
-0.29689,1.482056,9.943423,0.010755,-0.00893,0.000181,-25.74,16.26,-19.56,54.781,-8.6108,1.0364,55.567165,37.55927,210.1212,0,2609
-0.241822,1.482056,9.943423,0.010755,-0.00893,0.000181,-25.74,16.26,-19.56,54.781,-8.6108,1.0364,55.567165,37.55927,210.1212,0,2618
-0.143656,1.510787,9.787795,0.034579,-0.013206,0.018507,-25.68,15.72,-19.2,54.7356,-8.7618,1.072,55.567165,37.55927,210.1212,0,2628
-0.153234,1.656838,9.763853,0.033968,0.004509,0.024615,-25.68,15.72,-19.2,54.7356,-8.7618,1.072,55.567165,37.55927,210.1212,0,2638
-0.105348,1.709512,9.615408,0.038855,0.016116,0.026448,-26.22,15.72,-18.9,54.7356,-8.7618,1.072,55.567165,37.55927,210.1212,0,2648
-0.105348,1.709512,9.615408,0.051683,0.009396,0.028281,-26.22,15.72,-18.9,54.7356,-8.7618,1.072,55.567165,37.55927,210.1212,0,2659
0.002394,1.783735,9.395134,0.046796,0.002066,0.024005,-27.06,16.68,-19.98,54.1465,-8.8497,1.128,55.567165,37.55927,210.1212,0,2669
-0.01676,1.857957,9.328094,0.010755,0.009396,0.002013,-27.12,16.74,-20.28,54.1465,-8.8497,1.128,55.567165,37.55927,210.1212,0,2678
-0.01676,1.857957,9.328094,-0.033838,0.022835,0.013009,-27.12,16.74,-20.28,54.1465,-8.8497,1.128,55.567165,37.55927,210.1212,0,2688
-0.06704,1.810072,9.512454,-0.047277,0.01917,-0.011426,-26.22,16.92,-20.34,54.1465,-8.8497,1.128,55.567165,37.55927,210.1212,0,2698
0.023943,1.690358,9.562734,-0.049721,0.008175,-0.016313,-26.22,16.92,-20.34,54.1465,-8.8497,1.128,55.567165,37.55927,210.1212,0,2708
-0.021548,1.532336,9.684841,-0.047888,-0.006486,-0.015702,-25.8,16.92,-19.98,52.9588,-9.1774,1.052,55.567165,37.55927,210.1212,0,2718
-0.131685,1.434171,9.792584,-0.047888,0.001455,-0.00776,-26.34,16.62,-20.1,52.9588,-9.1774,1.052,55.567165,37.55927,210.1212,0,2729
-0.131685,1.434171,9.792584,-0.047888,0.001455,-0.00776,-26.34,16.62,-20.1,52.9588,-9.1774,1.052,55.567165,37.55927,210.1212,0,2738
-0.110137,1.362342,9.727939,-0.043001,0.002677,0.0069,-26.7,17.04,-19.92,52.9588,-9.1774,1.052,55.567165,37.55927,210.1212,0,2748
-0.126897,1.482056,9.787795,-0.037503,0.002677,0.0069,-26.7,17.04,-19.92,52.9588,-9.1774,1.052,55.567165,37.55927,210.1212,0,2758
-0.201119,1.522759,9.895537,-0.020399,-0.001599,0.001403,-26.52,17.1,-19.8,54.0425,-9.0487,1.0715,55.567165,37.55927,210.1212,0,2768
-0.189148,1.546702,9.711179,0.005868,-0.011373,0.000181,-26.64,17.04,-19.56,54.0425,-9.0487,1.0715,55.567165,37.55927,210.1212,0,2779
-0.189148,1.546702,9.711179,0.008922,-0.018093,-0.003484,-26.64,17.04,-19.56,54.0425,-9.0487,1.0715,55.567165,37.55927,210.1212,0,2788
-0.205908,1.582616,9.615408,-0.010625,-0.000378,-0.004095,-26.88,16.98,-19.62,54.0425,-9.0487,1.0715,55.567165,37.55927,210.1212,0,2798
-0.260976,1.60177,9.660899,-0.019178,0.013672,-0.001652,-26.88,16.98,-19.62,54.0425,-9.0487,1.0715,55.567165,37.55927,210.1212,0,2808
-0.260976,1.60177,9.660899,-0.022843,0.009396,-0.01448,-26.88,16.8,-20.16,54.0532,-9.0004,1.0522,55.567165,37.55927,210.1212,0,2818
-0.234639,1.65205,9.624985,-0.020399,0.000233,-0.024865,-26.88,16.8,-20.16,54.0532,-9.0004,1.0522,55.567165,37.55927,210.1212,0,2828
-0.26337,1.637684,9.692024,-0.020399,0.000233,-0.024865,-27.06,16.86,-20.22,54.0532,-9.0004,1.0522,55.567165,37.55927,210.1212,0,2838
-0.275342,1.620924,9.754275,-0.020399,-0.004654,-0.023032,-27.06,16.86,-20.22,54.0532,-9.0004,1.0522,55.567165,37.55927,210.1212,0,2848
-0.239427,1.529942,9.629773,-0.014901,0.007564,-0.002874,-27,17.1,-19.74,54.074,-8.9628,1.0655,55.567165,37.55927,210.1212,0,2858
-0.239427,1.529942,9.629773,-0.021621,0.010618,0.002013,-27,17.1,-19.74,54.074,-8.9628,1.0655,55.567165,37.55927,210.1212,0,2868
-0.251399,1.467691,9.670476,-0.025286,0.015505,0.005679,-27.18,17.04,-19.62,54.074,-8.9628,1.0655,55.567165,37.55927,210.1212,0,2878
-0.306467,1.467691,9.80695,-0.01368,0.009396,0.005068,-27.18,17.04,-19.62,54.074,-8.9628,1.0655,55.567165,37.55927,210.1212,0,2888
-0.28013,1.434171,9.771035,0.005868,-0.002821,0.001403,-27.24,16.86,-20.16,54.071,-9.0569,1.1436,55.567165,37.55927,210.1212,0,2898
-0.304073,1.472479,9.641745,0.011366,-0.005264,0.000181,-27.24,16.86,-20.16,54.071,-9.0569,1.1436,55.567165,37.55927,210.1212,0,2908
-0.304073,1.472479,9.641745,0.000981,0.000233,-0.00043,-27.24,16.62,-19.62,54.071,-9.0569,1.1436,55.567165,37.55927,210.1212,0,2919
-0.294496,1.472479,9.656111,-0.005738,0.002066,0.003235,-27.24,16.62,-19.62,54.071,-9.0569,1.1436,55.567165,37.55927,210.1212,0,2928
-0.210696,1.467691,9.699207,-0.002073,0.001455,0.007511,-27.54,16.38,-19.98,56.4616,-9.0274,1.2461,55.567165,37.55927,210.1212,0,2938
-0.134079,1.453325,9.617802,-0.00696,-0.011984,0.005068,-27.54,16.38,-19.98,56.4616,-9.0274,1.2461,55.567165,37.55927,210.1212,0,2949
-0.134079,1.467691,9.701602,-0.014901,-0.006486,0.005068,-27.36,16.38,-21.06,56.4616,-9.0274,1.2461,55.567165,37.55927,210.1212,0,2958
-0.134079,1.467691,9.701602,-0.011847,-0.000378,0.010566,-27.36,16.38,-21.06,56.4616,-9.0274,1.2461,55.567165,37.55927,210.1212,0,2968
-0.169993,1.470085,9.845258,0.00037,-0.004043,0.017896,-27.18,16.86,-20.22,54.1975,-8.9294,1.317,55.567165,37.55927,210.1212,0,2978
-0.095771,1.436565,9.75667,0.00037,-0.004043,0.017896,-27.18,16.86,-20.22,54.1975,-8.9294,1.317,55.567165,37.55927,210.1212,0,2988
-0.071828,1.467691,9.711179,0.00037,-0.00954,0.017896,-27.36,16.32,-19.98,54.1975,-8.9294,1.317,55.567165,37.55927,210.1212,0,2998
-0.124502,1.529942,9.771035,-0.005738,-0.00221,0.005679,-27.36,16.32,-19.98,54.1975,-8.9294,1.317,55.567165,37.55927,210.1212,0,3008
-0.124502,1.529942,9.771035,0.00037,-0.010151,0.009955,-27.54,15.96,-19.92,56.5394,-8.8313,1.241,55.567165,37.55927,210.1212,0,3018
-0.05028,1.61853,9.627379,-0.000852,-0.007097,0.003235,-27.54,15.96,-19.92,56.5394,-8.8313,1.241,55.567165,37.55927,210.1212,0,3028
-0.081405,1.63529,9.586677,-0.017345,-0.003432,-0.005928,-27.84,16.32,-19.98,56.5394,-8.8313,1.241,55.567165,37.55927,210.1212,0,3038
-0.138868,1.625713,9.692024,-0.017956,-0.003432,0.001403,-27.84,16.32,-19.98,56.5394,-8.8313,1.241,55.567165,37.55927,210.1212,0,3048
-0.126897,1.561067,9.70639,-0.011236,-0.006486,0.002624,-27.96,16.14,-19.62,56.4779,-8.8197,1.0838,55.567165,37.55927,210.1212,0,3059
-0.126897,1.561067,9.70639,-0.018567,0.001455,0.000181,-27.96,16.14,-19.62,56.4779,-8.8197,1.0838,55.567165,37.55927,210.1212,0,3068
-0.105348,1.460508,9.70639,-0.022843,0.010618,-0.003484,-27.96,16.32,-20.1,56.4779,-8.8197,1.0838,55.567165,37.55927,210.1212,0,3079
-0.198725,1.436565,9.823709,-0.016123,0.007564,-0.002263,-27.96,16.32,-20.1,56.4779,-8.8197,1.0838,55.567165,37.55927,210.1212,0,3088
-0.203513,1.398257,9.912297,0.000981,-0.005875,-0.004095,-28.56,16.56,-20.7,55.7803,-8.8675,0.9573,55.567165,37.55927,210.1212,0,3098
-0.189148,1.357554,9.838076,0.015031,-0.011373,-0.002874,-28.56,16.56,-20.7,55.7803,-8.8675,0.9573,55.567165,37.55927,210.1212,0,3108
-0.189148,1.357554,9.838076,0.022972,-0.013817,0.006289,-29.22,16.32,-20.16,55.7803,-8.8675,0.9573,55.567165,37.55927,210.1212,0,3118
-0.24661,1.376708,9.826104,0.026027,-0.011984,0.019118,-28.68,16.32,-19.86,55.7803,-8.8675,0.9573,55.567165,37.55927,210.1212,0,3128
-0.141262,1.324034,9.768641,0.026027,-0.011984,0.019118,-28.68,16.32,-19.86,55.7803,-8.8675,0.9573,55.567165,37.55927,210.1212,0,3138
-0.112531,1.347977,9.708784,0.02114,0.003899,0.023394,-28.62,16.5,-20.1,55.9876,-8.7878,0.9211,55.567165,37.55927,210.1212,0,3148
-0.150839,1.398257,9.689631,0.01442,0.010618,0.011787,-28.62,16.5,-20.1,55.9876,-8.7878,0.9211,55.567165,37.55927,210.1212,0,3159
-0.071828,1.510787,9.641745,0.026637,0.000233,0.009955,-28.5,16.26,-20.28,55.9876,-8.7878,0.9211,55.567165,37.55927,210.1212,0,3168
-0.071828,1.510787,9.641745,0.029081,-0.000378,0.002013,-28.86,16.56,-20.16,55.9876,-8.7878,0.9211,55.567165,37.55927,210.1212,0,3178
0.035914,1.65205,9.431048,0.013809,0.000233,-0.005317,-28.86,16.56,-20.16,55.9876,-8.7878,0.9211,55.567165,37.55927,210.1212,0,3188
-0.038308,1.644867,9.356826,-0.00696,0.01184,-0.004706,-28.38,16.38,-19.74,56.4954,-8.6189,0.9285,55.567165,37.55927,210.1212,0,3198
-0.138868,1.649655,9.423865,-0.026508,0.018559,0.002013,-28.38,16.38,-19.74,56.4954,-8.6189,0.9285,55.567165,37.55927,210.1212,0,3208
-0.138868,1.649655,9.423865,-0.032006,0.007564,0.007511,-28.26,16.08,-19.38,56.4954,-8.6189,0.9285,55.567165,37.55927,210.1212,0,3218
-0.124502,1.616136,9.550762,-0.02773,0.000844,-0.003484,-28.26,16.08,-19.38,56.4954,-8.6189,0.9285,55.567165,37.55927,210.1212,0,3228
-0.098165,1.582616,9.615408,-0.030784,-0.000378,-0.019978,-28.26,15.96,-19.26,56.63,-8.685,0.8408,55.567165,37.55927,210.1212,0,3238
-0.21309,1.458113,9.747093,-0.030173,0.001455,-0.019978,-28.26,15.96,-19.26,56.63,-8.685,0.8408,55.567165,37.55927,210.1212,0,3248
-0.21309,1.458113,9.747093,-0.02773,0.001455,-0.016313,-28.5,15.9,-19.68,56.63,-8.685,0.8408,55.567165,37.55927,210.1212,0,3258
-0.220273,1.367131,9.799767,-0.018567,0.001455,-0.008982,-28.5,15.9,-19.68,56.63,-8.685,0.8408,55.567165,37.55927,210.1212,0,3268
-0.217879,1.417411,9.802161,-0.016734,-0.007708,-0.015091,-28.92,16.26,-19.68,57.2753,-8.8017,0.7887,55.567165,37.55927,210.1212,0,3278
-0.174782,1.443748,9.878778,-0.006349,-0.015038,-0.016923,-28.92,16.26,-19.68,57.2753,-8.8017,0.7887,55.567165,37.55927,210.1212,0,3288
-0.174782,1.443748,9.878778,0.003425,-0.017482,-0.017534,-29.1,15.84,-19.62,57.2753,-8.8017,0.7887,55.567165,37.55927,210.1212,0,3298
-0.158022,1.474873,9.811738,-0.002684,-0.01626,-0.016923,-29.1,15.84,-19.62,57.2753,-8.8017,0.7887,55.567165,37.55927,210.1212,0,3309
-0.186753,1.462902,9.763853,-0.016123,-0.008319,-0.01448,-29.52,15.54,-20.34,58.1845,-8.7591,0.8391,55.567165,37.55927,210.1212,0,3318
-0.191542,1.426988,9.871595,-0.024064,0.000233,-0.00776,-29.52,15.54,-20.34,58.1845,-8.7591,0.8391,55.567165,37.55927,210.1212,0,3328
-0.191542,1.32164,9.890749,-0.016734,-0.004043,0.000181,-29.22,16.38,-20.22,58.1845,-8.7591,0.8391,55.567165,37.55927,210.1212,0,3339
-0.191542,1.32164,9.890749,-0.010625,-0.005875,0.003235,-29.22,16.38,-20.22,58.1845,-8.7591,0.8391,55.567165,37.55927,210.1212,0,3348
-0.198725,1.278543,9.876384,-0.010625,-0.005875,0.003235,-28.62,16.5,-19.92,56.008,-8.6837,0.8716,55.567165,37.55927,210.1212,0,3358
-0.258582,1.347977,9.864412,-0.009404,-0.000988,0.004457,-28.62,16.5,-19.92,56.008,-8.6837,0.8716,55.567165,37.55927,210.1212,0,3368
-0.265764,1.374314,9.737515,0.001592,-0.001599,0.003235,-29.64,15.6,-20.1,56.008,-8.6837,0.8716,55.567165,37.55927,210.1212,0,3378
-0.265764,1.374314,9.737515,0.008922,-0.005264,0.007511,-29.64,15.6,-20.1,56.008,-8.6837,0.8716,55.567165,37.55927,210.1212,0,3388
-0.284919,1.48445,9.687236,0.007701,0.000844,-0.003484,-29.94,15.18,-19.74,59.6956,-8.5033,0.9262,55.567165,37.55927,210.1212,0,3398
-0.332804,1.541913,9.653716,0.00037,0.006953,-0.006539,-29.94,15.18,-19.74,59.6956,-8.5033,0.9262,55.567165,37.55927,210.1212,0,3408
-0.351958,1.541913,9.677659,0.002814,0.010618,-0.004095,-29.64,15.42,-19.5,59.6956,-8.5033,0.9262,55.567165,37.55927,210.1212,0,3419
-0.34717,1.458113,9.584282,0.008922,0.01184,-0.004706,-29.34,15.36,-19.38,59.6956,-8.5033,0.9262,55.567165,37.55927,210.1212,0,3428
-0.34717,1.458113,9.584282,-0.009404,0.018559,-0.010204,-29.34,15.36,-19.38,59.6956,-8.5033,0.9262,55.567165,37.55927,210.1212,0,3438
-0.368718,1.364737,9.703996,-0.00696,0.023446,-0.006539,-29.88,14.94,-19.62,59.8016,-8.408,1.096,55.567165,37.55927,210.1212,0,3448
-0.294496,1.302486,9.866806,0.008922,0.013062,-0.004095,-29.88,14.94,-19.62,59.8016,-8.408,1.096,55.567165,37.55927,210.1212,0,3458
-0.220273,1.307274,9.742304,0.026027,-0.004043,-0.002874,-30.06,14.58,-19.14,59.8016,-8.408,1.096,55.567165,37.55927,210.1212,0,3468
-0.220273,1.307274,9.742304,0.024194,0.003899,0.003235,-30.36,14.34,-19.02,59.8016,-8.408,1.096,55.567165,37.55927,210.1212,0,3478
-0.311256,1.35516,9.701602,0.02175,0.007564,0.010566,-30.36,14.34,-19.02,59.8016,-8.408,1.096,55.567165,37.55927,210.1212,0,3488
-0.29689,1.386285,9.663293,0.027859,-0.000378,0.022783,-30.72,14.16,-19.26,62.294,-8.3899,1.3703,55.567165,37.55927,210.1212,0,3498
-0.172388,1.462902,9.565128,0.027859,-0.004043,0.022172,-30.72,14.16,-19.26,62.294,-8.3899,1.3703,55.567165,37.55927,210.1212,0,3509
-0.150839,1.438959,9.555551,0.020529,-0.003432,0.019118,-30.6,15,-19.56,62.294,-8.3899,1.3703,55.567165,37.55927,210.1212,0,3518
-0.095771,1.369525,9.567522,0.015031,-0.005264,0.021561,-30.48,15.84,-20.04,62.294,-8.3899,1.3703,55.567165,37.55927,210.1212,0,3528
-0.095771,1.369525,9.567522,0.009533,0.000233,0.018507,-30.48,15.84,-20.04,62.294,-8.3899,1.3703,55.567165,37.55927,210.1212,0,3538
0,1.407834,9.617802,-0.000241,0.003899,0.014842,-29.7,15.9,-19.86,58.595,-8.3488,1.4659,55.567165,37.55927,210.1212,0,3549
0.03352,1.400651,9.653716,-0.006349,0.008175,0.009344,-29.7,15.9,-19.86,58.595,-8.3488,1.4659,55.567165,37.55927,210.1212,0,3558
0.038308,1.446142,9.713573,-0.006349,0.008175,0.009344,-30.06,15.24,-19.26,58.595,-8.3488,1.4659,55.567165,37.55927,210.1212,0,3568
0.052674,1.491633,9.696813,-0.008182,0.001455,0.0069,-30.72,15.42,-19.5,58.595,-8.3488,1.4659,55.567165,37.55927,210.1212,0,3578
0.052674,1.491633,9.696813,-0.000852,-0.005875,0.008122,-30.72,15.42,-19.5,58.595,-8.3488,1.4659,55.567165,37.55927,210.1212,0,3588
0.05028,1.424594,9.598648,0.001592,-0.00954,0.008122,-30.54,14.58,-19.8,60.6973,-8.3284,1.2539,55.567165,37.55927,210.1212,0,3598
0.004789,1.467691,9.627379,-0.016734,-0.004654,0.011176,-30.54,14.58,-19.8,60.6973,-8.3284,1.2539,55.567165,37.55927,210.1212,0,3609
0.031126,1.415016,9.725544,-0.034449,0.002066,0.001403,-30.6,14.34,-20.04,60.6973,-8.3284,1.2539,55.567165,37.55927,210.1212,0,3618
0.023943,1.403045,9.828498,-0.038114,0.003899,-0.009593,-30.6,14.34,-20.04,60.6973,-8.3284,1.2539,55.567165,37.55927,210.1212,0,3628
0.023943,1.403045,9.828498,-0.035671,-0.007097,-0.02853,-30.96,14.52,-20.28,60.5647,-8.3482,0.9216,55.567165,37.55927,210.1212,0,3638
-0.069434,1.419805,9.912297,-0.025286,-0.02359,-0.034028,-30.96,14.52,-20.28,60.5647,-8.3482,0.9216,55.567165,37.55927,210.1212,0,3648
-0.122108,1.410228,9.917087,-0.017956,-0.027256,-0.032806,-31.08,14.52,-20.22,60.5647,-8.3482,0.9216,55.567165,37.55927,210.1212,0,3658
-0.174782,1.388679,9.854836,-0.018567,-0.018703,-0.023643,-31.08,14.52,-20.22,60.5647,-8.3482,0.9216,55.567165,37.55927,210.1212,0,3668
-0.174782,1.388679,9.854836,-0.020399,-0.011984,-0.015091,-31.44,14.82,-19.74,60.4791,-8.3087,0.6517,55.567165,37.55927,210.1212,0,3678
-0.225062,1.283331,9.890749,-0.02101,0.010618,0.005679,-31.44,14.82,-19.74,60.4791,-8.3087,0.6517,55.567165,37.55927,210.1212,0,3688
-0.249005,1.211503,10.020041,-0.005128,0.011229,0.018507,-31.74,14.76,-19.5,60.4791,-8.3087,0.6517,55.567165,37.55927,210.1212,0,3698
-0.181965,1.151646,9.996098,-0.005128,0.011229,0.018507,-31.74,14.76,-19.5,60.4791,-8.3087,0.6517,55.567165,37.55927,210.1212,0,3708
-0.208302,1.180378,9.921875,0.015031,0.012451,0.020339,-31.62,14.46,-20.4,62.6173,-8.2412,0.5671,55.567165,37.55927,210.1212,0,3718
-0.208302,1.180378,9.921875,0.038244,0.014894,0.003235,-31.62,14.46,-20.4,62.6173,-8.2412,0.5671,55.567165,37.55927,210.1212,0,3728
-0.29689,1.261783,9.737515,0.046796,0.014894,0.003846,-31.44,14.04,-20.64,62.6173,-8.2412,0.5671,55.567165,37.55927,210.1212,0,3738
-0.26337,1.264177,9.526819,0.044352,0.010618,0.001403,-31.44,14.04,-20.64,62.6173,-8.2412,0.5671,55.567165,37.55927,210.1212,0,3748
-0.294496,1.347977,9.356826,0.023583,0.025279,-0.005317,-31.44,13.86,-20.34,62.0026,-8.0362,0.6824,55.567165,37.55927,210.1212,0,3758
-0.292102,1.30488,9.423865,-0.005738,0.026501,-0.010815,-31.44,13.86,-20.34,62.0026,-8.0362,0.6824,55.567165,37.55927,210.1212,0,3769
-0.292102,1.30488,9.423865,-0.013069,0.024057,-0.008371,-31.14,14.52,-20.34,62.0026,-8.0362,0.6824,55.567165,37.55927,210.1212,0,3778
-0.258582,1.259389,9.517242,-0.023454,0.020392,-0.005928,-31.14,14.52,-20.34,62.0026,-8.0362,0.6824,55.567165,37.55927,210.1212,0,3789
-0.241822,1.22108,9.615408,-0.032617,0.013062,-0.00715,-31.44,14.82,-20.34,60.7354,-7.9128,0.8926,55.567165,37.55927,210.1212,0,3798
-0.258582,1.2546,9.850046,-0.032617,0.013062,-0.00715,-31.44,14.82,-20.34,60.7354,-7.9128,0.8926,55.567165,37.55927,210.1212,0,3808
-0.208302,1.23784,9.890749,-0.025286,0.003899,-0.001041,-31.92,13.8,-20.76,60.7354,-7.9128,0.8926,55.567165,37.55927,210.1212,0,3818
-0.208302,1.235446,9.830893,-0.006349,-0.004654,0.009344,-31.92,13.8,-20.76,60.7354,-7.9128,0.8926,55.567165,37.55927,210.1212,0,3829
-0.205908,1.235446,9.830893,-0.006349,-0.004654,0.009344,-31.68,13.26,-20.16,64.423,-7.7539,1.0963,55.567165,37.55927,210.1212,0,3839
-0.225062,1.283331,9.864412,-0.005128,-0.000378,0.009955,-31.68,13.26,-20.16,64.423,-7.7539,1.0963,55.567165,37.55927,210.1212,0,3848
-0.232245,1.328823,9.862018,0.012587,-0.002821,0.010566,-31.26,13.5,-19.5,64.423,-7.7539,1.0963,55.56717,37.559265,210.5415,0,3858
-0.196331,1.32164,9.754275,0.026027,-0.00221,0.014231,-31.26,13.5,-19.5,64.423,-7.7539,1.0963,55.56717,37.559265,210.5415,0,3868
-0.196331,1.32164,9.754275,0.026027,0.002066,0.014842,-31.86,13.68,-19.86,63.1007,-7.6165,1.1796,55.56717,37.559265,210.5415,0,3878
-0.222668,1.340794,9.699207,0.030303,-0.000988,0.01362,-31.86,13.68,-19.86,63.1007,-7.6165,1.1796,55.56717,37.559265,210.5415,0,3888
-0.191542,1.367131,9.627379,0.03519,-0.006486,0.016063,-32.34,13.32,-19.62,63.1007,-7.6165,1.1796,55.56717,37.559265,210.5415,0,3898
-0.131685,1.391074,9.536397,0.024805,0.004509,0.002624,-32.34,13.32,-19.62,63.1007,-7.6165,1.1796,55.56717,37.559265,210.5415,0,3909
-0.143656,1.477268,9.502876,0.000981,0.007564,-0.00043,-32.52,12.96,-19.74,65.1984,-7.6149,1.2172,55.56717,37.559265,210.5415,0,3919
-0.143656,1.477268,9.502876,-0.01368,0.004509,-0.005928,-32.52,12.96,-19.74,65.1984,-7.6149,1.2172,55.56717,37.559265,210.5415,0,3928
-0.160416,1.553884,9.565128,-0.023454,0.010618,-0.011426,-32.52,13.26,-19.98,65.1984,-7.6149,1.2172,55.56717,37.559265,210.5415,0,3938
-0.131685,1.570644,9.550762,-0.02834,-0.00221,-0.015091,-32.16,13.62,-20.16,65.1984,-7.6149,1.2172,55.56717,37.559265,210.5415,0,3949
-0.177176,1.510787,9.445415,-0.043001,-0.008319,-0.024865,-32.16,13.62,-20.16,65.1984,-7.6149,1.2172,55.56717,37.559265,210.5415,0,3959
-0.277736,1.336005,9.656111,-0.06316,0.005731,-0.026086,-32.16,13.38,-20.1,64.4527,-7.765,1.1972,55.56717,37.559265,210.5415,0,3968
-0.277736,1.336005,9.656111,-0.066214,0.004509,-0.02181,-32.16,13.38,-20.1,64.4527,-7.765,1.1972,55.56717,37.559265,210.5415,0,3978
-0.339987,1.1708,9.885961,-0.044834,-0.005875,-0.013869,-32.7,13.86,-20.34,64.4527,-7.765,1.1972,55.56717,37.559265,210.5415,0,3988
-0.378295,1.070241,10.055954,-0.02101,-0.020536,-0.00715,-32.7,13.86,-20.34,64.4527,-7.765,1.1972,55.56717,37.559265,210.5415,0,3998
-0.349564,1.034327,10.218765,-0.02101,-0.020536,-0.00715,-33.06,13.32,-20.22,65.0519,-7.9196,1.1687,55.56717,37.559265,210.5415,0,4008
-0.258582,1.048692,9.964972,0.02175,-0.025423,0.0069,-33.06,13.32,-20.22,65.0519,-7.9196,1.1687,55.56717,37.559265,210.5415,0,4018
-0.258582,1.048692,9.964972,0.050461,-0.022369,0.021561,-32.64,13.5,-20.46,65.0519,-7.9196,1.1687,55.56717,37.559265,210.5415,0,4028
-0.24661,1.118126,9.701602,0.045574,-0.020536,0.02095,-32.64,13.5,-20.46,65.0519,-7.9196,1.1687,55.56717,37.559265,210.5415,0,4038
-0.28013,1.249811,9.634562,0.037633,-0.000378,0.017896,-32.76,13.5,-20.52,63.5897,-7.7741,1.2562,55.56717,37.559265,210.5415,0,4048
-0.28013,1.249811,9.634562,0.04252,0.008175,0.019118,-32.76,13.5,-20.52,63.5897,-7.7741,1.2562,55.56717,37.559265,210.5415,0,4058
-0.232245,1.2546,9.510059,0.045574,-0.000988,0.010566,-33.36,12.3,-20.52,63.5897,-7.7741,1.2562,55.56717,37.559265,210.5415,0,4068
-0.136474,1.30488,9.505271,0.032135,0.002066,0.002624,-33.36,12.3,-20.52,63.5897,-7.7741,1.2562,55.56717,37.559265,210.5415,0,4079
-0.062251,1.357554,9.61062,0.018696,0.009396,-0.001041,-33.6,12,-20.58,66.9418,-7.8706,1.2325,55.56717,37.559265,210.5415,0,4088
0.114925,1.359948,9.608225,0.005257,-0.001599,-0.00043,-33.3,12.18,-20.52,66.9418,-7.8706,1.2325,55.56717,37.559265,210.5415,0,4098
0.114925,1.359948,9.608225,0.005257,-0.001599,-0.00043,-33.3,12.18,-20.52,66.9418,-7.8706,1.2325,55.56717,37.559265,210.5415,0,4108
0.158022,1.431776,9.61062,-0.019788,-0.004043,-0.005928,-33.3,12.48,-20.7,66.9418,-7.8706,1.2325,55.56717,37.559265,210.5415,0,4118
0,1.465296,9.840469,-0.040558,-0.000988,0.000181,-33.3,12.48,-20.7,66.9418,-7.8706,1.2325,55.56717,37.559265,210.5415,0,4128
0,1.465296,9.840469,-0.031395,-0.007708,0.013009,-33,12.18,-20.4,66.4786,-7.9356,1.2335,55.56717,37.559265,210.5415,0,4138
-0.002394,1.453325,9.809344,-0.014901,-0.01626,0.027059,-33,12.18,-20.4,66.4786,-7.9356,1.2335,55.56717,37.559265,210.5415,0,4148
-0.007183,1.350371,9.715967,-0.013069,-0.019925,0.032557,-32.76,11.46,-19.74,66.4786,-7.9356,1.2335,55.56717,37.559265,210.5415,0,4158
0.038308,1.264177,9.732727,-0.01368,-0.011984,0.030724,-32.76,11.46,-19.74,66.4786,-7.9356,1.2335,55.56717,37.559265,210.5415,0,4168
0.093377,1.247417,9.687236,-0.011847,0.007564,0.025837,-33.42,10.86,-20.04,67.9439,-7.87,1.2112,55.56717,37.559265,210.5415,0,4179
0.093377,1.247417,9.687236,-0.014291,0.014894,0.003235,-33.42,10.86,-20.04,67.9439,-7.87,1.2112,55.56717,37.559265,210.5415,0,4188
0.007183,1.233052,9.713573,-0.005738,0.012451,-0.008371,-33.72,11.16,-20.34,67.9439,-7.87,1.2112,55.56717,37.559265,210.5415,0,4198
-0.095771,1.283331,9.720756,-0.005738,0.012451,-0.008371,-33.72,11.16,-20.34,67.9439,-7.87,1.2112,55.56717,37.559265,210.5415,0,4208
-0.081405,1.316851,9.502876,0.00709,0.004509,-0.016313,-33.3,12.18,-20.34,66.4708,-7.8369,1.0768,55.56717,37.559265,210.5415,0,4219
-0.160416,1.364737,9.428655,0.003425,-0.000378,-0.032806,-33.3,12.18,-20.34,66.4708,-7.8369,1.0768,55.56717,37.559265,210.5415,0,4229
-0.160416,1.364737,9.428655,-0.01368,-0.000988,-0.037082,-32.94,12,-19.68,66.4708,-7.8369,1.0768,55.56717,37.559265,210.5415,0,4238
-0.253793,1.391074,9.524426,-0.022232,0.00512,-0.033417,-32.88,11.82,-19.56,66.4708,-7.8369,1.0768,55.56717,37.559265,210.5415,0,4249
-0.282524,1.434171,9.577099,-0.032617,0.009396,-0.043801,-32.88,11.82,-19.56,66.4708,-7.8369,1.0768,55.56717,37.559265,210.5415,0,4258
-0.34717,1.436565,9.660899,-0.033838,0.001455,-0.036471,-32.76,11.82,-20.52,66.1968,-7.7941,0.7552,55.56717,37.559265,210.5415,0,4268
-0.387873,1.458113,9.792584,-0.039336,-0.000988,-0.030973,-32.76,11.82,-20.52,66.1968,-7.7941,0.7552,55.56717,37.559265,210.5415,0,4279
-0.387873,1.458113,9.792584,-0.038114,0.006342,-0.016923,-33.24,11.76,-20.16,66.1968,-7.7941,0.7552,55.56717,37.559265,210.5415,0,4288
-0.452518,1.417411,9.905115,-0.031395,0.003288,-0.004095,-33.42,12,-20.16,66.1968,-7.7941,0.7552,55.56717,37.559265,210.5415,0,4299
-0.423787,1.410228,9.945818,-0.026508,-0.002821,-0.004095,-33.42,12,-20.16,66.1968,-7.7941,0.7552,55.56717,37.559265,210.5415,0,4308
-0.464489,1.383891,10.094262,-0.014291,-0.000378,0.003235,-33.66,11.64,-20.46,67.0252,-7.8398,0.8858,55.56717,37.559265,210.5415,0,4318
-0.442941,1.347977,10.08708,-0.003295,0.004509,0.010566,-33.66,11.64,-20.46,67.0252,-7.8398,0.8858,55.56717,37.559265,210.5415,0,4328
-0.442941,1.347977,10.08708,0.001592,0.007564,0.022172,-33.9,11.28,-20.34,67.0252,-7.8398,0.8858,55.56717,37.559265,210.5415,0,4338
-0.383084,1.300091,10.0368,-0.002073,0.029555,0.038054,-33.96,11.28,-20.46,67.0252,-7.8398,0.8858,55.56717,37.559265,210.5415,0,4349
-0.335198,1.211503,9.991309,-0.009404,0.051546,0.059435,-33.96,11.28,-20.46,67.0252,-7.8398,0.8858,55.56717,37.559265,210.5415,0,4358
-0.277736,1.206715,9.93624,-0.007571,0.052768,0.066154,-33.42,11.34,-20.52,67.7643,-7.8992,1.2807,55.56717,37.559265,210.5415,0,4368
-0.277736,1.206715,9.93624,-0.007571,0.052768,0.066154,-33.42,11.34,-20.52,67.7643,-7.8992,1.2807,55.56717,37.559265,210.5415,0,4378
-0.141262,1.324034,10.060742,0.017474,0.037496,0.055159,-33.3,11.34,-20.46,67.7643,-7.8992,1.2807,55.56717,37.559265,210.5415,0,4388
-0.047885,1.35516,9.75667,0.049239,0.01184,0.042941,-33.3,11.58,-20.34,67.7643,-7.8992,1.2807,55.56717,37.559265,210.5415,0,4398
-0.090982,1.486845,9.486116,0.059624,-0.012595,0.016674,-33.3,11.58,-20.34,67.7643,-7.8992,1.2807,55.56717,37.559265,210.5415,0,4408
-0.112531,1.527547,9.414289,0.049239,-0.013206,0.008733,-33.54,11.94,-20.46,67.231,-7.8549,1.557,55.56717,37.559265,210.5415,0,4419
-0.112531,1.527547,9.414289,0.010755,0.012451,0.004457,-33.54,11.94,-20.46,67.231,-7.8549,1.557,55.56717,37.559265,210.5415,0,4428
-0.193936,1.642473,9.505271,0.002203,0.01184,-0.010204,-33.36,11.52,-20.28,67.231,-7.8549,1.557,55.56717,37.559265,210.5415,0,4439
-0.189148,1.702329,9.579494,0.002203,0.01184,-0.010204,-33.48,11.52,-20.16,67.231,-7.8549,1.557,55.56717,37.559265,210.5415,0,4448
-0.253793,1.678387,9.629773,0.015031,-0.005875,-0.016313,-33.48,11.52,-20.16,67.231,-7.8549,1.557,55.56717,37.559265,210.5415,0,4458
-0.284919,1.647261,9.562734,0.026637,-0.018703,-0.02181,-33.6,11.76,-19.62,67.186,-7.958,1.5529,55.56717,37.559265,210.5415,0,4469
-0.284919,1.647261,9.562734,0.024805,-0.022369,-0.01448,-33.6,11.76,-19.62,67.186,-7.958,1.5529,55.56717,37.559265,210.5415,0,4479
-0.318439,1.611347,9.586677,0.005257,-0.00893,-0.009593,-33.48,12.06,-19.56,67.186,-7.958,1.5529,55.56717,37.559265,210.5415,0,4488
-0.282524,1.596981,9.751882,-0.005738,0.00512,0.000181,-33.48,12.06,-19.56,67.186,-7.958,1.5529,55.56717,37.559265,210.5415,0,4498
-0.258582,1.573039,9.823709,0.005868,0.005731,0.009955,-33.36,11.28,-19.5,67.9984,-8.329,1.4054,55.56717,37.559265,210.5415,0,4508
-0.258582,1.573039,9.823709,0.022361,0.000844,0.013009,-33.42,11.1,-20.04,67.9984,-8.329,1.4054,55.56717,37.559265,210.5415,0,4518
-0.234639,1.570644,9.682447,0.022361,0.000844,0.013009,-33.42,11.1,-20.04,67.9984,-8.329,1.4054,55.56717,37.559265,210.5415,0,4528
-0.22985,1.573039,9.613013,0.040687,-0.010151,0.009344,-33.18,10.86,-20.28,67.9984,-8.329,1.4054,55.56717,37.559265,210.5415,0,4538
-0.270553,1.692752,9.471751,0.03519,0.003899,0.009344,-33.12,10.98,-20.58,67.4246,-8.7155,1.4119,55.56717,37.559265,210.5415,0,4548
-0.270553,1.692752,9.471751,0.02175,-0.000988,0.014231,-33.12,10.98,-20.58,67.4246,-8.7155,1.4119,55.56717,37.559265,210.5415,0,4558
-0.215485,1.735849,9.368797,0.015642,-0.005264,0.013009,-32.94,11.16,-19.92,67.4246,-8.7155,1.4119,55.56717,37.559265,210.5415,0,4569
-0.093377,1.664021,9.419077,0.00037,-0.002821,0.007511,-32.94,11.16,-19.92,67.4246,-8.7155,1.4119,55.56717,37.559265,210.5415,0,4579
-0.062251,1.654444,9.507666,-0.014291,0.003288,0.000181,-32.64,12.18,-20.16,66.1026,-8.9559,1.4284,55.56717,37.559265,210.5415,0,4588
-0.10056,1.661627,9.569917,-0.017956,-0.007708,-0.00043,-33.12,12.6,-19.98,66.1026,-8.9559,1.4284,55.56717,37.559265,210.5415,0,4598
-0.10056,1.661627,9.569917,-0.023454,-0.010762,-0.001652,-33.12,12.6,-19.98,66.1026,-8.9559,1.4284,55.56717,37.559265,210.5415,0,4609
-0.028731,1.719089,9.579494,-0.033227,-0.019314,-0.004095,-33.84,12,-19.92,66.1026,-8.9559,1.4284,55.56717,37.559265,210.5415,0,4618
0.05028,1.733455,9.603436,-0.033227,-0.019314,-0.004095,-33.84,12,-19.92,66.1026,-8.9559,1.4284,55.56717,37.559265,210.5415,0,4629
-0.014366,1.786129,9.656111,-0.043001,-0.014427,-0.00043,-32.82,11.82,-19.92,65.9251,-9.2805,1.3144,55.56717,37.559265,210.5415,0,4638
-0.014366,1.786129,9.656111,-0.048499,-0.00954,0.002013,-32.52,11.7,-19.98,65.9251,-9.2805,1.3144,55.56717,37.559265,210.5415,0,4648
-0.0838,1.807678,9.708784,-0.060716,-0.013206,-0.00043,-32.52,11.7,-19.98,65.9251,-9.2805,1.3144,55.56717,37.559265,210.5415,0,4658
-0.117319,1.714301,9.876384,-0.06316,-0.008319,0.002624,-32.94,11.34,-20.22,65.9251,-9.2805,1.3144,55.56717,37.559265,210.5415,0,4668
-0.117319,1.580221,9.998491,-0.059495,0.002066,-0.002263,-32.94,11.34,-20.22,65.9251,-9.2805,1.3144,55.56717,37.559265,210.5415,0,4678
-0.076617,1.580221,9.998491,-0.047277,0.010007,-0.008982,-33.36,11.1,-20.34,67.1482,-9.4844,0.9907,55.56717,37.559265,210.5415,0,4688
-0.181965,1.474873,10.149331,-0.02834,-0.000378,-0.00715,-33.36,11.1,-20.34,67.1482,-9.4844,0.9907,55.56717,37.559265,210.5415,0,4698
-0.239427,1.498816,10.158908,0.009533,-0.019925,-0.001652,-33.36,11.46,-20.52,67.1482,-9.4844,0.9907,55.56717,37.559265,210.5415,0,4708
-0.189148,1.596981,10.072714,0.029081,-0.00954,0.008122,-33.36,11.46,-20.52,67.1482,-9.4844,0.9907,55.56717,37.559265,210.5415,0,4718
-0.189148,1.596981,10.072714,0.029081,-0.00954,0.008122,-33.36,11.64,-20.22,65.7758,-9.3586,0.9841,55.56717,37.559265,210.5415,0,4728
-0.141262,1.702329,9.948212,0.041298,-0.002821,0.012398,-33.36,11.64,-20.22,65.7758,-9.3586,0.9841,55.56717,37.559265,210.5415,0,4738
-0.167599,1.783735,9.804555,0.051072,-0.011373,0.008733,-33.18,12.06,-20.4,65.7758,-9.3586,0.9841,55.56717,37.559265,210.5415,0,4748
-0.174782,1.755004,9.692024,0.050461,-0.00893,0.004457,-33.18,12.06,-20.4,65.7758,-9.3586,0.9841,55.56717,37.559265,210.5415,0,4758
-0.174782,1.755004,9.692024,0.039466,-0.003432,0.002013,-32.64,12.24,-20.34,65.7468,-9.4118,0.9666,55.56717,37.559265,210.5415,0,4768
-0.181965,1.721484,9.663293,0.031524,0.002677,-0.001041,-32.64,12.24,-20.34,65.7468,-9.4118,0.9666,55.56717,37.559265,210.5415,0,4778
-0.21309,1.743032,9.63935,0.037633,0.010618,0.000181,-32.4,12.66,-19.68,65.7468,-9.4118,0.9666,55.56717,37.559265,210.5415,0,4789
-0.260976,1.766975,9.545974,0.039466,0.011229,-0.001041,-32.4,12.66,-19.68,65.7468,-9.4118,0.9666,55.56717,37.559265,210.5415,0,4798
-0.260976,1.766975,9.545974,0.041909,0.013062,0.001403,-32.76,12.54,-19.98,64.3073,-9.5114,0.955,55.56717,37.559265,210.5415,0,4808
-0.287313,1.843592,9.474146,0.045574,0.014894,0.003846,-32.34,12.66,-20.58,64.3073,-9.5114,0.955,55.56717,37.559265,210.5415,0,4818
-0.287313,2.006402,9.356826,0.047407,0.006953,-0.00043,-32.34,12.66,-20.58,64.3073,-9.5114,0.955,55.56717,37.559265,210.5415,0,4829
-0.287313,2.006402,9.356826,0.047407,0.006953,-0.00043,-32.58,12.78,-20.76,64.3073,-9.5114,0.955,55.56717,37.559265,210.5415,0,4838
-0.311256,2.075836,9.29218,0.038244,0.004509,-0.00776,-32.58,12.78,-20.76,64.3073,-9.5114,0.955,55.56717,37.559265,210.5415,0,4848
-0.308861,2.066259,9.27542,0.023583,0.003288,-0.009593,-33.06,12.36,-20.94,65.4206,-9.6618,0.9903,55.56717,37.559265,210.5415,0,4858
-0.311256,2.047105,9.356826,-0.001462,0.004509,-0.016923,-33.06,12.36,-20.94,65.4206,-9.6618,0.9903,55.56717,37.559265,210.5415,0,4868
-0.311256,2.047105,9.356826,-0.021621,0.003288,-0.019367,-32.58,12.18,-20.64,65.4206,-9.6618,0.9903,55.56717,37.559265,210.5415,0,4878
-0.287313,1.960911,9.474146,-0.044834,0.002066,-0.030362,-32.58,12.18,-20.64,65.4206,-9.6618,0.9903,55.56716,37.559254,210.7191,0,4889
-0.342381,1.924997,9.684841,-0.053997,0.002677,-0.026697,-32.58,12.78,-20.16,64.2016,-9.8682,1.0687,55.56716,37.559254,210.7191,0,4898
-0.359141,1.879506,9.787795,-0.048499,-0.007097,-0.019978,-32.58,12.78,-20.16,64.2016,-9.8682,1.0687,55.56716,37.559254,210.7191,0,4908
-0.373507,1.817255,9.811738,-0.038725,-0.015038,-0.006539,-32.58,13.14,-19.56,64.2016,-9.8682,1.0687,55.56716,37.559254,210.7191,0,4918
-0.373507,1.817255,9.811738,-0.02101,-0.018093,0.011787,-32.58,13.14,-19.56,64.2016,-9.8682,1.0687,55.56716,37.559254,210.7191,0,4928
-0.328016,1.795706,9.79019,-0.021621,-0.00893,0.02095,-32.22,12.9,-19.2,63.7337,-9.9357,1.13,55.56716,37.559254,210.7191,0,4938
-0.31365,1.769369,9.787795,-0.012458,-0.003432,0.034389,-32.22,12.9,-19.2,63.7337,-9.9357,1.13,55.56716,37.559254,210.7191,0,4948
-0.162811,1.709512,9.778218,-0.006349,-0.001599,0.037444,-31.98,13.02,-19.44,63.7337,-9.9357,1.13,55.56716,37.559254,210.7191,0,4958
-0.028731,1.702329,9.703996,0.00037,0.002066,0.035,-32.04,12.96,-19.86,63.7337,-9.9357,1.13,55.56716,37.559254,210.7191,0,4968
-0.028731,1.702329,9.703996,0.00037,0.002066,0.035,-32.04,12.96,-19.86,63.7337,-9.9357,1.13,55.56716,37.559254,210.7191,0,4978
0.052674,1.711906,9.60583,0.00037,-0.000378,0.016063,-31.98,12.9,-20.16,63.5045,-9.9063,1.1024,55.56716,37.559254,210.7191,0,4988
0.035914,1.817255,9.543579,-0.003906,-0.005264,0.002013,-31.98,12.9,-20.16,63.5045,-9.9063,1.1024,55.56716,37.559254,210.7191,0,4998
0.047885,1.841197,9.548368,-0.015512,-0.011984,0.000181,-32.1,13.14,-20.28,63.5045,-9.9063,1.1024,55.56716,37.559254,210.7191,0,5008
0.045491,1.860352,9.648928,-0.025897,-0.001599,0.000181,-32.1,13.14,-20.28,63.5045,-9.9063,1.1024,55.56716,37.559254,210.7191,0,5019
0.045491,1.860352,9.648928,-0.029562,-0.005264,-0.00043,-31.68,13.2,-19.86,63.5012,-9.9047,1.0922,55.56716,37.559254,210.7191,0,5029
0.026337,1.867534,9.763853,-0.026508,-0.00893,0.001403,-31.68,13.2,-19.86,63.5012,-9.9047,1.0922,55.56716,37.559254,210.7191,0,5039
0.043097,1.812466,9.838076,-0.020399,-0.019925,0.006289,-31.32,13.26,-19.02,63.5012,-9.9047,1.0922,55.56716,37.559254,210.7191,0,5049
0.069434,1.84838,9.778218,-0.017345,-0.027866,0.006289,-31.32,13.26,-19.02,63.5012,-9.9047,1.0922,55.56716,37.559254,210.7191,0,5058
0.035914,1.853169,9.744699,-0.018567,-0.03031,0.0069,-31.56,13.56,-19.26,62.1779,-10.1201,0.8597,55.56716,37.559254,210.7191,0,5069
0.035914,1.853169,9.744699,-0.023454,-0.033364,0.0069,-31.56,13.56,-19.26,62.1779,-10.1201,0.8597,55.56716,37.559254,210.7191,0,5079
-0.004789,1.877111,9.718362,-0.026508,-0.029088,0.003846,-31.38,13.44,-19.8,62.1779,-10.1201,0.8597,55.56716,37.559254,210.7191,0,5089
-0.105348,1.93218,9.768641,-0.015512,-0.021758,0.011176,-31.38,13.44,-19.8,62.1779,-10.1201,0.8597,55.56716,37.559254,210.7191,0,5098
-0.167599,1.94894,9.766247,-0.004517,-0.017482,0.0069,-31.26,14.16,-20.22,60.9991,-10.2744,0.5488,55.56716,37.559254,210.7191,0,5109
-0.186753,1.934574,9.747093,0.00037,-0.013817,0.010566,-30.96,13.92,-20.34,60.9991,-10.2744,0.5488,55.56716,37.559254,210.7191,0,5118
-0.186753,1.934574,9.747093,0.00037,-0.013817,0.010566,-30.96,13.92,-20.34,60.9991,-10.2744,0.5488,55.56716,37.559254,210.7191,0,5129
-0.179571,1.81486,9.668081,0.016864,-0.008319,0.019118,-30.6,13.68,-20.34,60.9991,-10.2744,0.5488,55.56716,37.559254,210.7191,0,5139
-0.150839,1.807678,9.601042,0.023583,0.002066,0.007511,-30.6,13.68,-20.34,60.9991,-10.2744,0.5488,55.56716,37.559254,210.7191,0,5148
-0.150839,1.807678,9.601042,0.023583,0.002066,0.007511,-30.6,13.68,-20.34,60.9991,-10.2744,0.5488,55.56716,37.559254,210.7191,0,5158
-0.153234,1.800495,9.586677,0.027248,0.002677,0.005679,-30.24,13.92,-19.68,60.0375,-10.5088,0.4008,55.56716,37.559254,210.7191,0,5168
-0.153234,1.800495,9.586677,0.027248,0.002677,0.005679,-30.24,13.92,-19.68,60.0375,-10.5088,0.4008,55.56716,37.559254,210.7191,0,5178
-0.28013,2.056682,9.402317,0.032135,0.008785,-0.024865,-29.94,14.58,-19.68,60.0375,-10.5088,0.4008,55.56716,37.559254,210.7191,0,5188
-0.344776,2.243436,9.167678,0.032135,0.008785,-0.024865,-29.94,14.58,-19.68,60.0375,-10.5088,0.4008,55.56716,37.559254,210.7191,0,5198
-0.344776,2.243436,9.167678,0.026637,-0.002821,-0.030973,-29.4,14.58,-20.34,60.0375,-10.5088,0.4008,55.56716,37.559254,210.7191,0,5208
-0.375901,2.255407,9.069513,0.00037,-0.003432,-0.034639,-29.4,14.58,-20.34,60.0375,-10.5088,0.4008,55.56716,37.559254,210.7191,0,5218
-0.409421,2.22907,9.270632,-0.044223,0.006953,-0.044412,-29.76,14.34,-20.46,59.9843,-10.8841,0.6456,55.56716,37.559254,210.7191,0,5228
-0.337593,2.118933,9.660899,-0.064382,0.006953,-0.047467,-29.76,14.34,-20.46,59.9843,-10.8841,0.6456,55.56716,37.559254,210.7191,0,5238
-0.265764,1.980065,9.890749,-0.066825,-0.019925,-0.047467,-30.18,14.28,-19.98,59.9843,-10.8841,0.6456,55.56716,37.559254,210.7191,0,5248
-0.265764,1.980065,9.890749,-0.075377,-0.027256,-0.044412,-30.18,14.28,-19.98,59.9843,-10.8841,0.6456,55.56716,37.559254,210.7191,0,5258
-0.275342,1.8819,10.154119,-0.079042,-0.017482,-0.02181,-29.52,14.46,-19.44,60.2141,-11.328,0.9909,55.56716,37.559254,210.7191,0,5268
-0.349564,1.84838,10.486923,-0.059495,-0.005875,0.006289,-29.52,14.46,-19.44,60.2141,-11.328,0.9909,55.56716,37.559254,210.7191,0,5278
-0.342381,1.845986,10.539598,-0.022232,-0.019925,0.038054,-28.8,14.76,-19.5,60.2141,-11.328,0.9909,55.56716,37.559254,210.7191,0,5288
-0.244216,1.850774,10.393547,0.019918,-0.021147,0.05638,-28.8,14.76,-19.5,60.2141,-11.328,0.9909,55.56716,37.559254,210.7191,0,5298
-0.244216,1.850774,10.393547,0.060846,-0.018703,0.085702,-29.52,14.82,-19.5,58.8802,-11.2715,1.0427,55.56716,37.559254,210.7191,0,5308
-0.162811,1.862746,10.144543,0.085891,-0.003432,0.101584,-29.52,14.82,-19.5,58.8802,-11.2715,1.0427,55.56716,37.559254,210.7191,0,5318
-0.026337,1.958517,9.838076,0.101163,-0.004654,0.088145,-29.28,15.06,-19.5,58.8802,-11.2715,1.0427,55.56716,37.559254,210.7191,0,5328
0.076617,2.063865,9.632168,0.101163,-0.004654,0.088145,-29.28,15.06,-19.5,58.8802,-11.2715,1.0427,55.56716,37.559254,210.7191,0,5338
0.093377,2.154848,9.584282,0.110937,0.013062,0.058213,-27.9,15.18,-19.5,57.0695,-11.3172,0.9781,55.56716,37.559254,210.7191,0,5349
0.093377,2.154848,9.584282,0.103606,0.016727,0.024005,-27.36,15.48,-18.78,57.0695,-11.3172,0.9781,55.56716,37.559254,210.7191,0,5359
0.277736,2.415823,9.311335,0.103606,0.016727,0.024005,-27.36,15.48,-18.78,57.0695,-11.3172,0.9781,55.56716,37.559254,210.7191,0,5368
0.392661,2.624125,9.229929,0.093833,0.009396,0.001403,-27.66,15.6,-19.14,57.0695,-11.3172,0.9781,55.56716,37.559254,210.7191,0,5378
0.392661,2.624125,9.229929,0.066955,0.004509,-0.030973,-27.66,15.6,-19.14,57.0695,-11.3172,0.9781,55.56716,37.559254,210.7191,0,5388
0.339987,2.748628,9.189227,0.030303,-0.002821,-0.055408,-27.9,15.78,-19.74,55.3225,-11.6144,0.9687,55.56716,37.559254,210.7191,0,5398
0.239427,2.751022,9.134158,-0.005128,-0.004043,-0.062127,-27.9,15.78,-19.74,55.3225,-11.6144,0.9687,55.56716,37.559254,210.7191,0,5408
0.143657,2.681588,9.246689,-0.043612,-0.013206,-0.065793,-27.66,15.24,-19.5,55.3225,-11.6144,0.9687,55.56716,37.559254,210.7191,0,5418
0.143657,2.681588,9.246689,-0.07721,-0.013206,-0.059684,-27.66,15.24,-19.5,55.3225,-11.6144,0.9687,55.56716,37.559254,210.7191,0,5428
-0.107742,2.451738,9.560339,-0.073545,-0.012595,-0.048688,-27.18,14.58,-19.38,55.9677,-11.719,0.9845,55.56716,37.559254,210.7191,0,5438
-0.342381,2.303292,9.754275,-0.061938,-0.00893,-0.037082,-27.18,14.58,-19.38,55.9677,-11.719,0.9845,55.56716,37.559254,210.7191,0,5449
-0.421392,2.298504,9.90272,-0.02773,-0.017482,-0.029141,-26.52,14.76,-19.38,55.9677,-11.719,0.9845,55.56716,37.559254,210.7191,0,5459
-0.433364,2.267378,9.933846,-0.000241,-0.019925,-0.02853,-26.46,15.3,-19.68,55.9677,-11.719,0.9845,55.56716,37.559254,210.7191,0,5469
-0.433364,2.267378,9.933846,-0.000241,-0.019925,-0.02853,-26.46,15.3,-19.68,55.9677,-11.719,0.9845,55.56716,37.559254,210.7191,0,5478
-0.454912,2.24583,9.823709,0.018696,-0.018093,-0.02853,-25.68,15.54,-19.62,53.3567,-11.5471,0.9759,55.56716,37.559254,210.7191,0,5488
-0.447729,2.253013,9.744699,0.026637,-0.011373,-0.034639,-25.68,15.54,-19.62,53.3567,-11.5471,0.9759,55.56716,37.559254,210.7191,0,5498
-0.533923,2.224281,9.711179,0.036411,0.008785,-0.025476,-25.26,15.54,-19.86,53.3567,-11.5471,0.9759,55.56716,37.559254,210.7191,0,5508
-0.533923,2.224281,9.711179,0.041298,0.021614,-0.015091,-25.5,15.42,-20.22,53.3567,-11.5471,0.9759,55.56716,37.559254,210.7191,0,5518
-0.495615,2.166819,9.70639,0.060235,0.02589,0.009955,-25.5,15.42,-20.22,53.3567,-11.5471,0.9759,55.56716,37.559254,210.7191,0,5528
-0.375901,2.147665,9.680053,0.071841,0.018559,0.017896,-26.04,15.36,-19.38,55.0012,-11.5927,0.9573,55.56716,37.559254,210.7191,0,5538
-0.198725,2.226676,9.555551,0.079172,0.017948,0.02095,-26.04,15.36,-19.38,55.0012,-11.5927,0.9573,55.56716,37.559254,210.7191,0,5548
-0.198725,2.226676,9.555551,0.079172,0.017948,0.02095,-25.08,15.42,-19.02,55.0012,-11.5927,0.9573,55.56716,37.559254,210.7191,0,5558
-0.045491,2.343995,9.311335,0.062068,0.003899,0.028281,-25.2,15.78,-19.2,55.0012,-11.5927,0.9573,55.56716,37.559254,210.7191,0,5568
0.079011,2.533143,9.249084,0.037633,0.005731,0.037444,-25.2,15.78,-19.2,55.0012,-11.5927,0.9573,55.56716,37.559254,210.7191,0,5578
0.079011,2.533143,9.249084,0.011977,0.008785,0.044774,-24.78,15.48,-19.14,53.8988,-11.7828,1.0121,55.56716,37.559254,210.7191,0,5588
0.090982,2.667222,9.2419,-0.016734,0.00512,0.04172,-24.78,15.48,-19.14,53.8988,-11.7828,1.0121,55.56716,37.559254,210.7191,0,5598
0.047885,2.727079,9.299363,-0.026508,0.002066,0.041109,-24.06,15.42,-19.14,53.8988,-11.7828,1.0121,55.56716,37.559254,210.7191,0,5609
0.088588,2.715108,9.301758,-0.038114,-0.00954,0.035611,-24,15.48,-18.84,53.8988,-11.7828,1.0121,55.56716,37.559254,210.7191,0,5618
0.119714,2.590605,9.447808,-0.074155,0.006342,0.024005,-24,15.48,-18.84,53.8988,-11.7828,1.0121,55.56716,37.559254,210.7191,0,5628
0.119714,2.590605,9.447808,-0.094314,0.020392,0.011176,-23.7,15.24,-19.02,52.7671,-11.8258,1.003,55.56716,37.559254,210.7191,0,5638
-0.007183,2.513989,9.687236,-0.099812,0.036885,0.009955,-23.7,15.24,-19.02,52.7671,-11.8258,1.003,55.56716,37.559254,210.7191,0,5648
-0.119714,2.425401,9.80695,-0.086373,0.033831,0.006289,-22.68,15.78,-19.44,52.7671,-11.8258,1.003,55.56716,37.559254,210.7191,0,5658
-0.110137,2.367938,9.869201,-0.061327,0.021003,-0.002263,-22.56,15.96,-19.26,52.7671,-11.8258,1.003,55.56716,37.559254,210.7191,0,5668
-0.191542,2.425401,9.759064,-0.044834,0.02589,-0.006539,-22.56,15.96,-19.26,52.7671,-11.8258,1.003,55.56716,37.559254,210.7191,0,5679
-0.191542,2.425401,9.759064,-0.047888,0.031998,-0.005317,-22.38,15.6,-19.38,48.9937,-11.6278,1.0257,55.56716,37.559254,210.7191,0,5688
-0.203513,2.26259,9.569917,-0.044834,0.027722,0.000792,-22.38,15.6,-19.38,48.9937,-11.6278,1.0257,55.56716,37.559254,210.7191,0,5698
-0.165205,2.320053,9.488511,-0.044834,0.027722,0.000792,-21.78,15.48,-19.44,48.9937,-11.6278,1.0257,55.56716,37.559254,210.7191,0,5708
-0.251399,2.205127,9.440625,-0.040558,0.028944,0.003235,-21.24,15.06,-19.74,48.9937,-11.6278,1.0257,55.56716,37.559254,210.7191,0,5720
-0.325621,2.166819,9.471751,-0.040558,0.028944,0.003235,-21.24,15.06,-19.74,48.9937,-11.6278,1.0257,55.56716,37.559254,210.7191,0,5728
-0.318439,2.190762,9.60583,-0.039947,0.027111,0.0069,-21.42,15.3,-19.62,48.9739,-11.489,1.0986,55.56716,37.559254,210.7191,0,5739
-0.318439,2.190762,9.60583,-0.030784,0.02589,0.000792,-21.42,15.3,-19.62,48.9739,-11.489,1.0986,55.56716,37.559254,210.7191,0,5749
-0.311256,2.22907,9.617802,-0.027119,0.016727,-0.001652,-21.3,14.28,-20.1,48.9739,-11.489,1.0986,55.56716,37.559254,210.7191,0,5758
-0.299284,2.320053,9.490906,-0.022232,0.00512,-0.02181,-21.3,14.28,-20.1,48.9739,-11.489,1.0986,55.56716,37.559254,210.7191,0,5768
-0.299284,2.320053,9.490906,-0.041169,-0.004043,-0.030362,-21.18,13.62,-20.88,50.2832,-11.4146,1.1589,55.56716,37.559254,210.7191,0,5778
-0.308861,2.341601,9.538791,-0.061327,-0.004654,-0.023032,-21.18,13.62,-20.88,50.2832,-11.4146,1.1589,55.56716,37.559254,210.7191,0,5788
-0.169993,2.214704,9.63935,-0.083929,-0.001599,-0.020589,-21.24,15.42,-20.58,50.2832,-11.4146,1.1589,55.56716,37.559254,210.7191,0,5798
-0.107742,2.085414,9.883567,-0.104699,0.00512,0.002624,-21.24,15.42,-20.58,50.2832,-11.4146,1.1589,55.56716,37.559254,210.7191,0,5808
-0.107742,1.984854,10.08708,-0.093092,0.008785,0.010566,-21.24,15.66,-19.8,47.4196,-11.946,1.26,55.56716,37.559254,210.7191,0,5818
-0.150839,1.984854,10.08708,-0.055829,0.008175,0.019118,-21.24,15.66,-19.8,47.4196,-11.946,1.26,55.56716,37.559254,210.7191,0,5828
-0.208302,1.872323,10.046377,-0.016734,0.000233,0.022783,-20.22,14.34,-19.8,47.4196,-11.946,1.26,55.56716,37.559254,210.7191,0,5838
-0.222668,1.869929,9.921875,0.015031,-0.008319,0.022783,-20.22,14.34,-19.8,47.4196,-11.946,1.26,55.56716,37.559254,210.7191,0,5848
-0.256187,1.874717,9.890749,0.015031,-0.008319,0.022783,-18.9,14.1,-20.4,47.4998,-12.2008,1.2913,55.56716,37.559254,210.7191,0,5858
-0.256187,1.874717,9.890749,0.053515,-0.001599,0.027059,-18.9,14.1,-20.4,47.4998,-12.2008,1.2913,55.56716,37.559254,210.7191,0,5868
-0.122108,1.920209,9.754275,0.07062,-0.000378,0.02767,-19.38,14.88,-19.68,47.4998,-12.2008,1.2913,55.56715,37.559246,210.8134,0,5878
-0.011971,2.051894,9.682447,0.071231,0.006953,0.024615,-19.38,14.88,-19.68,47.4998,-12.2008,1.2913,55.56715,37.559246,210.8134,0,5888
0.035914,2.260196,9.584282,0.050461,0.016116,-0.00043,-19.32,14.4,-19.44,47.7719,-12.2402,1.2605,55.56715,37.559246,210.8134,0,5898
0.023943,2.439766,9.660899,0.02847,0.010007,-0.013869,-19.32,14.4,-19.44,47.7719,-12.2402,1.2605,55.56715,37.559246,210.8134,0,5908
0.023943,2.439766,9.660899,0.018696,-0.00954,-0.026086,-18.12,13.8,-19.44,47.7719,-12.2402,1.2605,55.56715,37.559246,210.8134,0,5918
0.014366,2.561874,9.727939,0.00709,-0.027866,-0.02853,-18.12,13.8,-19.44,47.7719,-12.2402,1.2605,55.56715,37.559246,210.8134,0,5928
-0.055068,2.499623,9.703996,-0.005128,-0.019925,-0.012647,-17.82,13.92,-19.32,46.2173,-12.3448,1.2747,55.56715,37.559246,210.8134,0,5938
-0.055068,2.377515,9.761458,-0.005128,-0.019925,-0.012647,-17.82,13.92,-19.32,46.2173,-12.3448,1.2747,55.56715,37.559246,210.8134,0,5949
-0.009577,2.257801,9.802161,-0.008793,-0.02359,0.009344,-17.34,13.92,-19.68,46.2173,-12.3448,1.2747,55.56715,37.559246,210.8134,0,5958
-0.009577,2.257801,9.802161,-0.005738,-0.018703,0.033778,-17.34,13.92,-19.68,46.2173,-12.3448,1.2747,55.56715,37.559246,210.8134,0,5968
-0.062251,2.209916,9.761458,0.004035,-0.00221,0.043552,-16.98,14.34,-19.74,44.2675,-12.3457,1.2221,55.56715,37.559246,210.8134,0,5978
-0.119714,2.16203,9.708784,0.029081,0.012451,0.055159,-16.98,14.34,-19.74,44.2675,-12.3457,1.2221,55.56715,37.559246,210.8134,0,5988
-0.119714,2.16203,9.708784,0.059013,0.00512,0.045996,-16.56,13.74,-19.68,44.2675,-12.3457,1.2221,55.56715,37.559246,210.8134,0,5998
-0.086194,2.207522,9.270632,0.0639,0.004509,0.030724,-16.56,13.74,-19.68,44.2675,-12.3457,1.2221,55.56715,37.559246,210.8134,0,6008
-0.10056,2.248224,9.021627,0.047407,0.008785,0.000181,-16.2,13.74,-19.62,42.5274,-12.4039,1.1984,55.56715,37.559246,210.8134,0,6018
-0.146051,2.334418,8.978531,0.005257,0.016727,-0.038915,-16.2,13.74,-19.62,42.5274,-12.4039,1.1984,55.56715,37.559246,210.8134,0,6028
-0.138868,2.324841,9.07909,-0.019788,0.016116,-0.057241,-16.38,13.56,-20.22,42.5274,-12.4039,1.1984,55.56715,37.559246,210.8134,0,6038
-0.193936,2.401458,9.296969,-0.038725,0.013062,-0.077399,-16.38,13.56,-20.22,42.5274,-12.4039,1.1984,55.56715,37.559246,210.8134,0,6048
-0.193936,2.401458,9.296969,-0.038725,0.013062,-0.077399,-16.02,13.26,-20.64,43.5972,-12.6805,1.102,55.56715,37.559246,210.8134,0,6058
-0.251399,2.446949,9.464568,-0.04911,-0.000988,-0.084729,-16.02,13.26,-20.64,43.5972,-12.6805,1.102,55.56715,37.559246,210.8134,0,6068
-0.332804,2.449343,9.596253,-0.055219,-0.015038,-0.074956,-16.02,13.32,-20.16,43.5972,-12.6805,1.102,55.56715,37.559246,210.8134,0,6078
-0.371113,2.415823,9.656111,-0.055829,-0.019314,-0.053575,-16.08,12.54,-20.16,43.5972,-12.6805,1.102,55.56715,37.559246,210.8134,0,6088
-0.371113,2.415823,9.656111,-0.064992,-0.019314,-0.029141,-16.08,12.54,-20.16,43.5972,-12.6805,1.102,55.56715,37.559246,210.8134,0,6098
-0.433364,2.343995,9.814133,-0.058273,-0.014427,-0.00715,-15.24,11.88,-19.74,43.891,-12.5815,1.1395,55.56715,37.559246,210.8134,0,6109
-0.433364,2.327235,10.048771,-0.04911,-0.008319,-0.002874,-15.24,11.88,-19.74,43.891,-12.5815,1.1395,55.56715,37.559246,210.8134,0,6118
-0.457306,2.217099,10.130177,-0.036893,0.000844,0.005679,-15.3,11.88,-19.02,43.891,-12.5815,1.1395,55.56715,37.559246,210.8134,0,6128
-0.493221,2.147665,10.190034,-0.026508,0.003899,0.009955,-16.08,12.12,-19.08,43.891,-12.5815,1.1395,55.56715,37.559246,210.8134,0,6138
-0.493221,2.147665,10.190034,-0.026508,0.003899,0.009955,-16.08,12.12,-19.08,43.891,-12.5815,1.1395,55.56715,37.559246,210.8134,0,6148
-0.490826,2.121328,10.218765,-0.011236,0.011229,0.007511,-15.6,11.64,-19.26,46.12,-12.4294,1.1188,55.56715,37.559246,210.8134,0,6158
-0.371113,2.087808,10.146936,0.018085,0.006342,0.002624,-15.6,11.64,-19.26,46.12,-12.4294,1.1188,55.56715,37.559246,210.8134,0,6168
-0.239427,2.042316,9.960183,0.040687,-0.007097,0.006289,-14.76,11.4,-19.68,46.12,-12.4294,1.1188,55.56715,37.559246,210.8134,0,6178
-0.134079,2.027951,9.897932,0.040076,-0.00893,0.012398,-14.52,11.4,-19.5,46.12,-12.4294,1.1188,55.56715,37.559246,210.8134,0,6188
-0.028731,2.085414,9.823709,0.044352,0.00512,0.028891,-14.52,11.4,-19.5,46.12,-12.4294,1.1188,55.56715,37.559246,210.8134,0,6198
-0.028731,2.085414,9.823709,0.047407,0.017338,0.044774,-14.4,11.1,-19.26,44.2077,-12.4366,1.1259,55.56715,37.559246,210.8134,0,6209
-0.023943,2.087808,9.814133,0.060846,0.026501,0.052104,-14.4,11.1,-19.26,44.2077,-12.4366,1.1259,55.56715,37.559246,210.8134,0,6218
0.009577,2.159636,9.725544,0.09933,0.017948,0.058213,-14.76,10.92,-19.26,44.2077,-12.4366,1.1259,55.56715,37.559246,210.8134,0,6228
0.011971,2.310475,9.454991,0.124376,0.014283,0.051493,-15,10.32,-19.14,44.2077,-12.4366,1.1259,55.56715,37.559246,210.8134,0,6238
0.011971,2.310475,9.454991,0.124376,0.014283,0.051493,-15,10.32,-19.14,44.2077,-12.4366,1.1259,55.56715,37.559246,210.8134,0,6249
0.045491,2.430189,9.201198,0.130484,0.010007,0.042331,-14.34,10.2,-19.26,46.0885,-12.5863,1.1381,55.56715,37.559246,210.8134,0,6258
0.062251,2.688771,8.980925,0.118878,0.006342,0.021561,-14.34,10.2,-19.26,46.0885,-12.5863,1.1381,55.56715,37.559246,210.8134,0,6268
-0.011971,2.765387,8.894731,0.102385,-0.010151,-0.002263,-13.74,10.02,-18.66,46.0885,-12.5863,1.1381,55.56715,37.559246,210.8134,0,6278
-0.10056,2.921015,8.918674,0.082837,-0.025423,-0.021199,-13.74,10.02,-18.66,46.0885,-12.5863,1.1381,55.56715,37.559246,210.8134,0,6288
-0.10056,2.921015,8.918674,0.044352,-0.011373,-0.034028,-13.8,9.42,-18.66,48.0052,-12.8632,1.14,55.56715,37.559246,210.8134,0,6298
-0.035914,2.851581,8.877971,-0.002073,-0.000378,-0.026697,-13.8,9.42,-18.66,48.0052,-12.8632,1.14,55.56715,37.559246,210.8134,0,6308
0.076617,2.782148,9.165284,-0.041169,0.008175,-0.02181,-13.68,9.48,-18.78,48.0052,-12.8632,1.14,55.56715,37.559246,210.8134,0,6318
0.088588,2.760599,9.553157,-0.068658,0.008785,-0.021199,-13.68,9.48,-18.78,48.0052,-12.8632,1.14,55.56715,37.559246,210.8134,0,6328
0.088588,2.760599,9.553157,-0.068658,0.008785,-0.021199,-13.38,9.54,-18.24,44.1782,-13.0092,1.1184,55.56715,37.559246,210.8134,0,6338
0.088588,2.760599,9.553157,-0.068658,0.008785,-0.021199,-13.38,9.54,-18.24,44.1782,-13.0092,1.1184,55.56715,37.559246,210.8134,0,6348
0.088588,2.760599,9.553157,-0.068658,0.008785,-0.021199,-13.38,9.54,-18.24,44.1782,-13.0092,1.1184,55.56715,37.559246,210.8134,0,6358
0.10056,2.655251,9.80695,-0.051553,-0.018703,-0.012647,-13.26,9.36,-18.72,44.1782,-13.0092,1.1184,55.56715,37.559246,210.8134,0,6368
-0.052674,2.411035,9.747093,-0.043612,-0.000988,0.019729,-13.26,9.36,-18.72,44.1782,-13.0092,1.1184,55.56715,37.559246,210.8134,0,6378
-0.057463,2.425401,9.744699,-0.04178,0.002677,0.018507,-13.74,8.76,-19.14,47.9616,-12.9247,1.1331,55.56715,37.559246,210.8134,0,6388
-0.057463,2.425401,9.744699,-0.025897,0.00512,0.002624,-13.74,8.76,-19.14,47.9616,-12.9247,1.1331,55.56715,37.559246,210.8134,0,6398
-0.129291,2.485257,9.761458,-0.019178,0.000233,-0.002263,-13.92,8.94,-19.14,47.9616,-12.9247,1.1331,55.56715,37.559246,210.8134,0,6409
-0.129291,2.485257,9.761458,-0.019178,0.000233,-0.002263,-13.92,8.94,-19.14,47.9616,-12.9247,1.1331,55.56715,37.559246,210.8134,0,6418
-0.167599,2.597788,9.581888,0.002203,-0.016871,-0.03586,-13.74,9.18,-19.44,48.0012,-12.8044,1.0871,55.56715,37.559246,210.8134,0,6428
-0.260976,2.710319,9.431048,-0.018567,-0.013206,-0.052354,-13.62,8.58,-19.62,48.0012,-12.8044,1.0871,55.56715,37.559246,210.8134,0,6438
-0.260976,2.710319,9.431048,-0.046666,-0.003432,-0.055408,-13.62,8.58,-19.62,48.0012,-12.8044,1.0871,55.56715,37.559246,210.8134,0,6448
-0.328016,2.516383,9.624985,-0.065603,0.006953,-0.051743,-13.74,8.4,-19.8,48.0012,-12.8044,1.0871,55.56715,37.559246,210.8134,0,6458
-0.31365,2.322447,9.996098,-0.06316,0.012451,-0.035249,-13.74,8.4,-19.8,48.0012,-12.8044,1.0871,55.56715,37.559246,210.8134,0,6468
-0.31365,2.322447,9.996098,-0.06316,0.012451,-0.035249,-13.74,8.04,-19.2,50.2438,-12.7631,1.076,55.56715,37.559246,210.8134,0,6478
-0.423787,2.19555,9.823709,-0.02773,0.000233,-0.011426,-13.62,7.68,-19.08,50.2438,-12.7631,1.076,55.56715,37.559246,210.8134,0,6488
-0.493221,2.449343,10.151725,-0.015512,-0.004043,0.000792,-13.62,7.68,-19.08,50.2438,-12.7631,1.076,55.56715,37.559246,210.8134,0,6498
-0.565049,2.430189,9.771035,0.018085,0.010618,0.02095,-13.08,7.32,-18.6,50.2438,-12.7631,1.076,55.56715,37.559246,210.8134,0,6508
-0.565049,2.430189,9.771035,0.037633,0.010007,0.038665,-13.08,7.32,-18.6,50.2438,-12.7631,1.076,55.56715,37.559246,210.8134,0,6518
-0.490826,2.494835,9.608225,0.043131,-0.00221,0.037444,-12.42,7.8,-18.78,45.9542,-12.9082,1.1891,55.56715,37.559246,210.8134,0,6529
-0.354353,2.5092,9.60583,0.038855,0.006953,0.035,-12.78,7.32,-18.84,45.9542,-12.9082,1.1891,55.56715,37.559246,210.8134,0,6538
-0.275342,2.423006,9.452597,0.025416,0.014894,0.023394,-12.78,7.32,-18.84,45.9542,-12.9082,1.1891,55.56715,37.559246,210.8134,0,6549
-0.167599,2.387092,9.45978,0.02847,0.004509,0.017285,-12.9,7.2,-19.08,45.9542,-12.9082,1.1891,55.56715,37.559246,210.8134,0,6559
-0.167599,2.387092,9.45978,0.025416,0.01184,0.009344,-12.9,7.2,-19.08,45.9542,-12.9082,1.1891,55.56715,37.559246,210.8134,0,6568
-0.239427,2.365544,9.495694,0.03519,0.017338,0.016674,-12.9,6.9,-18.66,50.4825,-13.2247,1.3514,55.56715,37.559246,210.8134,0,6578
-0.205908,2.372727,9.42626,0.039466,0.017338,0.030113,-13.02,6.96,-19.14,50.4825,-13.2247,1.3514,55.56715,37.559246,210.8134,0,6588
-0.112531,2.451738,9.277815,0.040687,0.023446,0.036222,-13.02,6.96,-19.14,50.4825,-13.2247,1.3514,55.56715,37.559246,210.8134,0,6598
-0.112531,2.451738,9.277815,0.046796,0.017948,0.030724,-13.74,5.88,-19.38,50.4825,-13.2247,1.3514,55.56715,37.559246,210.8134,0,6608
-0.095771,2.535537,9.150918,0.053515,-0.001599,0.024005,-13.74,5.88,-19.38,50.4825,-13.2247,1.3514,55.56715,37.559246,210.8134,0,6619
-0.112531,2.590605,9.035994,0.053515,-0.001599,0.024005,-13.44,5.46,-19.32,55.7396,-13.3053,1.3843,55.56715,37.559246,210.8134,0,6628
-0.055068,2.578634,8.976136,0.034579,-0.007708,0.01362,-13.62,6,-19.26,55.7396,-13.3053,1.3843,55.56715,37.559246,210.8134,0,6638
-0.03352,2.643279,9.000079,0.007701,-0.00221,0.000792,-13.62,6,-19.26,55.7396,-13.3053,1.3843,55.56715,37.559246,210.8134,0,6648
-0.205908,2.743839,9.182044,-0.024675,0.004509,-0.017534,-13.44,6.18,-19.38,55.7396,-13.3053,1.3843,55.56715,37.559246,210.8134,0,6659
-0.205908,2.743839,9.182044,-0.047888,-0.010151,-0.045023,-13.44,6.18,-19.38,55.7396,-13.3053,1.3843,55.56715,37.559246,210.8134,0,6668
-0.237033,2.844399,9.466963,-0.044223,-0.040695,-0.060295,-12.9,5.4,-19.14,55.641,-13.4169,1.3814,55.56715,37.559246,210.8134,0,6679
-0.146051,2.885101,9.567522,-0.044834,-0.060242,-0.061517,-13.2,5.34,-19.32,55.641,-13.4169,1.3814,55.56715,37.559246,210.8134,0,6688
-0.052674,2.739051,9.763853,-0.066214,-0.049858,-0.040747,-13.2,5.34,-19.32,55.641,-13.4169,1.3814,55.56715,37.559246,210.8134,0,6698
-0.052674,2.739051,9.763853,-0.099201,-0.010151,-0.006539,-13.5,5.22,-18.9,55.641,-13.4169,1.3814,55.56715,37.559246,210.8134,0,6708
0.019154,2.640885,10.043983,-0.110196,-0.005264,0.016063,-13.5,5.22,-18.9,55.641,-13.4169,1.3814,55.56715,37.559246,210.8134,0,6718
0.011971,2.504412,10.190034,-0.096757,-0.018093,0.019118,-14.22,4.86,-18.66,57.5978,-13.294,1.3157,55.56715,37.559246,210.8134,0,6728
-0.074223,2.379909,10.259467,-0.067436,-0.031532,0.01362,-14.28,4.74,-18.84,57.5978,-13.294,1.3157,55.56715,37.559246,210.8134,0,6738
-0.074223,2.379909,10.259467,-0.067436,-0.031532,0.01362,-14.28,4.74,-18.84,57.5978,-13.294,1.3157,55.56715,37.559246,210.8134,0,6748
-0.107742,2.214704,10.130177,-0.038725,-0.022369,0.020339,-13.86,5.16,-19.44,57.5978,-13.294,1.3157,55.56715,37.559246,210.8134,0,6759
-0.047885,2.140482,9.996098,-0.010015,-0.007097,0.025837,-13.86,5.16,-19.44,57.5978,-13.294,1.3157,55.56715,37.559246,210.8134,0,6768
-0.057463,2.16203,9.854836,0.013809,0.00512,0.031335,-13.44,5.1,-19.74,55.2451,-13.0481,1.2519,55.56715,37.559246,210.8134,0,6778
-0.040703,2.159636,9.72315,0.040076,0.002066,0.027059,-13.5,4.62,-19.44,55.2451,-13.0481,1.2519,55.56715,37.559246,210.8134,0,6788
-0.040703,2.159636,9.72315,0.055348,0.014894,0.02095,-13.5,4.62,-19.44,55.2451,-13.0481,1.2519,55.56715,37.559246,210.8134,0,6798
-0.035914,2.14527,9.670476,0.057792,0.026501,0.014842,-13.92,4.5,-19.2,55.2451,-13.0481,1.2519,55.56715,37.559246,210.8134,0,6808
0.088588,2.087808,9.522031,0.066955,0.018559,0.008733,-13.92,4.5,-19.2,55.2451,-13.0481,1.2519,55.56715,37.559246,210.8134,0,6819
0.141262,2.051894,9.385557,0.071231,0.015505,0.004457,-13.26,4.62,-19.08,55.7963,-13.0921,1.2243,55.56715,37.559246,210.8134,0,6828
0.141262,2.051894,9.385557,0.071231,0.015505,0.004457,-13.14,4.14,-19.08,55.7963,-13.0921,1.2243,55.56715,37.559246,210.8134,0,6838
-0.004789,2.183579,9.335278,0.069398,0.017948,-0.005317,-13.14,4.14,-19.08,55.7963,-13.0921,1.2243,55.56715,37.559246,210.8134,0,6848
-0.126897,2.348784,9.289786,0.073063,0.00512,-0.012647,-13.8,3.48,-18.48,55.7963,-13.0921,1.2243,55.56715,37.559246,210.8134,0,6858
-0.126897,2.348784,9.289786,0.073063,0.00512,-0.012647,-13.8,3.48,-18.48,55.7963,-13.0921,1.2243,55.56715,37.559246,210.8134,0,6868
-0.148445,2.691165,9.076695,0.061457,-0.00893,-0.013869,-14.1,2.76,-19.02,63.4268,-13.279,1.2709,55.56713,37.55923,211.0417,0,6878
-0.191542,2.964112,9.014444,0.004035,-0.011373,-0.019978,-14.34,3,-19.14,63.4268,-13.279,1.2709,55.56713,37.55923,211.0417,0,6888
-0.292102,3.059883,9.213169,-0.064382,0.007564,-0.035249,-14.34,3,-19.14,63.4268,-13.279,1.2709,55.56713,37.55923,211.0417,0,6899
-0.272947,2.997632,9.440625,-0.100423,-0.003432,-0.043191,-14.1,3.78,-19.5,63.4268,-13.279,1.2709,55.56713,37.55923,211.0417,0,6908
-0.272947,2.997632,9.440625,-0.100423,-0.003432,-0.043191,-14.1,3.78,-19.5,63.4268,-13.279,1.2709,55.56713,37.55923,211.0417,0,6919
-0.265764,2.746233,9.63935,-0.118138,-0.018703,-0.056019,-14.22,3.72,-19.86,59.6865,-13.3639,1.2662,55.56713,37.55923,211.0417,0,6928
-0.351958,2.468497,9.905115,-0.137685,-0.014427,-0.059684,-14.04,2.7,-20.04,59.6865,-13.3639,1.2662,55.56713,37.55923,211.0417,0,6939
-0.351958,2.468497,9.905115,-0.130966,0.003899,-0.035249,-14.04,2.7,-20.04,59.6865,-13.3639,1.2662,55.56713,37.55923,211.0417,0,6948
-0.335198,2.032739,10.314536,-0.092481,0.01184,-0.008371,-14.28,2.7,-19.2,59.6865,-13.3639,1.2662,55.56713,37.55923,211.0417,0,6958
-0.294496,1.692752,10.407912,-0.06316,0.012451,0.008122,-14.28,2.7,-19.2,59.6865,-13.3639,1.2662,55.56713,37.55923,211.0417,0,6969
-0.294496,1.692752,10.407912,-0.06316,0.012451,0.008122,-14.88,3,-18.6,65.1739,-13.0364,1.2704,55.56713,37.55923,211.0417,0,6978
-0.359141,1.48445,10.23313,0.001592,0.031998,0.051493,-14.88,3,-18.6,65.1739,-13.0364,1.2704,55.56713,37.55923,211.0417,0,6988
-0.524346,1.573039,9.794978,0.055959,0.055211,0.097308,-14.58,3.3,-18.84,65.1739,-13.0364,1.2704,55.56713,37.55923,211.0417,0,6998
-0.251399,1.596981,9.474146,0.07062,0.095528,0.136404,-14.16,3.06,-19.5,65.1739,-13.0364,1.2704,55.56713,37.55923,211.0417,0,7008
-0.251399,1.596981,9.474146,0.095054,0.080868,0.113802,-14.16,3.06,-19.5,65.1739,-13.0364,1.2704,55.56713,37.55923,211.0417,0,7018
0.004789,1.817255,9.296969,0.129263,0.030777,0.075317,-14.16,3.24,-20.04,63.1151,-12.9508,1.3323,55.56713,37.55923,211.0417,0,7029
0.079011,1.987248,8.93304,0.131095,-0.007097,0.027059,-14.16,3.24,-20.04,63.1151,-12.9508,1.3323,55.56713,37.55923,211.0417,0,7038
0.062251,2.202733,8.609812,0.057792,-0.002821,-0.004706,-14.76,3.18,-19.62,63.1151,-12.9508,1.3323,55.56713,37.55923,211.0417,0,7048
-0.179571,2.193156,8.600235,-0.035671,-0.007708,-0.009593,-14.76,3.18,-19.62,63.1151,-12.9508,1.3323,55.56713,37.55923,211.0417,0,7059
-0.179571,2.193156,8.600235,-0.035671,-0.007708,-0.009593,-14.1,2.22,-19.5,66.726,-13.2433,1.4005,55.56713,37.55923,211.0417,0,7068
0.0838,2.698348,9.004868,-0.115083,0.031387,-0.016923,-14.1,2.22,-19.5,66.726,-13.2433,1.4005,55.56713,37.55923,211.0417,0,7078
-0.062251,2.652857,9.440625,-0.16212,-0.019925,-0.044412,-14.04,1.86,-19.26,66.726,-13.2433,1.4005,55.56713,37.55923,211.0417,0,7088
-0.047885,2.715108,9.823709,-0.163953,-0.062686,-0.056019,-14.04,1.86,-19.26,66.726,-13.2433,1.4005,55.56713,37.55923,211.0417,0,7099
-0.043097,2.504412,10.113417,-0.167618,-0.090175,-0.05663,-14.7,2.52,-19.5,65.2802,-13.0277,1.4225,55.56713,37.55923,211.0417,0,7108
-0.043097,2.504412,10.113417,-0.1835,-0.087731,-0.04258,-14.7,2.52,-19.5,65.2802,-13.0277,1.4225,55.56713,37.55923,211.0417,0,7118
-0.076617,2.171607,10.285805,-0.193274,-0.085288,-0.034639,-15.12,2.64,-19.68,65.2802,-13.0277,1.4225,55.56713,37.55923,211.0417,0,7129
-0.160416,1.793312,10.589877,-0.182279,-0.062075,-0.005317,-15.12,2.64,-19.68,65.2802,-13.0277,1.4225,55.56713,37.55923,211.0417,0,7138
-0.440547,1.553884,10.913105,-0.145016,-0.036419,0.000792,-15.42,2.52,-19.38,65.5551,-12.6221,1.2578,55.56713,37.55923,211.0417,0,7148
-0.440547,1.553884,10.913105,-0.080264,-0.007097,0.012398,-15.42,2.52,-19.38,65.5551,-12.6221,1.2578,55.56713,37.55923,211.0417,0,7158
-0.687157,1.496422,10.865219,0.067565,0.011229,0.021561,-15.48,2.28,-20.46,65.5551,-12.6221,1.2578,55.56713,37.55923,211.0417,0,7168
-0.794899,1.510787,10.38397,0.168358,-0.010762,0.009955,-15.48,2.28,-20.46,65.5551,-12.6221,1.2578,55.56713,37.55923,211.0417,0,7178
-0.773351,1.611347,9.905115,0.239218,-0.007708,-0.004706,-15.9,2.04,-20.1,69.3708,-12.4151,1.2023,55.56713,37.55923,211.0417,0,7188
-0.646454,1.81486,9.210775,0.272205,0.01184,-0.019978,-15.9,2.04,-20.1,69.3708,-12.4151,1.2023,55.56713,37.55923,211.0417,0,7198
-0.646454,1.81486,9.210775,0.251436,0.036885,-0.027919,-15.6,1.8,-19.44,69.3708,-12.4151,1.2023,55.56713,37.55923,211.0417,0,7208
-0.332804,1.94894,8.947405,0.251436,0.036885,-0.027919,-15.6,1.8,-19.44,69.3708,-12.4151,1.2023,55.56713,37.55923,211.0417,0,7218
-0.177176,2.097385,9.047964,0.204399,0.038718,-0.032195,-15.06,1.68,-19.98,67.6128,-12.9341,1.2237,55.56713,37.55923,211.0417,0,7228
-0.126897,2.248224,9.138947,0.157363,0.041772,-0.023032,-15.06,1.68,-19.98,67.6128,-12.9341,1.2237,55.56713,37.55923,211.0417,0,7238
-0.181965,2.372727,9.141341,0.125598,0.010007,-0.016923,-15.36,1.68,-19.86,67.6128,-12.9341,1.2237,55.56713,37.55923,211.0417,0,7248
-0.181965,2.372727,9.141341,0.106661,-0.030921,0.009955,-15.66,1.5,-19.86,67.6128,-12.9341,1.2237,55.56713,37.55923,211.0417,0,7259
-0.021548,2.645674,9.052753,0.071231,-0.063297,0.041109,-15.66,1.5,-19.86,67.6128,-12.9341,1.2237,55.56713,37.55923,211.0417,0,7269
0.035914,2.578634,8.873182,0.012587,-0.054745,0.080204,-15.78,1.08,-19.08,72.2321,-13.3251,1.3199,55.56713,37.55923,211.0417,0,7278
0.107742,2.595394,8.868394,-0.048499,-0.040084,0.106471,-15.78,1.08,-19.08,72.2321,-13.3251,1.3199,55.56713,37.55923,211.0417,0,7288
0.136474,2.688771,9.323306,-0.107142,-0.01626,0.100363,-15.84,0.96,-19.02,72.2321,-13.3251,1.3199,55.56713,37.55923,211.0417,0,7298
0.136474,2.688771,9.323306,-0.09187,-0.038251,0.080204,-15.84,0.96,-19.02,72.2321,-13.3251,1.3199,55.56713,37.55923,211.0417,0,7308
0.210696,2.470892,9.634562,-0.09187,-0.038251,0.080204,-15.78,1.44,-20.1,71.3317,-13.4395,1.1777,55.56713,37.55923,211.0417,0,7318
0.38069,2.401458,9.670476,-0.060105,-0.066351,0.05638,-15.78,1.44,-20.1,71.3317,-13.4395,1.1777,55.56713,37.55923,211.0417,0,7329
0.402238,2.334418,9.708784,-0.058884,-0.047414,0.027059,-16.14,0.96,-19.62,71.3317,-13.4395,1.1777,55.56713,37.55923,211.0417,0,7338
0.402238,2.334418,9.708784,-0.073545,-0.008319,0.009344,-16.14,0.96,-19.62,71.3317,-13.4395,1.1777,55.56713,37.55923,211.0417,0,7348
0.292102,2.384698,9.845258,-0.066825,0.005731,-0.016313,-16.32,0.84,-19.92,71.4421,-13.2551,1.036,55.56713,37.55923,211.0417,0,7358
0.270553,2.399063,10.015251,-0.050332,-0.008319,-0.066403,-16.32,0.84,-19.92,71.4421,-13.2551,1.036,55.56713,37.55923,211.0417,0,7369
0.107742,2.365544,10.156514,-0.029562,-0.019314,-0.097558,-16.38,0.96,-20.52,71.4421,-13.2551,1.036,55.56713,37.55923,211.0417,0,7378
-0.021548,2.166819,10.154119,-0.014291,-0.022369,-0.098168,-16.38,0.96,-20.52,71.4421,-13.2551,1.036,55.56713,37.55923,211.0417,0,7388
-0.021548,2.166819,10.154119,-0.01368,0.008175,-0.073123,-16.74,1.08,-19.44,73.2481,-13.1114,0.9998,55.56713,37.55923,211.0417,0,7398
-0.177176,2.130905,10.146936,-0.005128,0.024057,-0.053575,-16.74,1.08,-19.44,73.2481,-13.1114,0.9998,55.56713,37.55923,211.0417,0,7408
-0.366324,2.133299,10.187639,-0.005128,0.024057,-0.053575,-16.86,1.44,-19.44,73.2481,-13.1114,0.9998,55.56713,37.55923,211.0417,0,7419
-0.469278,2.17879,10.084685,0.026027,0.010618,-0.029752,-16.86,1.44,-19.44,73.2481,-13.1114,0.9998,55.56713,37.55923,211.0417,0,7428
-0.469278,2.17879,10.084685,0.085891,-0.000378,-0.001041,-16.74,1.32,-18.78,73.3021,-13.0648,1.0188,55.56713,37.55923,211.0417,0,7438
-0.524346,2.21231,9.828498,0.118878,0.001455,0.02767,-16.74,1.32,-18.78,73.3021,-13.0648,1.0188,55.56713,37.55923,211.0417,0,7449
-0.462095,2.140482,9.42626,0.128652,0.013672,0.05638,-16.5,1.14,-18.9,73.3021,-13.0648,1.0188,55.56713,37.55923,211.0417,0,7458
-0.423787,2.159636,9.172467,0.099941,0.050324,0.063711,-16.5,1.14,-18.9,73.3021,-13.0648,1.0188,55.56713,37.55923,211.0417,0,7468
-0.41421,2.226676,9.14613,0.088335,0.050935,0.048439,-17.16,0.9,-19.62,72.4983,-13.2128,1.0366,55.56713,37.55923,211.0417,0,7478
-0.41421,2.226676,9.14613,0.092,0.042994,0.030113,-17.16,0.9,-19.62,72.4983,-13.2128,1.0366,55.56713,37.55923,211.0417,0,7488
-0.373507,2.253013,9.064724,0.08528,0.033831,0.020339,-17.94,0.54,-19.08,72.4983,-13.2128,1.0366,55.56713,37.55923,211.0417,0,7498
-0.158022,2.308081,8.803748,0.08528,0.033831,0.020339,-18.24,0.42,-18.72,72.4983,-13.2128,1.0366,55.56713,37.55923,211.0417,0,7508
0.03352,2.451738,8.729526,0.055959,0.03322,0.011176,-18.24,0.42,-18.72,72.4983,-13.2128,1.0366,55.56713,37.55923,211.0417,0,7519
0.148445,2.683982,8.954588,0.01442,0.027722,0.008122,-17.94,0,-19.32,76.6628,-13.5067,1.1202,55.56713,37.55923,211.0417,0,7528
0.148445,2.683982,8.954588,-0.033838,0.014894,-0.002874,-17.94,0,-19.32,76.6628,-13.5067,1.1202,55.56713,37.55923,211.0417,0,7538
0.167599,2.729473,9.115005,-0.062549,-0.000988,-0.002263,-17.7,0.24,-20.04,76.6628,-13.5067,1.1202,55.56713,37.55923,211.0417,0,7548
0.22985,2.581028,9.308941,-0.095536,0.000233,-0.002263,-17.58,0.36,-20.22,76.6628,-13.5067,1.1202,55.56713,37.55923,211.0417,0,7558
0.22985,2.581028,9.308941,-0.138296,0.00512,0.005068,-17.58,0.36,-20.22,76.6628,-13.5067,1.1202,55.56713,37.55923,211.0417,0,7569
0.215485,2.396669,9.569917,-0.160287,0.008175,0.008733,-17.46,0.12,-19.8,75.2723,-13.4686,1.1784,55.56713,37.55923,211.0417,0,7578
0.158022,2.29611,9.921875,-0.160287,0.003288,0.000181,-17.46,0.12,-19.8,75.2723,-13.4686,1.1784,55.56713,37.55923,211.0417,0,7588
0.052674,2.152453,10.154119,-0.113862,-0.018703,-0.005317,-18,0.84,-19.14,75.2723,-13.4686,1.1784,55.56713,37.55923,211.0417,0,7598
0.002394,1.980065,10.046377,-0.079042,-0.029699,-0.00715,-18,0.84,-19.14,75.2723,-13.4686,1.1784,55.56713,37.55923,211.0417,0,7608
0.002394,1.980065,10.046377,-0.067436,-0.012595,-0.016313,-18.18,0.6,-19.68,73.5571,-13.1301,1.1754,55.56713,37.55923,211.0417,0,7618
-0.107742,1.936968,9.905115,-0.074155,0.005731,-0.027308,-18.18,0.6,-19.68,73.5571,-13.1301,1.1754,55.56713,37.55923,211.0417,0,7628
-0.241822,2.051894,10.022434,-0.072934,0.001455,-0.04991,-17.52,0.54,-19.92,73.5571,-13.1301,1.1754,55.56713,37.55923,211.0417,0,7638
-0.241822,2.051894,10.022434,-0.072934,0.001455,-0.04991,-17.52,0.54,-19.92,73.5571,-13.1301,1.1754,55.56713,37.55923,211.0417,0,7648
-0.227456,2.114145,10.043983,-0.047888,-0.027866,-0.081064,-17.52,0.84,-19.02,74.3461,-12.9485,1.1525,55.56713,37.55923,211.0417,0,7658
-0.186753,1.980065,9.972155,-0.047888,-0.027866,-0.081064,-17.52,0.84,-19.02,74.3461,-12.9485,1.1525,55.56713,37.55923,211.0417,0,7668
-0.177176,1.757398,10.024829,-0.06316,-0.011984,-0.072512,-18,0.66,-19.14,74.3461,-12.9485,1.1525,55.56713,37.55923,211.0417,0,7678
-0.158022,1.628107,10.065532,-0.072323,0.03322,-0.037693,-18,0.66,-19.14,74.3461,-12.9485,1.1525,55.56713,37.55923,211.0417,0,7688
-0.371113,1.448536,10.099051,-0.057662,0.0546,-0.017534,-18.42,1.08,-20.22,73.8061,-12.8523,1.1474,55.56713,37.55923,211.0417,0,7699
-0.371113,1.448536,10.099051,-0.007571,0.062542,0.003235,-18.48,1.14,-20.4,73.8061,-12.8523,1.1474,55.56713,37.55923,211.0417,0,7708
-0.679974,1.453325,10.029617,0.102385,0.042994,0.02095,-18.48,1.14,-20.4,73.8061,-12.8523,1.1474,55.56713,37.55923,211.0417,0,7718
-0.723071,1.563461,9.73991,0.175689,0.018559,0.024005,-18.12,1.08,-20.4,73.8061,-12.8523,1.1474,55.56713,37.55923,211.0417,0,7728
-0.581809,1.845986,9.191621,0.198901,-0.005875,0.017896,-18.12,1.08,-20.4,73.8061,-12.8523,1.1474,55.56713,37.55923,211.0417,0,7738
-0.581809,1.845986,9.191621,0.198901,-0.005875,0.017896,-17.88,1.2,-19.98,73.9564,-12.7591,1.2742,55.56713,37.55923,211.0417,0,7748
-0.536318,2.217099,8.600235,0.180575,-0.013817,-0.004095,-17.88,0.6,-19.98,73.9564,-12.7591,1.2742,55.56713,37.55923,211.0417,0,7758
-0.452518,2.468497,8.612206,0.112159,0.005731,-0.01448,-17.88,0.6,-19.98,73.9564,-12.7591,1.2742,55.56713,37.55923,211.0417,0,7768
-0.452518,2.468497,8.612206,0.044963,0.007564,-0.021199,-18.54,0.66,-19.86,73.9564,-12.7591,1.2742,55.56713,37.55923,211.0417,0,7778
-0.323227,2.616943,8.968953,-0.01368,0.002066,-0.029752,-18.54,0.66,-19.86,73.9564,-12.7591,1.2742,55.56713,37.55923,211.0417,0,7788
-0.203513,2.54272,9.399923,-0.045445,-0.010151,-0.020589,-18.54,0.96,-19.8,74.356,-13.2096,1.2874,55.56713,37.55923,211.0417,0,7799
-0.114925,2.387092,9.538791,-0.060716,-0.022369,-0.00043,-18.06,1.14,-19.74,74.356,-13.2096,1.2874,55.56713,37.55923,211.0417,0,7808
-0.124502,2.181184,9.802161,-0.081486,-0.02298,0.031335,-18.06,1.14,-19.74,74.356,-13.2096,1.2874,55.56713,37.55923,211.0417,0,7819
-0.124502,2.181184,9.802161,-0.104088,0.000844,0.053937,-18.12,0.12,-20.46,74.356,-13.2096,1.2874,55.56713,37.55923,211.0417,0,7828
-0.090982,2.011191,10.039194,-0.087594,-0.007097,0.067376,-18.12,0.12,-20.46,74.356,-13.2096,1.2874,55.56713,37.55923,211.0417,0,7839
0.102954,1.836409,10.111023,-0.059495,-0.025423,0.078372,-18.84,0.36,-20.76,76.5108,-13.1149,1.2702,55.56713,37.55923,211.0417,0,7848
0.260976,1.711906,10.032011,-0.048499,-0.016871,0.077761,-18.9,0.72,-20.76,76.5108,-13.1149,1.2702,55.56713,37.55923,211.0417,0,7858
0.215485,1.750215,9.976943,-0.029562,0.007564,0.04905,-18.9,0.72,-20.76,76.5108,-13.1149,1.2702,55.56713,37.55923,211.0417,0,7868
0.215485,1.750215,9.976943,-0.009404,0.000233,0.014231,-18.42,0.84,-20.58,76.5108,-13.1149,1.2702,55.56713,37.55923,211.0417,0,7878
0.134079,1.889083,9.859624,0.013198,-0.021758,-0.024254,-18.42,0.84,-20.58,76.5108,-13.1149,1.2702,55.567093,37.559208,210.9307,0,7888
0.153234,1.922603,9.742304,0.027859,-0.031532,-0.054797,-18.6,1.56,-19.5,72.524,-12.9132,1.1981,55.567093,37.559208,210.9307,0,7898
0.138868,1.927391,9.699207,0.02114,-0.018093,-0.061517,-18.54,1.14,-19.98,72.524,-12.9132,1.1981,55.567093,37.559208,210.9307,0,7908
0.138868,1.927391,9.699207,0.02114,-0.018093,-0.061517,-18.54,1.14,-19.98,72.524,-12.9132,1.1981,55.567093,37.559208,210.9307,0,7918
0.045491,2.004008,9.75667,0.010144,-0.003432,-0.053575,-19.02,0.48,-20.76,72.524,-12.9132,1.1981,55.567093,37.559208,210.9307,0,7928
-0.098165,2.071048,9.802161,-0.002684,0.007564,-0.047467,-19.02,0.48,-20.76,72.524,-12.9132,1.1981,55.567093,37.559208,210.9307,0,7938
-0.098165,2.071048,9.802161,-0.001462,-0.000378,-0.049299,-18.96,0.18,-20.16,77.2517,-12.9356,1.1645,55.567093,37.559208,210.9307,0,7948
-0.28013,2.102173,9.749487,-0.000241,-0.018703,-0.052964,-19.56,0.24,-19.98,77.2517,-12.9356,1.1645,55.567093,37.559208,210.9307,0,7958
-0.359141,1.929786,9.696813,-0.005738,-0.021758,-0.045023,-19.56,0.24,-19.98,77.2517,-12.9356,1.1645,55.567093,37.559208,210.9307,0,7968
-0.359141,1.929786,9.696813,-0.013069,-0.00954,-0.031584,-19.74,0.3,-20.88,77.2517,-12.9356,1.1645,55.567093,37.559208,210.9307,0,7978
-0.385478,1.807678,9.749487,-0.013069,-0.00954,-0.031584,-19.74,0.3,-20.88,77.2517,-12.9356,1.1645,55.567093,37.559208,210.9307,0,7988
-0.430969,1.735849,9.840469,-0.004517,0.006342,-0.008371,-19.56,0.6,-20.34,75.3,-12.9169,1.1716,55.567093,37.559208,210.9307,0,7999
-0.457306,1.733455,9.830893,0.043131,0.013062,0.014842,-19.62,0.42,-20.04,75.3,-12.9169,1.1716,55.567093,37.559208,210.9307,0,8008
-0.383084,1.786129,9.778218,0.093833,0.000844,0.033778,-19.62,0.42,-20.04,75.3,-12.9169,1.1716,55.567093,37.559208,210.9307,0,8019
-0.383084,1.786129,9.778218,0.1201,0.006953,0.057602,-19.8,1.32,-19.98,75.3,-12.9169,1.1716,55.567093,37.559208,210.9307,0,8028
-0.148445,1.929786,9.498088,0.104828,0.021614,0.065543,-19.8,1.32,-19.98,75.3,-12.9169,1.1716,55.567093,37.559208,210.9307,0,8039
0.064645,2.130905,9.306546,0.054737,0.036885,0.043552,-19.32,0.78,-20.7,73.9172,-12.982,1.1893,55.567093,37.559208,210.9307,0,8048
0.143657,2.221887,9.27542,0.054737,0.036885,0.043552,-19.02,0.48,-20.52,73.9172,-12.982,1.1893,55.567093,37.559208,210.9307,0,8058
0.112531,2.190762,9.378374,0.013809,0.028944,0.011787,-19.02,0.48,-20.52,73.9172,-12.982,1.1893,55.567093,37.559208,210.9307,0,8069
0.105348,2.126116,9.555551,-0.014901,0.002066,-0.02181,-19.26,0.42,-20.1,73.9172,-12.982,1.1893,55.567093,37.559208,210.9307,0,8078
0.105348,2.126116,9.555551,-0.041169,-0.019314,-0.027308,-19.26,0.42,-20.1,73.9172,-12.982,1.1893,55.567093,37.559208,210.9307,0,8088
0.138868,2.12851,9.787795,-0.061938,-0.019925,-0.024254,-19.68,0.42,-19.98,77.673,-13.1841,1.2252,55.567093,37.559208,210.9307,0,8098
0.10056,2.104568,9.888355,-0.062549,-0.014427,-0.012036,-19.38,0.48,-19.62,77.673,-13.1841,1.2252,55.567093,37.559208,210.9307,0,8108
-0.079011,2.023162,9.929058,-0.036893,-0.034586,-0.002874,-19.38,0.48,-19.62,77.673,-13.1841,1.2252,55.567093,37.559208,210.9307,0,8119
-0.253793,1.941757,9.943423,-0.02101,-0.02359,0.000792,-19.98,0.6,-20.28,77.673,-13.1841,1.2252,55.567093,37.559208,210.9307,0,8129
-0.253793,1.941757,9.943423,-0.001462,0.00512,0.021561,-19.98,0.6,-20.28,77.673,-13.1841,1.2252,55.567093,37.559208,210.9307,0,8138
-0.373507,1.951334,9.988914,0.048629,0.017948,0.028281,-19.56,0.6,-20.52,74.6185,-13.0463,1.1852,55.567093,37.559208,210.9307,0,8148
-0.215485,1.956123,9.804555,0.076728,0.007564,0.019118,-19.56,0.6,-20.52,74.6185,-13.0463,1.1852,55.567093,37.559208,210.9307,0,8158
-0.225062,1.999219,9.567522,0.076728,0.007564,0.019118,-18.96,1.08,-19.98,74.6185,-13.0463,1.1852,55.567093,37.559208,210.9307,0,8169
-0.225062,1.999219,9.567522,0.096887,0.008785,-0.013258,-18.96,1.08,-19.98,74.6185,-13.0463,1.1852,55.567093,37.559208,210.9307,0,8178
-0.399844,2.056682,9.411894,0.102385,0.021003,-0.033417,-19.5,1.14,-19.98,74.4347,-13.0579,1.1648,55.567093,37.559208,210.9307,0,8188
-0.450124,2.047105,9.28021,0.103606,0.030777,-0.026697,-19.92,0.72,-20.16,74.4347,-13.0579,1.1648,55.567093,37.559208,210.9307,0,8198
-0.438152,2.068653,9.12937,0.089557,0.035053,-0.02181,-19.92,0.72,-20.16,74.4347,-13.0579,1.1648,55.567093,37.559208,210.9307,0,8208
-0.438152,2.068653,9.12937,0.067565,0.053379,-0.004095,-20.22,0.66,-20.28,74.4347,-13.0579,1.1648,55.567093,37.559208,210.9307,0,8218
-0.36393,2.073442,9.074302,0.052294,0.049713,0.004457,-20.22,0.66,-20.28,74.4347,-13.0579,1.1648,55.567093,37.559208,210.9307,0,8228
-0.287313,2.226676,8.942616,0.052294,0.049713,0.004457,-19.92,0.54,-20.16,74.9743,-13.3278,1.2351,55.567093,37.559208,210.9307,0,8239
-0.301679,2.387092,8.983319,0.030913,0.028333,0.000792,-19.92,0.54,-20.16,74.9743,-13.3278,1.2351,55.567093,37.559208,210.9307,0,8248
-0.301679,2.387092,8.983319,-0.017956,0.000233,-0.012647,-20.04,0.18,-20.58,74.9743,-13.3278,1.2351,55.567093,37.559208,210.9307,0,8258
-0.105348,2.341601,9.198804,-0.064992,-0.015038,-0.004095,-20.16,0.42,-20.64,74.9743,-13.3278,1.2351,55.567093,37.559208,210.9307,0,8268
-0.105348,2.341601,9.198804,-0.139518,-0.010151,0.005679,-20.16,0.42,-20.64,74.9743,-13.3278,1.2351,55.567093,37.559208,210.9307,0,8278
0.052674,2.276955,9.431048,-0.139518,-0.010151,0.005679,-20.22,1.08,-20.88,74.3477,-13.4278,1.3373,55.567093,37.559208,210.9307,0,8288
-0.064645,2.126116,9.897932,-0.174337,0.006342,0.004457,-20.22,1.08,-20.88,74.3477,-13.4278,1.3373,55.567093,37.559208,210.9307,0,8298
-0.079011,1.999219,10.223554,-0.16212,-0.010762,0.004457,-20.22,1.2,-20.76,74.3477,-13.4278,1.3373,55.567093,37.559208,210.9307,0,8308
-0.079011,1.999219,10.223554,-0.127912,-0.027866,0.005679,-20.22,1.2,-20.76,74.3477,-13.4278,1.3373,55.567093,37.559208,210.9307,0,8318
0.141262,1.697541,10.465375,-0.106531,-0.017482,0.011787,-20.16,1.32,-20.76,74.5981,-13.138,1.318,55.567093,37.559208,210.9307,0,8328
0.141262,1.697541,10.465375,-0.071712,0.002677,0.019118,-20.16,1.32,-20.76,74.5981,-13.138,1.318,55.567093,37.559208,210.9307,0,8339
0.205908,1.573039,10.661706,-0.024064,-0.004654,0.01362,-19.98,1.08,-19.92,74.5981,-13.138,1.318,55.567093,37.559208,210.9307,0,8348
0,1.544307,10.59706,0.007701,-0.003432,0.003235,-19.98,1.08,-19.92,74.5981,-13.138,1.318,55.567093,37.559208,210.9307,0,8358
-0.272947,1.577827,10.410307,0.060846,-0.005264,-0.017534,-20.4,0.6,-20.46,75.3969,-12.8595,1.2784,55.567093,37.559208,210.9307,0,8369
-0.272947,1.577827,10.410307,0.088946,-0.00893,-0.023643,-20.4,0.6,-20.46,75.3969,-12.8595,1.2784,55.567093,37.559208,210.9307,0,8378
-0.237033,1.726272,10.156514,0.088946,-0.00893,-0.023643,-20.34,1.08,-21.54,75.3969,-12.8595,1.2784,55.567093,37.559208,210.9307,0,8389
-0.251399,1.834015,9.768641,0.120711,-0.010762,-0.023032,-20.34,1.08,-21.54,75.3969,-12.8595,1.2784,55.567093,37.559208,210.9307,0,8399
-0.26337,1.94894,9.466963,0.106661,0.008175,-0.043801,-19.44,1.62,-21.24,71.424,-12.8891,1.2635,55.567093,37.559208,210.9307,0,8408
-0.26337,1.94894,9.466963,0.091389,-0.00221,-0.044412,-19.44,1.62,-21.24,71.424,-12.8891,1.2635,55.567093,37.559208,210.9307,0,8418
-0.409421,2.063865,9.378374,0.084059,0.003899,-0.027919,-19.74,1.5,-21.18,71.424,-12.8891,1.2635,55.567093,37.559208,210.9307,0,8428
-0.318439,2.092596,9.308941,0.084059,0.003899,-0.027919,-19.74,1.5,-21.18,71.424,-12.8891,1.2635,55.567093,37.559208,210.9307,0,8438
-0.392661,2.152453,9.294575,0.065122,0.017948,-0.015091,-20.64,1.38,-20.94,75.2868,-13.1249,1.2716,55.567093,37.559208,210.9307,0,8448
-0.481249,2.22907,9.301758,0.053515,0.016727,-0.00715,-20.64,1.38,-20.94,75.2868,-13.1249,1.2716,55.567093,37.559208,210.9307,0,8459
-0.481249,2.22907,9.301758,0.0639,0.003288,-0.002874,-20.28,1.38,-20.52,75.2868,-13.1249,1.2716,55.567093,37.559208,210.9307,0,8468
-0.512375,2.231464,9.227535,0.068787,-0.003432,0.013009,-20.16,1.02,-20.52,75.2868,-13.1249,1.2716,55.567093,37.559208,210.9307,0,8478
-0.454912,2.355966,8.93304,0.027248,0.014283,0.024005,-20.16,1.02,-20.52,75.2868,-13.1249,1.2716,55.567093,37.559208,210.9307,0,8489
-0.454912,2.355966,8.93304,-0.005128,0.009396,0.016674,-19.68,0.96,-20.64,74.4416,-13.3098,1.3127,55.567093,37.559208,210.9307,0,8498
-0.466884,2.478074,9.040782,-0.058273,-0.003432,-0.004095,-19.68,0.96,-20.64,74.4416,-13.3098,1.3127,55.567093,37.559208,210.9307,0,8508
-0.418998,2.425401,9.347249,-0.087594,-0.022369,-0.003484,-20.4,0.66,-20.82,74.4416,-13.3098,1.3127,55.567093,37.559208,210.9307,0,8518
-0.122108,2.092596,9.462174,-0.087594,-0.022369,-0.003484,-20.4,0.66,-20.82,74.4416,-13.3098,1.3127,55.567093,37.559208,210.9307,0,8528
-0.122108,2.092596,9.462174,-0.117527,-0.024201,0.011787,-20.88,0.42,-20.88,77.5627,-13.3515,1.3169,55.567093,37.559208,210.9307,0,8538
0.055068,1.819649,9.675264,-0.154179,0.001455,0.01362,-20.88,0.42,-20.88,77.5627,-13.3515,1.3169,55.567093,37.559208,210.9307,0,8548
-0.045491,1.65205,10.343267,-0.159066,0.013062,0.008733,-20.7,1.08,-20.58,77.5627,-13.3515,1.3169,55.567093,37.559208,210.9307,0,8558
-0.064645,1.474873,10.460587,-0.106531,0.006342,0.020339,-20.7,1.08,-20.58,77.5627,-13.3515,1.3169,55.567093,37.559208,210.9307,0,8568
0.01676,1.319246,10.245102,-0.044834,-0.002821,0.036833,-20.82,1.32,-19.74,75.8805,-13.0884,1.2931,55.567093,37.559208,210.9307,0,8578
0.01676,1.319246,10.245102,0.004646,0.017948,0.057602,-20.82,1.32,-19.74,75.8805,-13.0884,1.2931,55.567093,37.559208,210.9307,0,8588
-0.002394,1.424594,10.048771,0.036411,0.02589,0.046607,-20.94,0.72,-20.16,75.8805,-13.0884,1.2931,55.567093,37.559208,210.9307,0,8598
-0.155628,1.623318,9.974549,0.081004,0.016727,0.024615,-20.94,0.72,-20.16,75.8805,-13.0884,1.2931,55.567093,37.559208,210.9307,0,8608
-0.043097,1.666415,9.63935,0.125598,-0.011984,0.001403,-20.46,0.48,-21.12,77.3498,-12.9217,1.2913,55.567093,37.559208,210.9307,0,8618
0.095771,1.690358,9.304152,0.132317,-0.021758,-0.013869,-20.46,0.48,-21.12,77.3498,-12.9217,1.2913,55.567093,37.559208,210.9307,0,8628
0.095771,1.690358,9.304152,0.078561,0.009396,-0.030362,-20.34,0.72,-20.88,77.3498,-12.9217,1.2913,55.567093,37.559208,210.9307,0,8638
0.035914,1.774158,9.217958,0.03519,0.018559,-0.038304,-20.34,0.72,-20.88,77.3498,-12.9217,1.2913,55.567093,37.559208,210.9307,0,8649
-0.086194,1.934574,9.584282,0.0358,0.002677,-0.036471,-20.34,1.2,-20.82,74.5958,-13.1245,1.2873,55.567093,37.559208,210.9307,0,8658
-0.002394,2.071048,9.624985,0.0639,-0.040695,-0.019978,-20.34,1.2,-20.82,74.5958,-13.1245,1.2873,55.567093,37.559208,210.9307,0,8668
-0.002394,2.071048,9.624985,0.065122,-0.044971,-0.002263,-20.82,1.26,-20.88,74.5958,-13.1245,1.2873,55.567093,37.559208,210.9307,0,8678
0.023943,2.233858,9.462174,0.065122,-0.044971,-0.002263,-20.82,1.26,-20.88,74.5958,-13.1245,1.2873,55.567093,37.559208,210.9307,0,8688
0.062251,2.434978,9.371192,0.037022,-0.021147,0.02767,-21.06,0.84,-20.64,75.1993,-13.2396,1.2967,55.567093,37.559208,210.9307,0,8698
0.03352,2.463709,9.270632,-0.01368,0.006342,0.041109,-21.06,0.84,-20.64,75.1993,-13.2396,1.2967,55.567093,37.559208,210.9307,0,8708
-0.086194,2.298504,9.416683,-0.053386,0.014894,0.028891,-20.76,0.24,-20.46,75.1993,-13.2396,1.2967,55.567093,37.559208,210.9307,0,8719
-0.086194,2.298504,9.416683,-0.072323,0.01184,0.009344,-20.76,0.24,-20.46,75.1993,-13.2396,1.2967,55.567093,37.559208,210.9307,0,8728
-0.244216,2.176396,9.632168,-0.069879,-0.002821,-0.018145,-20.94,0.24,-20.16,78.1409,-13.3102,1.2348,55.567093,37.559208,210.9307,0,8738
-0.268159,1.999219,9.847652,-0.061327,-0.00954,-0.030973,-20.94,0.24,-20.16,78.1409,-13.3102,1.2348,55.567093,37.559208,210.9307,0,8748
-0.268159,1.980065,9.885961,-0.060105,0.016116,-0.033417,-20.94,0.72,-20.34,78.1409,-13.3102,1.2348,55.567093,37.559208,210.9307,0,8758
-0.268159,1.980065,9.885961,-0.05644,0.010007,-0.032195,-20.94,0.72,-20.34,78.1409,-13.3102,1.2348,55.567093,37.559208,210.9307,0,8768
-0.256187,1.891477,9.821315,-0.048499,0.005731,-0.032806,-20.7,1.2,-20.46,75.7996,-13.1582,1.2388,55.567093,37.559208,210.9307,0,8779
-0.366324,1.850774,9.828498,-0.048499,0.005731,-0.032806,-20.7,1.2,-20.46,75.7996,-13.1582,1.2388,55.567093,37.559208,210.9307,0,8788
-0.41421,1.783735,9.988914,-0.046056,0.002066,-0.034028,-20.94,1.2,-19.74,75.7996,-13.1582,1.2388,55.567093,37.559208,210.9307,0,8798
-0.457306,1.731061,10.039194,-0.014291,-0.000378,-0.020589,-20.94,1.2,-19.74,75.7996,-13.1582,1.2388,55.567093,37.559208,210.9307,0,8808
-0.457306,1.731061,10.039194,0.006479,0.002066,-0.016923,-21.24,1.26,-20.52,75.3741,-13.0237,1.2718,55.567093,37.559208,210.9307,0,8818
-0.474066,1.659233,9.955395,0.026637,0.006953,-0.012036,-21.48,1.32,-20.82,75.3741,-13.0237,1.2718,55.567093,37.559208,210.9307,0,8829
-0.486038,1.616136,9.878778,0.054126,0.010007,-0.001041,-21.48,1.32,-20.82,75.3741,-13.0237,1.2718,55.567093,37.559208,210.9307,0,8839
-0.486038,1.616136,9.878778,0.069398,0.019781,0.002013,-21.06,1.44,-21.54,75.3741,-13.0237,1.2718,55.567093,37.559208,210.9307,0,8848
-0.488432,1.623318,9.70639,0.091389,0.017338,0.004457,-21.06,1.44,-21.54,75.3741,-13.0237,1.2718,55.567093,37.559208,210.9307,0,8858
-0.399844,1.690358,9.579494,0.10605,0.006342,0.015452,-20.88,1.5,-20.64,72.9749,-13.0273,1.2948,55.567093,37.559208,210.9307,0,8868
-0.335198,1.800495,9.464568,0.115213,0.010618,0.023394,-21.06,1.08,-20.1,72.9749,-13.0273,1.2948,55.567047,37.559174,210.9204,3.6343,8879
-0.294496,1.939363,9.160496,0.109715,0.017338,0.031946,-21.06,1.08,-20.1,72.9749,-13.0273,1.2948,55.567047,37.559174,210.9204,3.6343,8888
-0.294496,1.939363,9.160496,0.087724,0.01917,0.036222,-20.7,0.78,-20.82,72.9749,-13.0273,1.2948,55.567047,37.559174,210.9204,3.6343,8898
-0.24661,2.073442,9.07909,0.055348,0.028944,0.031335,-20.7,0.78,-20.82,72.9749,-13.0273,1.2948,55.567047,37.559174,210.9204,3.6343,8908
-0.179571,2.303292,9.007262,0.003425,0.01917,0.016674,-20.7,1.68,-21,72.7832,-13.2822,1.3365,55.567047,37.559174,210.9204,3.6343,8918
-0.143656,2.320053,9.119793,0.003425,0.01917,0.016674,-21,1.56,-20.58,72.7832,-13.2822,1.3365,55.567047,37.559174,210.9204,3.6343,8928
-0.143656,2.320053,9.119793,-0.036282,-0.00221,-0.00043,-21,1.56,-20.58,72.7832,-13.2822,1.3365,55.567047,37.559174,210.9204,3.6343,8938
0.014366,2.324841,9.407105,-0.082707,-0.024201,-0.019367,-22.08,0.96,-20.82,72.7832,-13.2822,1.3365,55.567047,37.559174,210.9204,3.6343,8948
0.102954,2.150059,10.012857,-0.129744,-0.01626,-0.013258,-22.08,0.96,-20.82,72.7832,-13.2822,1.3365,55.567047,37.559174,210.9204,3.6343,8958
0.102954,2.150059,10.012857,-0.130355,-0.013206,0.006289,-21.42,0.48,-21.54,76.9914,-13.375,1.3692,55.567047,37.559174,210.9204,3.6343,8968
0.220273,1.874717,10.106234,-0.113251,-0.024812,0.020339,-21.24,0.3,-21.54,76.9914,-13.375,1.3692,55.567047,37.559174,210.9204,3.6343,8978
-0.043097,1.743032,10.23313,-0.087594,-0.014427,0.031335,-21.24,0.3,-21.54,76.9914,-13.375,1.3692,55.567047,37.559174,210.9204,3.6343,8989
-0.205908,1.762186,10.264256,-0.053386,0.006953,0.035611,-20.46,0.6,-21.78,76.9914,-13.375,1.3692,55.567047,37.559174,210.9204,3.6343,8999
