ACCELEROMETER X (m/s²),ACCELEROMETER Y (m/s²),ACCELEROMETER Z (m/s²),GYROSCOPE X (rad/s),GYROSCOPE Y (rad/s),GYROSCOPE Z (rad/s),MAGNETIC FIELD X (μT),MAGNETIC FIELD Y (μT),MAGNETIC FIELD Z (μT),ORIENTATION Z (azimuth °),ORIENTATION X (pitch °),ORIENTATION Y (roll °),LOCATION Latitude : ,LOCATION Longitude : ,LOCATION Altitude ( m),LOCATION Speed ( m/s),Time since start in ms 
-0.239427,1.036721,10.30017,-0.043001,-0.025423,-0.036471,-23.46,14.7,-20.64,54.6761,-4.8591,1.2235,55.56715,37.55926,215.4223,0,19
-0.22985,1.120521,10.307353,-0.016734,-0.026034,-0.023032,-24.36,15.36,-20.28,55.8374,-4.7684,1.2012,55.56715,37.55926,215.4223,0,29
-0.284919,1.149252,10.228342,-0.000241,-0.033975,-0.010815,-24.36,15.36,-20.28,55.8374,-4.7684,1.2012,55.56715,37.55926,215.4223,0,40
-0.284919,1.149252,10.228342,0.026027,-0.069405,0.033778,-24.6,15.54,-19.74,55.8374,-4.7684,1.2012,55.56715,37.55926,215.4223,0,50
-0.277736,1.266571,10.216371,0.037022,-0.075514,0.053937,-24.3,15.24,-19.92,55.8374,-4.7684,1.2012,55.56715,37.55926,215.4223,0,59
-0.21309,1.434171,10.075109,0.055959,-0.082233,0.063711,-24.3,15.24,-19.92,55.8374,-4.7684,1.2012,55.56715,37.55926,215.4223,0,69
-0.169993,1.505999,9.897932,0.059624,-0.08651,0.060046,-23.46,14.88,-19.98,54.7224,-4.6821,1.1223,55.56715,37.55926,215.4223,0,79
-0.169993,1.505999,9.897932,0.054126,-0.074903,0.050272,-23.46,14.88,-19.98,54.7224,-4.6821,1.1223,55.56715,37.55926,215.4223,0,89
-0.086194,1.613741,9.852441,0.053515,-0.042527,0.048439,-23.82,15.3,-19.44,54.7224,-4.6821,1.1223,55.56715,37.55926,215.4223,0,99
-0.057463,1.697541,9.802161,0.062678,-0.004654,0.061267,-23.82,15.3,-19.44,54.7224,-4.6821,1.1223,55.56715,37.55926,215.4223,0,109
-0.014366,1.750215,9.531608,0.0639,0.020392,0.064933,-24.48,15.48,-19.02,55.8255,-4.7958,0.9346,55.56715,37.55926,215.4223,0,120
-0.014366,1.750215,9.531608,0.0639,0.020392,0.064933,-24.48,15.48,-19.02,55.8255,-4.7958,0.9346,55.56715,37.55926,215.4223,0,129
-0.107742,1.795706,9.481328,0.047407,0.042994,0.057602,-23.94,15.48,-19.68,55.8255,-4.7958,0.9346,55.56715,37.55926,215.4223,0,139
-0.112531,1.790918,9.536397,0.034579,0.068039,0.061878,-23.94,15.48,-19.68,55.8255,-4.7958,0.9346,55.56715,37.55926,215.4223,0,149
-0.038308,1.786129,9.411894,0.033968,0.07537,0.067376,-24,16.14,-20.34,54.0387,-4.9466,0.8796,55.56715,37.55926,215.4223,0,159
-0.038308,1.786129,9.411894,0.03519,0.047881,0.039276,-24,16.14,-20.34,54.0387,-4.9466,0.8796,55.56715,37.55926,215.4223,0,169
0.01676,1.690358,9.335278,0.029081,0.030777,0.017285,-24.42,16.26,-20.04,54.0387,-4.9466,0.8796,55.56715,37.55926,215.4223,0,179
-0.052674,1.580221,9.356826,0.025416,0.022835,-0.00043,-24.42,16.26,-20.04,54.0387,-4.9466,0.8796,55.56715,37.55926,215.4223,0,189
-0.074223,1.505999,9.306546,0.008311,0.013672,-0.004706,-24.18,15.96,-19.98,54.0425,-5.0521,1.0053,55.56715,37.55926,215.4223,0,199
-0.071828,1.544307,9.325701,-0.011236,0.016116,-0.004095,-23.94,16.14,-19.92,54.0425,-5.0521,1.0053,55.56715,37.55926,215.4223,0,209
-0.071828,1.544307,9.325701,-0.02773,0.024668,-0.002874,-23.94,16.14,-19.92,54.0425,-5.0521,1.0053,55.56715,37.55926,215.4223,0,219
-0.057463,1.498816,9.320911,-0.047277,0.019781,-0.00043,-23.28,15.66,-19.86,54.0425,-5.0521,1.0053,55.56715,37.55926,215.4223,0,229
-0.038308,1.462902,9.301758,-0.062549,0.012451,-0.008371,-23.28,15.66,-19.86,54.0425,-5.0521,1.0053,55.56715,37.55926,215.4223,0,239
-0.124502,1.374314,9.325701,-0.085151,0.013672,-0.016313,-23.4,15.18,-20.46,54.4754,-5.1086,1.064,55.56715,37.55926,215.4223,0,249
-0.124502,1.374314,9.325701,-0.104088,0.022835,-0.020589,-23.4,15.18,-20.46,54.4754,-5.1086,1.064,55.56715,37.55926,215.4223,0,259
-0.232245,1.369525,9.584282,-0.104088,0.039329,-0.015091,-23.94,15.6,-20.4,54.4754,-5.1086,1.064,55.56715,37.55926,215.4223,0,270
-0.237033,1.350371,9.668081,-0.09187,0.044216,-0.003484,-23.94,15.6,-20.4,54.4754,-5.1086,1.064,55.56715,37.55926,215.4223,0,280
-0.253793,1.266571,9.536397,-0.090038,0.031387,-0.005928,-23.7,15.06,-19.98,55.6857,-4.9815,1.1007,55.56715,37.55926,215.4223,0,289
-0.203513,1.225869,9.713573,-0.086373,0.006342,-0.008982,-23.7,15.06,-19.98,55.6857,-4.9815,1.1007,55.56715,37.55926,215.4223,0,299
-0.203513,1.225869,9.713573,-0.082707,0.00512,-0.015091,-23.28,14.88,-19.92,55.6857,-4.9815,1.1007,55.56715,37.55926,215.4223,0,309
-0.21309,1.182772,9.735122,-0.085151,0.013672,-0.021199,-23.28,14.88,-19.92,55.6857,-4.9815,1.1007,55.56715,37.55926,215.4223,0,319
-0.301679,1.077424,9.79019,-0.093703,0.024057,-0.016313,-23.52,15.78,-19.26,54.3589,-4.7744,1.1769,55.56715,37.55926,215.4223,0,329
-0.241822,1.012778,9.878778,-0.092481,0.02589,-0.012036,-23.52,15.78,-19.26,54.3589,-4.7744,1.1769,55.56715,37.55926,215.4223,0,339
-0.181965,0.921796,9.960183,-0.088816,0.02589,-0.010815,-23.64,16.86,-18.9,54.3589,-4.7744,1.1769,55.56715,37.55926,215.4223,0,349
-0.181965,0.921796,9.960183,-0.082707,0.021003,-0.013869,-23.52,16.74,-18.72,54.3589,-4.7744,1.1769,55.56715,37.55926,215.4223,0,360
-0.143656,0.988836,9.972155,-0.069268,-0.001599,-0.018756,-23.52,16.74,-18.72,54.3589,-4.7744,1.1769,55.56715,37.55926,215.4223,0,369
-0.155628,0.97447,10.063137,-0.069268,-0.001599,-0.018756,-23.46,16.08,-19.5,53.3457,-4.5366,1.2249,55.56715,37.55926,215.4223,0,379
-0.141262,1.010384,10.091868,-0.047888,-0.019314,-0.015702,-23.46,16.08,-19.5,53.3457,-4.5366,1.2249,55.56715,37.55926,215.4223,0,389
-0.174782,1.082212,9.981731,-0.037503,-0.028477,-0.013869,-23.82,16.02,-19.8,53.3457,-4.5366,1.2249,55.56715,37.55926,215.4223,0,399
-0.174782,1.082212,9.981731,-0.032617,-0.033364,-0.009593,-23.82,16.02,-19.8,53.3457,-4.5366,1.2249,55.56715,37.55926,215.4223,0,409
-0.174782,1.142069,10.010463,-0.024675,-0.041305,-0.001652,-23.28,16.14,-20.16,53.3312,-4.3828,1.2426,55.56715,37.55926,215.4223,0,419
-0.220273,1.273754,10.146936,0.003425,-0.027866,0.003235,-23.28,16.14,-20.16,53.3312,-4.3828,1.2426,55.56715,37.55926,215.4223,0,429
-0.253793,1.280937,10.022434,0.039466,-0.020536,0.016063,-23.76,16.14,-19.92,53.3312,-4.3828,1.2426,55.56715,37.55926,215.4223,0,439
-0.220273,1.343188,9.90272,0.063289,-0.008319,0.016674,-23.76,16.14,-19.92,53.3312,-4.3828,1.2426,55.56715,37.55926,215.4223,0,449
-0.220273,1.343188,9.90272,0.060846,0.014283,0.011787,-24.36,16.2,-19.08,54.2206,-5.0128,1.1094,55.56715,37.55926,215.4223,0,459
-0.21309,1.458113,9.684841,0.060846,0.022224,0.009955,-24.36,16.2,-19.08,54.2206,-5.0128,1.1094,55.56715,37.55926,215.4223,0,469
-0.253793,1.436565,9.486116,0.049239,0.019781,-0.00043,-23.7,15.84,-18.84,54.2206,-5.0128,1.1094,55.56715,37.55926,215.4223,0,479
-0.253793,1.436565,9.486116,0.049239,0.019781,-0.00043,-23.7,15.84,-18.84,54.2206,-5.0128,1.1094,55.56715,37.55926,215.4223,0,489
-0.301679,1.412622,9.581888,0.038855,0.026501,-0.006539,-23.76,16.38,-19.2,54.1598,-5.1388,1.1025,55.56715,37.55926,215.4223,0,499
-0.146051,1.343188,9.531608,0.038855,0.022224,0.003235,-23.76,16.38,-19.2,54.1598,-5.1388,1.1025,55.56715,37.55926,215.4223,0,509
-0.086194,1.359948,9.42626,0.032746,0.023446,0.003235,-23.76,16.38,-19.38,54.1598,-5.1388,1.1025,55.56715,37.55926,215.4223,0,519
-0.040703,1.32164,9.395134,0.01442,0.021003,0.000792,-23.52,16.26,-19.62,54.1598,-5.1388,1.1025,55.56715,37.55926,215.4223,0,529
-0.040703,1.32164,9.395134,-0.020399,0.013672,0.005068,-23.52,16.26,-19.62,54.1598,-5.1388,1.1025,55.56715,37.55926,215.4223,0,539
-0.023943,1.290514,9.435837,-0.043001,0.01184,0.001403,-24.06,16.2,-19.68,54.012,-5.2663,1.1718,55.56715,37.55926,215.4223,0,549
-0.086194,1.261783,9.454991,-0.060105,0.017338,-0.004706,-24.06,16.2,-19.68,54.012,-5.2663,1.1718,55.56715,37.55926,213.9347,0,559
-0.184359,1.242629,9.61062,-0.075988,0.019781,-0.013869,-24.06,15.96,-19.68,54.012,-5.2663,1.1718,55.56715,37.55926,213.9347,0,569
-0.184359,1.139675,9.72315,-0.066214,0.010618,-0.019367,-24.06,15.96,-19.68,54.012,-5.2663,1.1718,55.56715,37.55926,213.9347,0,579
-0.184359,1.139675,9.72315,-0.045445,-0.008319,-0.018756,-23.82,15.72,-20.16,54.0456,-5.2262,1.2043,55.56715,37.55926,213.9347,0,589
-0.189148,1.055875,9.730332,-0.04178,-0.008319,-0.026086,-23.82,15.72,-20.16,54.0456,-5.2262,1.2043,55.56715,37.55926,213.9347,0,599
-0.205908,1.146858,9.778218,-0.050332,0.014283,-0.02181,-23.88,15.72,-20.34,54.0456,-5.2262,1.2043,55.56715,37.55926,213.9347,0,609
-0.253793,1.209109,9.821315,-0.049721,0.021614,-0.015091,-23.88,15.72,-20.34,54.0456,-5.2262,1.2043,55.56715,37.55926,213.9347,0,619
-0.251399,1.18756,9.766247,-0.045445,0.010618,-0.010204,-23.76,15.66,-20.1,54.1166,-5.0969,1.224,55.56715,37.55926,213.9347,0,630
-0.251399,1.18756,9.766247,-0.048499,-0.000988,-0.013258,-23.76,15.66,-20.1,54.1166,-5.0969,1.224,55.56715,37.55926,213.9347,0,639
-0.201119,1.180378,9.684841,-0.061327,0.012451,-0.017534,-23.52,15.84,-20.1,54.1166,-5.0969,1.224,55.56715,37.55926,213.9347,0,649
-0.220273,1.189955,9.785401,-0.065603,0.036885,-0.012036,-23.52,15.84,-20.1,54.1166,-5.0969,1.224,55.56715,37.55926,213.9347,0,659
-0.26337,1.063058,9.845258,-0.054608,0.026501,-0.00715,-23.58,15.78,-20.34,54.1753,-5.0011,1.2521,55.56715,37.55926,213.9347,0,669
-0.332804,1.082212,9.967366,-0.03506,0.011229,-0.006539,-23.58,15.78,-20.4,54.1753,-5.0011,1.2521,55.56715,37.55926,213.9347,0,679
-0.332804,1.082212,9.967366,-0.005738,-0.010151,-0.005928,-23.58,15.78,-20.4,54.1753,-5.0011,1.2521,55.56715,37.55926,213.9347,0,689
-0.337593,1.101366,9.96976,0.016864,-0.026645,0.000792,-23.7,15.96,-20.1,54.1753,-5.0011,1.2521,55.56715,37.55926,213.9347,0,699
-0.368718,1.089395,9.778218,0.013809,-0.010151,0.002624,-23.7,15.96,-20.1,54.1753,-5.0011,1.2521,55.56715,37.55926,213.9347,0,709
-0.301679,1.072635,9.677659,-0.010015,0.022835,0.000792,-24.12,15.96,-19.8,54.2682,-4.8593,1.3077,55.56715,37.55926,213.9347,0,720
-0.272947,0.993624,9.897932,-0.023454,0.027722,0.003846,-24.12,15.96,-19.8,54.2682,-4.8593,1.3077,55.56715,37.55926,213.9347,0,729
-0.272947,0.993624,9.897932,-0.002684,0.015505,0.011787,-23.88,15.78,-20.52,54.2682,-4.8593,1.3077,55.56715,37.55926,213.9347,0,739
-0.244216,1.017567,10.041589,0.02175,-0.000988,0.014842,-23.88,15.78,-20.52,54.2682,-4.8593,1.3077,55.56715,37.55926,213.9347,0,749
-0.241822,1.120521,10.000886,0.048018,-0.019925,0.019729,-23.46,15.9,-20.1,52.9394,-5.3247,1.4018,55.56715,37.55926,213.9347,0,759
-0.256187,1.247417,9.909904,0.065122,-0.022369,0.021561,-23.46,15.9,-20.1,52.9394,-5.3247,1.4018,55.56715,37.55926,213.9347,0,769
-0.169993,1.367131,9.689631,0.065122,0.006342,0.018507,-23.52,16.38,-19.26,52.9394,-5.3247,1.4018,55.56715,37.55926,213.9347,0,779
-0.169993,1.367131,9.689631,0.048018,0.014894,0.016063,-23.52,16.38,-19.26,52.9394,-5.3247,1.4018,55.56715,37.55926,213.9347,0,789
-0.189148,1.357554,9.478934,0.022361,0.026501,0.016674,-23.46,16.5,-19.38,51.4267,-5.6314,1.4636,55.56715,37.55926,213.9347,0,799
-0.160416,1.347977,9.445415,-0.002684,0.029555,0.007511,-23.46,16.5,-19.38,51.4267,-5.6314,1.4636,55.56715,37.55926,213.9347,0,809
-0.064645,1.314457,9.543579,-0.003295,0.021614,0.008733,-23.82,16.14,-18.96,51.4267,-5.6314,1.4636,55.56715,37.55926,213.9347,0,819
-0.064645,1.314457,9.543579,-0.003295,0.020392,0.009955,-23.82,16.14,-18.96,51.4267,-5.6314,1.4636,55.56715,37.55926,213.9347,0,829
0.040703,1.345583,9.423865,-0.022232,0.013062,-0.009593,-23.94,16.2,-19.14,54.0456,-5.7445,1.4827,55.56715,37.55926,213.9347,0,839
0.069434,1.381497,9.342461,-0.050332,0.035664,-0.027308,-23.94,16.2,-19.14,54.0456,-5.7445,1.4827,55.56715,37.55926,213.9347,0,850
-0.071828,1.319246,9.402317,-0.075988,0.03994,-0.030973,-24,16.74,-19.86,54.0456,-5.7445,1.4827,55.56715,37.55926,213.9347,0,860
-0.148445,1.228263,9.483723,-0.092481,0.037496,-0.026697,-24,16.74,-19.86,54.0456,-5.7445,1.4827,55.56715,37.55926,213.9347,0,870
-0.148445,1.228263,9.483723,-0.107142,0.031998,-0.029141,-23.7,16.8,-19.62,52.4575,-5.7333,1.5308,55.56715,37.55926,213.9347,0,880
-0.198725,1.1708,9.699207,-0.102255,0.020392,-0.030973,-23.7,16.8,-19.62,52.4575,-5.7333,1.5308,55.56715,37.55926,213.9347,0,890
-0.244216,1.084607,9.80695,-0.079653,-0.010151,-0.026086,-23.52,16.14,-19.2,52.4575,-5.7333,1.5308,55.56715,37.55926,213.9347,0,900
-0.24661,1.010384,9.838076,-0.068658,-0.016871,-0.026697,-23.52,16.14,-19.2,52.4575,-5.7333,1.5308,55.56715,37.55926,213.9347,0,909
-0.251399,0.964893,9.842864,-0.064382,-0.014427,-0.020589,-24.12,16.14,-19.56,54.0739,-5.5418,1.6124,55.56715,37.55926,213.9347,0,919
-0.251399,0.964893,9.842864,-0.059495,-0.013206,-0.013258,-24.12,16.14,-19.56,54.0739,-5.5418,1.6124,55.56715,37.55926,213.9347,0,929
-0.282524,0.962499,9.878778,-0.060105,-0.007097,-0.009593,-24.24,16.38,-19.8,54.0739,-5.5418,1.6124,55.56715,37.55926,213.9347,0,939
-0.29689,1.00799,9.871595,-0.060105,-0.007097,-0.009593,-24.24,16.38,-19.8,54.0739,-5.5418,1.6124,55.56715,37.55926,213.9347,0,949
-0.418998,1.048692,9.955395,-0.064992,0.016727,-0.009593,-23.52,15.66,-20.34,54.1496,-5.3703,1.6,55.56715,37.55926,213.9347,0,959
-0.430969,1.019961,10.039194,-0.060716,0.037496,-0.011426,-23.52,15.66,-20.34,54.1496,-5.3703,1.6,55.56715,37.55926,213.9347,0,969
-0.430969,1.019961,10.039194,-0.038725,0.028333,-0.002263,-23.94,16.2,-20.76,54.1496,-5.3703,1.6,55.56715,37.55926,213.9347,0,979
-0.387873,0.998413,10.022434,-0.008793,0.018559,0.000181,-23.94,16.2,-20.76,54.1496,-5.3703,1.6,55.56715,37.55926,213.9347,0,990
-0.323227,0.998413,9.938635,0.011366,0.022835,0.0069,-24.24,16.98,-19.8,52.7254,-5.2307,1.622,55.56715,37.55926,213.9347,0,1000
-0.268159,1.055875,9.926663,0.017474,0.038107,0.010566,-24.24,16.98,-19.8,52.7254,-5.2307,1.622,55.56715,37.55926,213.9347,0,1010
-0.249005,1.029538,9.792584,0.024194,0.035053,0.015452,-23.76,16.56,-19.02,52.7254,-5.2307,1.622,55.56715,37.55926,213.9347,0,1019
-0.249005,1.029538,9.792584,0.025416,0.021614,0.011787,-23.76,16.56,-19.02,52.7254,-5.2307,1.622,55.56715,37.55926,213.9347,0,1029
-0.272947,1.087001,9.804555,0.037022,0.007564,0.010566,-23.88,16.44,-18.9,54.3625,-5.2234,1.6818,55.56715,37.55926,213.9347,0,1039
-0.325621,1.120521,9.830893,0.050461,-0.000378,0.009955,-23.88,16.44,-18.9,54.3625,-5.2234,1.6818,55.56715,37.55926,213.9347,0,1049
-0.258582,1.173195,9.708784,0.060235,-0.010151,0.014842,-23.94,15.78,-19.26,54.3625,-5.2234,1.6818,55.56715,37.55926,213.9347,0,1059
-0.181965,1.225869,9.44302,0.055348,-0.011373,0.005068,-23.94,15.78,-19.26,54.3625,-5.2234,1.6818,55.56715,37.55926,213.9347,0,1069
-0.181965,1.225869,9.44302,0.026027,-0.000378,-0.003484,-23.88,16.08,-19.56,54.2307,-5.306,1.7165,55.56715,37.55926,213.9347,0,1079
-0.225062,1.225869,9.471751,-0.003906,0.008785,-0.005317,-23.88,16.08,-19.56,54.2307,-5.306,1.7165,55.56715,37.55926,213.9347,0,1089
-0.169993,1.166012,9.591465,-0.022843,0.015505,-0.002263,-24,16.56,-19.44,54.2307,-5.306,1.7165,55.56715,37.55926,213.9347,0,1099
-0.165205,1.161223,9.63935,-0.032617,0.020392,-0.010204,-24,16.56,-19.44,54.2307,-5.306,1.7165,55.56715,37.55926,213.9347,0,1109
-0.249005,1.194743,9.742304,-0.028951,0.014894,-0.016923,-23.94,15.54,-19.32,54.2905,-5.406,1.7061,55.56715,37.55926,213.9347,0,1119
-0.249005,1.194743,9.742304,-0.014901,0.006953,-0.015091,-23.94,15.54,-19.32,54.2905,-5.406,1.7061,55.56715,37.55926,213.9347,0,1129
-0.258582,1.175589,9.730332,-0.003906,-0.006486,-0.010204,-23.64,15.78,-19.8,54.2905,-5.406,1.7061,55.56715,37.55926,213.9347,0,1140
-0.253793,1.173195,9.641745,-0.007571,-0.005875,-0.004095,-23.64,15.78,-19.8,54.2905,-5.406,1.7061,55.56715,37.55926,213.9347,0,1149
-0.268159,1.230657,9.584282,-0.022232,0.013062,-0.004095,-23.1,16.92,-20.4,51.5705,-5.3486,1.7468,55.56715,37.55926,213.9347,0,1159
-0.237033,1.154041,9.727939,-0.037503,0.014283,0.0069,-23.1,16.92,-20.4,51.5705,-5.3486,1.7468,55.56715,37.55926,213.9347,0,1169
-0.237033,1.154041,9.727939,-0.034449,0.023446,0.01362,-23.1,16.68,-20.04,51.5705,-5.3486,1.7468,55.56715,37.55926,213.9347,0,1179
-0.193936,1.077424,9.785401,-0.032617,0.019781,0.006289,-23.1,16.68,-20.04,51.5705,-5.3486,1.7468,55.56715,37.55926,213.9347,0,1189
-0.256187,1.063058,9.830893,-0.032617,0.019781,0.006289,-23.34,16.2,-19.74,53.0089,-5.4838,1.7223,55.56715,37.55926,213.9347,0,1199
-0.299284,1.055875,9.830893,-0.015512,0.005731,-0.008371,-23.34,16.2,-19.74,53.0089,-5.4838,1.7223,55.56715,37.55926,213.9347,0,1209
-0.299284,1.055875,9.830893,0.004035,-0.017482,-0.012647,-23.76,16.32,-19.74,53.0089,-5.4838,1.7223,55.56715,37.55926,213.9347,0,1219
-0.220273,1.043904,9.660899,0.007701,-0.026034,-0.016313,-23.76,16.32,-19.74,53.0089,-5.4838,1.7223,55.56715,37.55926,213.9347,0,1229
-0.217879,1.096578,9.627379,-0.017345,-0.008319,-0.022421,-23.94,16.62,-19.5,52.7306,-5.5619,1.7278,55.56715,37.55926,213.9347,0,1239
-0.342381,1.067847,9.763853,-0.033838,0.007564,-0.013869,-23.94,16.62,-19.5,52.7306,-5.5619,1.7278,55.56715,37.55926,213.9347,0,1249
-0.34717,1.000807,9.809344,-0.022843,0.007564,0.006289,-23.76,17.04,-19.86,52.7306,-5.5619,1.7278,55.56715,37.55926,213.9347,0,1260
-0.34717,1.000807,9.809344,-0.020399,0.009396,0.010566,-23.76,17.04,-19.86,52.7306,-5.5619,1.7278,55.56715,37.55926,213.9347,0,1269
-0.256187,1.043904,9.809344,-0.018567,0.012451,0.000181,-23.52,16.68,-19.92,52.5155,-5.7195,1.6477,55.56715,37.55926,213.9347,0,1280
-0.304073,1.130098,9.830893,0.00037,0.002066,-0.009593,-23.52,16.68,-19.92,52.5155,-5.7195,1.6477,55.56715,37.55926,213.9347,0,1290
-0.256187,1.055875,9.75667,0.009533,-0.008319,-0.010815,-23.58,16.44,-19.32,52.5155,-5.7195,1.6477,55.56715,37.55926,213.9347,0,1299
-0.256187,1.055875,9.75667,0.005868,-0.007097,-0.010815,-23.58,16.44,-19.32,52.5155,-5.7195,1.6477,55.56715,37.55926,213.9347,0,1309
-0.265764,1.055875,9.759064,-0.006349,0.010007,-0.006539,-24.42,16.38,-19.5,54.0486,-5.8901,1.643,55.56715,37.55926,213.9347,0,1319
-0.308861,1.084607,9.80695,-0.005128,0.014283,0.000792,-24.36,16.32,-19.44,54.0486,-5.8901,1.643,55.56715,37.55926,213.9347,0,1329
-0.258582,1.070241,9.828498,0.004035,0.012451,0.003846,-24.36,16.32,-19.44,54.0486,-5.8901,1.643,55.56715,37.55926,213.9347,0,1339
-0.258582,1.130098,9.751882,0.004035,0.012451,0.003846,-24.78,16.62,-19.14,54.0486,-5.8901,1.643,55.56715,37.55926,213.9347,0,1349
-0.258582,1.130098,9.751882,0.009533,-0.002821,-0.001041,-24.78,16.62,-19.14,54.0486,-5.8901,1.643,55.56715,37.55926,213.9347,0,1359
-0.256187,1.146858,9.72315,0.015031,-0.010151,-0.006539,-23.88,16.62,-19.02,52.4903,-6.0485,1.647,55.56715,37.55926,213.9347,0,1369
-0.227456,1.137281,9.617802,0.01442,-0.00954,-0.004706,-23.88,16.62,-19.02,52.4903,-6.0485,1.647,55.56715,37.55926,213.9347,0,1380
-0.227456,1.137281,9.617802,0.00709,-0.007097,-0.002263,-23.34,16.26,-19.74,52.4903,-6.0485,1.647,55.56715,37.55926,213.9347,0,1389
-0.28013,1.106155,9.634562,0.002203,-0.00954,0.004457,-23.34,16.32,-19.92,52.4903,-6.0485,1.647,55.56715,37.55926,213.9347,0,1399
-0.31365,1.197137,9.735122,0.004035,-0.011373,0.003846,-23.34,16.32,-19.92,52.4903,-6.0485,1.647,55.56715,37.55926,213.9347,0,1409
-0.275342,1.137281,9.699207,0.008922,-0.00954,-0.004706,-23.46,16.26,-19.26,52.7398,-6.2134,1.5975,55.56715,37.55926,213.9347,0,1420
-0.275342,1.137281,9.699207,0.012587,-0.00893,-0.010815,-23.46,16.26,-19.26,52.7398,-6.2134,1.5975,55.56715,37.55926,213.9347,0,1429
-0.316044,1.151646,9.629773,0.002814,-0.007708,-0.013869,-23.7,16.5,-18.9,52.7398,-6.2134,1.5975,55.56715,37.55926,213.9347,0,1440
-0.241822,1.106155,9.627379,-0.016734,0.006342,-0.008371,-23.7,16.5,-18.9,52.7398,-6.2134,1.5975,55.56715,37.55926,213.9347,0,1449
-0.146051,1.067847,9.598648,-0.036893,0.024057,-0.010204,-23.94,16.32,-19.44,53.8252,-6.3485,1.5917,55.56715,37.55926,213.9347,0,1459
-0.24661,1.019961,9.737515,-0.045445,0.017338,-0.015091,-23.94,16.32,-19.44,53.8252,-6.3485,1.5917,55.56715,37.55926,213.9347,0,1469
-0.24661,1.019961,9.737515,-0.038114,0.000844,-0.010815,-23.76,16.14,-19.68,53.8252,-6.3485,1.5917,55.56715,37.55926,213.9347,0,1479
-0.320833,1.012778,9.972155,-0.007571,-0.013206,-0.003484,-23.76,16.14,-19.68,53.8252,-6.3485,1.5917,55.56715,37.55926,213.9347,0,1489
-0.215485,1.02475,9.929058,0.015031,-0.024812,0.006289,-23.46,15.72,-20.46,52.5257,-6.4009,1.6136,55.56715,37.55926,213.9347,0,1499
-0.201119,1.144463,9.684841,0.009533,-0.008319,-0.002263,-23.46,15.72,-20.46,52.5257,-6.4009,1.6136,55.56715,37.55926,213.9347,0,1509
-0.304073,1.118126,9.651321,-0.010625,0.007564,-0.011426,-23.64,15.72,-19.86,52.5257,-6.4009,1.6136,55.56715,37.55926,213.9347,0,1520
-0.304073,1.118126,9.651321,-0.019788,0.003288,-0.005928,-23.64,15.72,-19.86,52.5257,-6.4009,1.6136,55.56715,37.55926,213.9347,0,1529
-0.342381,0.972076,9.802161,-0.010015,0.005731,0.007511,-23.58,16.32,-19.08,53.8058,-6.359,1.5571,55.56715,37.55926,213.9347,0,1539
-0.22985,0.960104,9.811738,0.001592,0.001455,0.006289,-23.58,16.32,-19.08,53.8058,-6.359,1.5571,55.56715,37.55926,213.9347,0,1549
-0.227456,1.015173,9.802161,0.01442,-0.019925,-0.001041,-23.52,16.5,-19.92,53.8058,-6.359,1.5571,55.56715,37.559265,212.7445,0,1559
-0.222668,1.101366,9.768641,0.022361,-0.012595,-0.009593,-23.52,16.5,-19.92,53.8058,-6.359,1.5571,55.56715,37.559265,212.7445,0,1569
-0.222668,1.101366,9.768641,0.010755,0.020392,-0.018756,-23.52,16.56,-20.82,52.0786,-6.3224,1.5601,55.56715,37.559265,212.7445,0,1579
-0.282524,1.122915,9.507666,-0.010625,0.017948,-0.013869,-23.52,16.56,-20.82,52.0786,-6.3224,1.5601,55.56715,37.559265,212.7445,0,1589
-0.371113,1.125309,9.613013,-0.016123,0.026501,-0.00715,-23.22,16.98,-20.64,52.0786,-6.3224,1.5601,55.56715,37.559265,212.7445,0,1599
-0.332804,1.199532,9.742304,-0.00696,0.022224,-0.004095,-23.22,16.98,-20.64,52.0786,-6.3224,1.5601,55.56715,37.559265,212.7445,0,1609
-0.253793,1.149252,9.644139,0.010755,0.00512,-0.004095,-23.04,16.92,-19.68,51.0452,-6.2902,1.5324,55.56715,37.559265,212.7445,0,1619
-0.253793,1.149252,9.644139,-0.002073,-0.005264,-0.008982,-23.04,16.92,-19.68,51.0452,-6.2902,1.5324,55.56715,37.559265,212.7445,0,1630
-0.222668,1.115732,9.574705,-0.022232,-0.004654,-0.00776,-23.76,16.74,-19.02,51.0452,-6.2902,1.5324,55.56715,37.559265,212.7445,0,1639
-0.232245,1.096578,9.718362,-0.032006,0.01184,-0.00043,-23.76,16.74,-19.02,51.0452,-6.2902,1.5324,55.56715,37.559265,212.7445,0,1650
-0.220273,1.060664,9.742304,-0.039336,0.011229,0.002013,-24.36,16.56,-19.08,52.3537,-6.3324,1.6061,55.56715,37.559265,212.7445,0,1660
-0.220273,1.060664,9.742304,-0.041169,0.006953,0.001403,-24.36,16.56,-19.08,52.3537,-6.3324,1.6061,55.56715,37.559265,212.7445,0,1669
-0.277736,1.065452,9.821315,-0.031395,0.003899,-0.002263,-23.82,16.68,-19.8,52.3537,-6.3324,1.6061,55.56715,37.559265,212.7445,0,1679
-0.361535,1.118126,9.984126,0.004035,-0.00893,-0.003484,-23.82,16.68,-19.8,52.3537,-6.3324,1.6061,55.56715,37.559265,212.7445,0,1689
-0.301679,1.036721,9.842864,0.026637,-0.011373,0.006289,-23.16,16.74,-20.52,50.9181,-6.34,1.5842,55.56715,37.559265,212.7445,0,1699
-0.234639,1.034327,9.658504,0.018696,-0.012595,0.0069,-23.16,16.74,-20.52,50.9181,-6.34,1.5842,55.56715,37.559265,212.7445,0,1710
-0.234639,1.034327,9.658504,0.018696,-0.012595,0.0069,-23.34,16.74,-20.1,50.9181,-6.34,1.5842,55.56715,37.559265,212.7445,0,1719
-0.217879,1.036721,9.675264,0.000981,0.00512,0.008122,-23.34,16.74,-20.1,50.9181,-6.34,1.5842,55.56715,37.559265,212.7445,0,1730
-0.158022,0.988836,9.703996,-0.007571,0.016727,0.013009,-23.64,16.92,-19.62,52.2111,-6.3376,1.5818,55.56715,37.559265,212.7445,0,1740
-0.201119,1.05827,9.727939,-0.017956,0.024057,0.008122,-23.64,16.92,-19.62,52.2111,-6.3376,1.5818,55.56715,37.559265,212.7445,0,1749
-0.201119,1.05827,9.727939,-0.023454,0.010007,-0.003484,-24.3,17.04,-20.22,52.2111,-6.3376,1.5818,55.56715,37.559265,212.7445,0,1759
-0.289707,1.146858,9.840469,-0.006349,0.002677,-0.016313,-24.3,17.04,-20.22,52.2111,-6.3376,1.5818,55.56715,37.559265,212.7445,0,1769
-0.33041,1.101366,9.699207,0.003425,-0.004043,-0.018145,-24.54,16.26,-20.16,54.7974,-6.2922,1.5785,55.56715,37.559265,212.7445,0,1779
-0.366324,1.031933,9.581888,-0.000241,0.00512,-0.012036,-24.54,16.26,-20.16,54.7974,-6.2922,1.5785,55.56715,37.559265,212.7445,0,1789
-0.33041,1.051087,9.742304,-0.018567,0.010007,-0.002874,-24.48,15.6,-19.38,54.7974,-6.2922,1.5785,55.56715,37.559265,212.7445,0,1799
-0.33041,1.051087,9.742304,-0.016734,0.017338,0.002013,-24.48,15.6,-19.38,54.7974,-6.2922,1.5785,55.56715,37.559265,212.7445,0,1809
-0.270553,0.962499,9.850046,-0.002073,0.010007,0.005068,-23.76,15.66,-19.62,53.7091,-6.2715,1.559,55.56715,37.559265,212.7445,0,1820
-0.28013,0.979258,9.818921,0.008922,0.002066,0.003846,-23.76,15.66,-19.62,53.7091,-6.2715,1.559,55.56715,37.559265,212.7445,0,1829
-0.373507,1.087001,9.907509,0.013809,0.001455,-0.003484,-23.04,15.66,-20.34,53.7091,-6.2715,1.559,55.56715,37.559265,212.7445,0,1839
-0.373507,1.087001,9.907509,0.026637,-0.004654,-0.002263,-23.04,15.66,-20.34,53.7091,-6.2715,1.559,55.56715,37.559265,212.7445,0,1849
-0.351958,1.113338,9.802161,0.029692,-0.007708,-0.001041,-23.4,16.26,-19.92,52.6154,-6.2223,1.6268,55.56715,37.559265,212.7445,0,1859
-0.301679,1.158829,9.61062,0.015031,-0.002821,-0.002874,-23.4,16.26,-19.92,52.6154,-6.2223,1.6268,55.56715,37.559265,212.7445,0,1870
-0.335198,1.122915,9.620196,0.00037,0.003288,0.000792,-23.58,16.68,-19.32,52.6154,-6.2223,1.6268,55.56715,37.559265,212.7445,0,1879
-0.217879,1.094184,9.651321,-0.007571,0.006953,0.013009,-23.58,16.68,-19.32,52.6154,-6.2223,1.6268,55.56715,37.559265,212.7445,0,1889
-0.217879,1.094184,9.651321,-0.018567,0.012451,0.011176,-23.64,16.56,-19.68,52.3026,-6.2357,1.6854,55.56715,37.559265,212.7445,0,1899
-0.165205,1.065452,9.632168,-0.028951,0.013062,0.001403,-23.76,16.68,-20.04,52.3026,-6.2357,1.6854,55.56715,37.559265,212.7445,0,1909
-0.239427,1.065452,9.802161,-0.022232,0.008175,-0.005928,-23.76,16.68,-20.04,52.3026,-6.2357,1.6854,55.56715,37.559265,212.7445,0,1919
-0.318439,1.022355,9.912297,-0.001462,0.001455,-0.004706,-23.76,16.68,-20.04,52.3026,-6.2357,1.6854,55.56715,37.559265,212.7445,0,1929
-0.318439,1.022355,9.912297,0.00709,0.003288,0.004457,-23.88,16.14,-19.62,53.7856,-6.2716,1.7306,55.56715,37.559265,212.7445,0,1939
-0.332804,1.000807,9.744699,0.002814,-0.000988,0.001403,-23.88,16.14,-19.62,53.7856,-6.2716,1.7306,55.56715,37.559265,212.7445,0,1949
-0.36393,1.04151,9.763853,0.006479,0.000844,0.004457,-23.82,15.96,-20.04,53.7856,-6.2716,1.7306,55.56715,37.559265,212.7445,0,1959
-0.258582,1.036721,9.816526,0.011977,-0.005875,0.012398,-23.82,15.96,-20.04,53.7856,-6.2716,1.7306,55.56715,37.559265,212.7445,0,1969
-0.186753,1.122915,9.692024,0.010755,0.003899,0.001403,-24.06,16.56,-20.22,52.305,-6.2484,1.7035,55.56715,37.559265,212.7445,0,1979
-0.186753,1.122915,9.692024,0.010755,0.003899,0.001403,-24.06,16.56,-20.22,52.305,-6.2484,1.7035,55.56715,37.559265,212.7445,0,1989
-0.282524,1.122915,9.608225,-0.004517,0.010007,-0.012036,-23.94,16.32,-19.26,52.305,-6.2484,1.7035,55.56715,37.559265,212.7445,0,1999
-0.292102,1.108549,9.692024,-0.01368,0.003899,0.005068,-23.94,16.32,-19.26,52.305,-6.2484,1.7035,55.56715,37.559265,212.7445,0,2009
-0.205908,1.118126,9.656111,-0.022232,0.011229,0.001403,-23.4,15.78,-19.2,52.7754,-6.2327,1.6971,55.56715,37.559265,212.7445,0,2019
-0.205908,1.118126,9.656111,-0.036282,0.008175,-0.010815,-23.4,15.78,-19.2,52.7754,-6.2327,1.6971,55.56715,37.559265,212.7445,0,2029
-0.325621,1.082212,9.814133,-0.025897,0.00512,-0.012647,-23.34,15.66,-19.86,52.7754,-6.2327,1.6971,55.56715,37.559265,212.7445,0,2039
-0.34717,0.936161,9.991309,-0.013069,-0.000378,-0.00715,-23.34,15.66,-19.86,52.7754,-6.2327,1.6971,55.56715,37.559265,212.7445,0,2049
-0.256187,0.869122,9.955395,0.005257,-0.008319,-0.002263,-23.52,15.9,-19.8,53.7769,-6.242,1.6803,55.56715,37.559265,212.7445,0,2059
-0.26337,0.938556,9.854836,0.012587,-0.007708,-0.004706,-23.52,15.9,-19.8,53.7769,-6.242,1.6803,55.56715,37.559265,212.7445,0,2069
-0.26337,0.938556,9.854836,0.015031,-0.016871,-0.008982,-23.4,16.2,-19.8,53.7769,-6.242,1.6803,55.56715,37.559265,212.7445,0,2079
-0.292102,0.967287,9.878778,0.032746,-0.020536,0.000181,-23.4,16.2,-19.8,53.7769,-6.242,1.6803,55.56715,37.559265,212.7445,0,2089
-0.282524,1.063058,9.699207,0.03519,-0.021147,0.0069,-23.28,16.38,-19.5,52.7897,-6.1791,1.6757,55.56715,37.559265,212.7445,0,2099
-0.36393,1.142069,9.58907,0.024194,-0.004043,0.017285,-23.28,16.38,-19.5,52.7897,-6.1791,1.6757,55.56715,37.559265,212.7445,0,2109
-0.359141,1.218686,9.617802,0.016864,0.01184,0.022172,-23.7,16.44,-19.14,52.7897,-6.1791,1.6757,55.56715,37.559265,212.7445,0,2119
-0.359141,1.218686,9.617802,0.016253,0.014894,0.025837,-23.7,16.44,-19.14,52.7897,-6.1791,1.6757,55.56715,37.559265,212.7445,0,2129
-0.292102,1.216292,9.562734,0.010144,0.013672,0.020339,-23.76,15.9,-20.04,53.8155,-6.119,1.6392,55.56715,37.559265,212.7445,0,2139
-0.241822,1.180378,9.488511,-0.014901,0.01917,0.007511,-23.58,16.26,-19.86,53.8155,-6.119,1.6392,55.56715,37.559265,212.7445,0,2150
-0.289707,1.18756,9.634562,-0.014901,0.01917,0.007511,-23.58,16.26,-19.86,53.8155,-6.119,1.6392,55.56715,37.559265,212.7445,0,2159
-0.260976,1.089395,9.727939,-0.02773,0.023446,-0.00776,-23.16,16.2,-20.52,53.8155,-6.119,1.6392,55.56715,37.559265,212.7445,0,2169
-0.260976,1.089395,9.727939,-0.019788,-0.000988,-0.010815,-23.16,16.2,-20.52,53.8155,-6.119,1.6392,55.56715,37.559265,212.7445,0,2179
-0.220273,1.082212,9.675264,-0.014291,-0.00954,-0.012647,-23.34,15.84,-20.58,52.5139,-6.2513,1.7207,55.56715,37.559265,212.7445,0,2189
-0.311256,1.067847,9.783007,-0.022843,-0.008319,-0.019978,-23.34,15.84,-20.58,52.5139,-6.2513,1.7207,55.56715,37.559265,212.7445,0,2199
-0.277736,0.996018,9.850046,-0.022232,-0.001599,-0.004706,-23.64,16.5,-20.52,52.5139,-6.2513,1.7207,55.56715,37.559265,212.7445,0,2210
-0.239427,1.019961,9.816526,-0.019178,-0.004043,0.002624,-23.64,16.5,-20.52,52.5139,-6.2513,1.7207,55.56715,37.559265,212.7445,0,2220
-0.239427,1.019961,9.816526,-0.020399,-0.004654,0.003235,-23.52,16.74,-20.58,52.1439,-6.3261,1.703,55.56715,37.559265,212.7445,0,2229
-0.292102,0.984047,9.921875,-0.019788,-0.003432,0.002013,-23.52,16.74,-20.58,52.1439,-6.3261,1.703,55.56715,37.559265,212.7445,0,2240
-0.287313,0.94095,10.020041,-0.00696,-0.007708,0.006289,-23.88,16.38,-20.16,52.1439,-6.3261,1.703,55.56715,37.559265,212.7445,0,2250
-0.215485,0.854756,9.862018,0.004035,-0.011984,0.005679,-24.12,16.32,-19.8,53.7582,-6.2761,1.6737,55.56715,37.559265,212.7445,0,2263
-0.249005,0.842785,9.835681,-0.001462,0.001455,0.008122,-24.12,16.32,-19.8,53.7582,-6.2761,1.6737,55.56715,37.559265,212.7445,0,2269
-0.249005,0.842785,9.835681,-0.008793,0.008785,0.008733,-24.12,16.32,-19.8,53.7582,-6.2761,1.6737,55.56715,37.559265,212.7445,0,2279
-0.342381,0.926584,9.967366,0.011977,0.012451,0.012398,-23.34,16.62,-19.62,53.7582,-6.2761,1.6737,55.56715,37.559265,212.7445,0,2289
-0.258582,1.022355,9.833286,0.0358,-0.006486,0.009955,-23.34,16.62,-19.62,53.7582,-6.2761,1.6737,55.56715,37.559265,212.7445,0,2299
-0.258582,1.161223,9.689631,0.050461,-0.014427,0.000181,-22.62,16.2,-19.56,52.6737,-6.1044,1.6332,55.56715,37.559265,212.7445,0,2309
-0.258582,1.161223,9.689631,0.046796,-0.008319,-0.010815,-22.62,16.2,-19.56,52.6737,-6.1044,1.6332,55.56715,37.559265,212.7445,0,2319
-0.26337,1.261783,9.567522,0.033357,-0.005875,-0.008371,-22.98,16.44,-19.8,52.6737,-6.1044,1.6332,55.56715,37.559265,212.7445,0,2330
-0.220273,1.268966,9.414289,-0.000852,0.004509,-0.004095,-22.98,16.44,-19.8,52.6737,-6.1044,1.6332,55.56715,37.559265,212.7445,0,2340
-0.241822,1.283331,9.411894,-0.038114,0.023446,-0.012647,-23.88,16.98,-19.62,52.3654,-6.0282,1.6202,55.56715,37.559265,212.7445,0,2349
-0.299284,1.156435,9.660899,-0.050942,0.018559,-0.019367,-23.88,16.98,-19.62,52.3654,-6.0282,1.6202,55.56715,37.559265,212.7445,0,2360
-0.299284,1.156435,9.660899,-0.037503,0.006953,-0.015091,-24.3,16.38,-19.62,52.3654,-6.0282,1.6202,55.56715,37.559265,212.7445,0,2370
-0.292102,1.113338,9.747093,-0.017956,-0.014427,-0.012647,-24.3,16.38,-19.62,52.3654,-6.0282,1.6202,55.56715,37.559265,212.7445,0,2379
-0.328016,1.098972,9.689631,-0.015512,-0.03764,-0.015091,-24.06,16.56,-19.98,52.2957,-6.1822,1.6172,55.56715,37.559265,212.7445,0,2389
-0.282524,1.029538,9.718362,-0.016123,-0.035808,-0.008982,-24.06,16.56,-19.98,52.2957,-6.1822,1.6172,55.56715,37.559265,212.7445,0,2399
-0.282524,1.029538,9.718362,-0.025897,-0.017482,-0.002263,-24.24,17.28,-20.64,52.2957,-6.1822,1.6172,55.56715,37.559265,212.7445,0,2409
-0.29689,1.055875,9.668081,-0.025897,-0.017482,-0.002263,-24.24,17.28,-20.64,52.2957,-6.1822,1.6172,55.56715,37.559265,212.7445,0,2419
-0.368718,0.895459,9.711179,-0.053386,-0.004654,-0.001041,-24.12,16.8,-20.28,52.2381,-6.302,1.607,55.56715,37.559265,212.7445,0,2429
-0.36393,0.969681,10.043983,-0.052775,0.006342,0.005068,-24.12,16.8,-20.28,52.2381,-6.302,1.607,55.56715,37.559265,212.7445,0,2439
-0.36393,0.969681,10.043983,-0.028951,-0.002821,0.008733,-23.64,15.72,-19.92,52.2381,-6.302,1.607,55.56715,37.559265,212.7445,0,2449
-0.258582,0.931373,9.897932,0.011977,-0.015649,0.009955,-23.64,15.72,-19.92,52.2381,-6.302,1.607,55.56715,37.559265,212.7445,0,2459
-0.217879,0.897853,9.730332,0.008922,-0.020536,0.000792,-23.46,15.24,-20.1,54.1674,-6.2438,1.6373,55.56715,37.559265,212.7445,0,2469
-0.251399,0.998413,9.895537,0.000981,-0.013817,-0.004706,-23.46,15.24,-20.1,54.1674,-6.2438,1.6373,55.56715,37.559265,212.7445,0,2479
-0.251399,0.998413,9.895537,-0.000241,-0.006486,-0.001652,-23.16,15.66,-19.2,54.1674,-6.2438,1.6373,55.56715,37.559265,212.7445,0,2489
-0.196331,1.00799,9.840469,0.005257,-0.013817,0.003235,-23.16,15.66,-19.2,54.1674,-6.2438,1.6373,55.56715,37.559265,212.7445,0,2499
-0.260976,1.070241,9.751882,-0.000852,-0.005875,-0.00043,-23.4,16.14,-18.96,52.7655,-6.1973,1.6392,55.56715,37.559265,212.7445,0,2509
-0.395055,1.070241,9.835681,-0.003906,-0.014427,-0.004706,-23.4,16.14,-18.96,52.7655,-6.1973,1.6392,55.56715,37.559265,212.7445,0,2519
-0.325621,1.00799,9.761458,0.010144,-0.028477,0.009344,-23.52,16.2,-19.62,52.7655,-6.1973,1.6392,55.56715,37.559265,212.7445,0,2529
-0.325621,1.00799,9.761458,0.008922,-0.034586,0.014842,-23.52,16.2,-19.62,52.7655,-6.1973,1.6392,55.56715,37.559265,212.7445,0,2539
-0.241822,0.955316,9.692024,-0.002684,-0.021147,0.014231,-23.1,15.84,-20.1,52.6618,-6.1046,1.6077,55.56715,37.559265,212.7445,0,2549
-0.203513,0.993624,9.783007,-0.011236,-0.013817,0.012398,-23.1,15.84,-20.1,52.6618,-6.1046,1.6077,55.56715,37.559265,212.7445,0,2559
-0.129291,0.988836,9.814133,-0.011236,-0.013817,0.012398,-23.1,15.96,-19.5,52.6618,-6.1046,1.6077,55.56715,37.559265,212.7445,0,2570
-0.129291,0.988836,9.814133,-0.002684,-0.00221,0.016674,-23.1,15.96,-19.5,52.6618,-6.1046,1.6077,55.56715,37.559265,212.7445,0,2579
-0.174782,1.096578,9.794978,-0.003906,-0.005875,0.003235,-23.58,16.86,-19.08,52.4723,-6.0368,1.5933,55.56715,37.559265,212.7445,0,2589
-0.268159,1.149252,9.828498,-0.002073,0.003899,-0.00715,-23.58,16.86,-19.08,52.4723,-6.0368,1.5933,55.56715,37.559265,212.7445,0,2600
-0.265764,1.101366,9.658504,0.005868,0.000233,-0.004706,-23.58,17.04,-19.2,52.4723,-6.0368,1.5933,55.56715,37.559265,212.7445,0,2609
-0.260976,1.075029,9.481328,0.006479,-0.000378,0.004457,-23.58,17.04,-19.2,52.4723,-6.0368,1.5933,55.56715,37.559265,212.7445,0,2619
-0.287313,1.110944,9.593859,-0.012458,0.002677,-0.004706,-23.82,17.04,-19.02,52.4676,-5.985,1.5311,55.56715,37.559265,212.7445,0,2629
-0.287313,1.110944,9.593859,-0.02834,0.003288,-0.008982,-23.82,17.04,-19.02,52.4676,-5.985,1.5311,55.56715,37.559265,212.7445,0,2639
-0.270553,1.060664,9.72315,-0.024675,0.003288,-0.003484,-23.88,16.26,-19.8,52.4676,-5.985,1.5311,55.56715,37.559265,212.7445,0,2649
-0.253793,0.996018,9.701602,-0.015512,-0.001599,-0.003484,-23.88,16.26,-19.8,52.4676,-5.985,1.5311,55.56715,37.559265,212.7445,0,2659
-0.36393,0.92419,9.749487,-0.013069,0.002066,-0.002263,-24.36,16.5,-19.92,52.3112,-6.0422,1.5129,55.56715,37.559265,212.7445,0,2669
-0.361535,0.952921,9.828498,-0.013069,0.006953,0.007511,-24.36,16.5,-19.92,52.3112,-6.0422,1.5129,55.56715,37.559265,212.7445,0,2680
-0.361535,0.952921,9.828498,-0.00696,0.004509,0.009955,-24.18,16.98,-19.44,52.3112,-6.0422,1.5129,55.56715,37.559265,212.7445,0,2689
-0.265764,0.938556,9.768641,-0.002684,-0.000988,0.010566,-24.18,16.98,-19.44,52.3112,-6.0422,1.5129,55.56715,37.559265,212.7445,0,2699
-0.306467,0.984047,9.771035,-0.005738,-0.00221,0.001403,-24.3,16.44,-19.14,53.9346,-6.0451,1.5358,55.56715,37.559265,212.7445,0,2709
-0.282524,1.034327,9.77343,-0.005128,-0.002821,0.002624,-24.3,16.44,-19.14,53.9346,-6.0451,1.5358,55.56715,37.559265,212.7445,0,2719
-0.282524,1.034327,9.77343,0.000981,-0.004654,0.002013,-24.72,16.74,-19.14,53.9346,-6.0451,1.5358,55.56715,37.559265,212.7445,0,2729
-0.237033,1.027144,9.677659,-0.005128,-0.007708,0.006289,-24.72,16.74,-19.14,53.9346,-6.0451,1.5358,55.56715,37.559265,212.7445,0,2739
-0.265764,1.027144,9.699207,-0.017345,0.007564,0.003235,-24.3,16.56,-19.38,52.4994,-5.9685,1.5893,55.56715,37.559265,212.7445,0,2749
-0.222668,1.012778,9.761458,-0.023454,0.013672,-0.00043,-24.3,16.56,-19.38,52.4994,-5.9685,1.5893,55.56715,37.559265,212.7445,0,2760
-0.222668,1.012778,9.761458,-0.014291,0.006953,0.003846,-23.64,16.38,-19.68,52.4994,-5.9685,1.5893,55.56715,37.559265,212.7445,0,2770
-0.22985,0.962499,9.828498,-0.013069,0.000844,-0.002263,-23.64,16.44,-19.68,52.4994,-5.9685,1.5893,55.56715,37.559265,212.7445,0,2779
-0.256187,0.984047,9.888355,-0.01368,0.002066,-0.010204,-23.64,16.44,-19.68,52.4994,-5.9685,1.5893,55.56715,37.559265,212.7445,0,2789
-0.222668,0.979258,9.929058,-0.01368,0.002066,-0.010204,-24.18,16.62,-19.26,52.5259,-5.9103,1.5938,55.56715,37.559265,212.7445,0,2799
-0.150839,0.948133,9.857229,-0.005738,-0.008319,-0.002263,-24.18,16.62,-19.26,52.5259,-5.9103,1.5938,55.56715,37.559265,212.7445,0,2810
-0.150839,0.948133,9.857229,0.000981,-0.003432,0.005679,-23.88,16.86,-19.5,52.5259,-5.9103,1.5938,55.56715,37.559265,212.7445,0,2819
-0.181965,1.015173,9.77343,-0.00696,0.003288,0.003235,-23.88,16.86,-19.5,52.5259,-5.9103,1.5938,55.56715,37.559265,212.7445,0,2830
-0.239427,0.972076,9.871595,-0.002684,0.002066,0.015452,-23.82,16.62,-19.86,52.4,-5.8632,1.5325,55.56715,37.559265,212.7445,0,2839
-0.22985,1.015173,9.785401,0.020529,0.006342,0.028281,-23.82,16.62,-19.86,52.4,-5.8632,1.5325,55.56715,37.559265,212.7445,0,2849
-0.205908,1.067847,9.615408,0.030303,-0.001599,0.028891,-24.18,16.2,-19.38,52.4,-5.8632,1.5325,55.56715,37.559265,212.7445,0,2859
-0.249005,1.139675,9.529214,0.02175,0.008175,0.022172,-24.18,16.2,-19.38,52.4,-5.8632,1.5325,55.56715,37.559265,212.7445,0,2869
-0.249005,1.139675,9.529214,0.005868,0.013062,0.01362,-23.88,15.9,-19.5,53.9886,-5.846,1.4549,55.56715,37.559265,212.7445,0,2879
-0.232245,1.065452,9.486116,-0.006349,0.008175,-0.001652,-23.88,15.9,-19.5,53.9886,-5.846,1.4549,55.56715,37.559265,212.7445,0,2889
-0.225062,1.02475,9.505271,-0.023454,0.015505,-0.018756,-23.58,15.78,-20.34,53.9886,-5.846,1.4549,55.56715,37.559265,212.7445,0,2900
-0.289707,1.034327,9.72315,-0.030173,0.010618,-0.035249,-23.58,15.78,-20.34,53.9886,-5.846,1.4549,55.56715,37.559265,212.7445,0,2910
-0.289707,1.034327,9.72315,-0.011236,-0.004654,-0.037082,-23.76,16.02,-20.22,53.8107,-5.9277,1.4274,55.56715,37.559265,212.7445,0,2919
-0.294496,1.063058,9.797373,0.004646,-0.021147,-0.032195,-23.76,16.02,-20.22,53.8107,-5.9277,1.4274,55.56715,37.559265,212.7445,0,2929
-0.292102,1.060664,9.660899,0.00037,-0.025423,-0.027308,-23.88,16.08,-19.14,53.8107,-5.9277,1.4274,55.56715,37.559265,212.7445,0,2940
-0.342381,1.055875,9.766247,-0.014291,-0.015038,-0.015702,-23.88,16.08,-19.14,53.8107,-5.9277,1.4274,55.56715,37.559265,212.7445,0,2950
-0.342381,1.055875,9.766247,-0.014291,-0.015038,-0.015702,-24.06,15.84,-19.2,53.9281,-5.9689,1.441,55.56715,37.559265,212.7445,0,2959
-0.339987,1.067847,9.821315,-0.017956,-0.000988,-0.005928,-24.06,15.84,-19.2,53.9281,-5.9689,1.441,55.56715,37.559265,212.7445,0,2969
-0.359141,1.015173,9.814133,-0.012458,-0.014427,-0.002263,-24.06,16.08,-19.32,53.9281,-5.9689,1.441,55.56715,37.559265,212.7445,0,2979
-0.404632,0.943344,9.895537,-0.008793,-0.014427,-0.003484,-24.06,16.08,-19.32,53.9281,-5.9689,1.441,55.56715,37.559265,212.7445,0,2989
-0.378295,0.893065,9.890749,-0.002684,-0.015038,0.0069,-24.06,16.5,-18.84,52.4433,-6.0163,1.5053,55.56715,37.559265,212.7445,0,2999
-0.378295,0.893065,9.890749,0.011977,-0.02298,0.016063,-24.06,16.5,-18.84,52.4433,-6.0163,1.5053,55.56715,37.559265,212.7445,0,3009
-0.316044,0.859545,9.775824,0.02175,-0.033975,0.023394,-24,16.92,-19.26,52.4433,-6.0163,1.5053,55.56715,37.559265,212.7445,0,3020
-0.26337,0.905036,9.821315,0.018085,-0.03031,0.022783,-24,16.92,-19.26,52.4433,-6.0163,1.5053,55.56715,37.559265,212.7445,0,3030
-0.26337,0.905036,9.821315,0.018085,-0.03031,0.022783,-24,16.92,-19.26,52.4433,-6.0163,1.5053,55.56715,37.559265,212.7445,0,3039
-0.275342,0.926584,9.816526,0.016864,-0.022369,0.021561,-23.94,16.8,-19.38,52.5002,-5.9771,1.5996,55.56715,37.559265,212.7445,0,3049
-0.275342,0.926584,9.816526,0.024194,-0.011373,0.009344,-23.94,16.8,-19.38,52.5002,-5.9771,1.5996,55.56715,37.559265,212.7445,0,3059
-0.146051,1.053481,9.653716,0.010144,-0.004654,0.011176,-24.3,16.56,-19.14,52.5002,-5.9771,1.5996,55.56715,37.559265,212.7445,0,3070
-0.131685,1.101366,9.591465,0.010144,-0.004654,0.011176,-24.3,16.56,-19.14,52.5002,-5.9771,1.5996,55.56715,37.559265,212.7445,0,3079
-0.117319,1.017567,9.493299,-0.000241,-0.00221,0.008733,-23.76,16.92,-18.6,52.5413,-5.8917,1.6115,55.56715,37.559265,212.7445,0,3089
-0.117319,1.017567,9.493299,-0.02773,0.005731,0.008733,-23.76,16.92,-18.6,52.5413,-5.8917,1.6115,55.56715,37.559265,212.7445,0,3099
-0.141262,1.012778,9.557945,-0.050942,0.017338,0.000792,-23.1,16.98,-19.14,52.5413,-5.8917,1.6115,55.56715,37.559265,212.7445,0,3109
-0.186753,1.005595,9.830893,-0.044834,0.01184,0.000792,-23.1,16.98,-19.14,52.5413,-5.8917,1.6115,55.56715,37.559265,212.7445,0,3119
-0.160416,1.005595,9.830893,-0.02101,-0.000378,-0.001041,-23.46,16.5,-19.38,51.3373,-5.8827,1.5065,55.56715,37.559265,212.7445,0,3129
-0.244216,1.022355,9.742304,0.00037,-0.018703,-0.001041,-23.46,16.5,-19.38,51.3373,-5.8827,1.5065,55.56715,37.559265,212.7445,0,3139
-0.244216,1.022355,9.742304,0.003425,-0.026645,-0.005928,-24,16.56,-18.66,51.3373,-5.8827,1.5065,55.56715,37.559265,212.7445,0,3149
-0.33041,1.017567,9.802161,0.011366,-0.019314,-0.00043,-24,16.56,-18.66,51.3373,-5.8827,1.5065,55.56715,37.559265,212.7445,0,3159
-0.316044,0.996018,9.730332,0.015031,-0.019314,0.005068,-23.88,16.92,-18.24,52.5863,-5.8481,1.3851,55.56715,37.559265,212.7445,0,3169
-0.294496,1.010384,9.732727,0.006479,-0.010151,0.009344,-23.88,16.92,-18.24,52.5863,-5.8481,1.3851,55.56715,37.559265,212.7445,0,3179
-0.227456,1.087001,9.787795,0.002814,-0.001599,0.001403,-23.04,16.98,-18.72,52.5863,-5.8481,1.3851,55.56715,37.559265,212.7445,0,3189
-0.227456,1.087001,9.787795,0.01442,-0.006486,-0.004095,-23.04,16.98,-18.72,52.5863,-5.8481,1.3851,55.56715,37.559265,212.7445,0,3199
-0.160416,1.070241,9.718362,0.015031,-0.00954,-0.009593,-23.34,16.92,-18.72,51.2599,-5.8902,1.34,55.56715,37.559265,212.7445,0,3209
-0.193936,1.053481,9.584282,-0.001462,0.001455,-0.008982,-23.7,16.56,-18.84,51.2599,-5.8902,1.34,55.56715,37.559265,212.7445,0,3219
-0.299284,1.132492,9.624985,-0.020399,0.015505,-0.010204,-23.7,16.56,-18.84,51.2599,-5.8902,1.34,55.56715,37.559265,212.7445,0,3230
-0.260976,1.072635,9.694419,-0.016734,0.013062,-0.006539,-24,16.26,-18.84,51.2599,-5.8902,1.34,55.56715,37.559265,212.7445,0,3239
-0.234639,1.00799,9.601042,-0.012458,-0.001599,-0.011426,-24,16.26,-18.84,51.2599,-5.8902,1.34,55.56715,37.559265,212.7445,0,3250
-0.234639,1.00799,9.601042,-0.015512,-0.007708,-0.010204,-23.22,16.32,-18.96,52.7403,-5.9803,1.364,55.56715,37.559265,212.7445,0,3259
-0.272947,0.99123,9.617802,-0.02834,-0.007097,-0.011426,-23.22,16.32,-18.96,52.7403,-5.9803,1.364,55.56715,37.559265,212.7445,0,3269
-0.227456,0.969681,9.713573,-0.03506,-0.004654,-0.010815,-22.5,16.26,-19.98,52.7403,-5.9803,1.364,55.56715,37.559265,212.7445,0,3279
-0.249005,0.859545,9.775824,-0.036282,0.001455,-0.001652,-22.5,16.26,-19.98,52.7403,-5.9803,1.364,55.56715,37.559265,212.7445,0,3289
-0.26337,0.912219,9.897932,-0.037503,0.009396,0.002624,-23.04,16.26,-20.04,52.608,-6.0198,1.4055,55.56715,37.559265,212.7445,0,3299
-0.26337,0.912219,9.897932,-0.037503,0.009396,0.002624,-23.04,16.26,-20.04,52.608,-6.0198,1.4055,55.56715,37.559265,212.7445,0,3309
-0.301679,0.921796,10.07032,-0.017956,0.002677,0.003235,-23.64,16.38,-19.98,52.608,-6.0198,1.4055,55.56715,37.559265,212.7445,0,3320
-0.251399,0.948133,9.955395,0.020529,-0.01626,0.009344,-23.64,16.38,-19.98,52.608,-6.0198,1.4055,55.56715,37.559265,212.7445,0,3329
-0.234639,0.976864,9.771035,0.030303,-0.012595,0.004457,-24,16.5,-19.8,52.3402,-5.9009,1.4366,55.56715,37.559265,212.7445,0,3340
-0.234639,0.976864,9.771035,0.012587,0.004509,0.008733,-24,16.5,-19.8,52.3402,-5.9009,1.4366,55.56715,37.559265,212.7445,0,3349
-0.251399,0.964893,9.771035,0.005868,0.005731,0.015452,-23.94,16.2,-19.8,52.3402,-5.9009,1.4366,55.56715,37.559265,212.7445,0,3359
-0.158022,0.897853,9.75667,0.008922,-0.001599,0.017896,-23.94,16.2,-19.8,52.3402,-5.9009,1.4366,55.56715,37.559265,212.7445,0,3369
-0.249005,0.897853,9.802161,0.003425,0.003288,0.014842,-24.18,15.84,-19.38,53.9995,-5.8196,1.4529,55.56715,37.559265,212.7445,0,3379
-0.167599,1.075029,9.794978,0.00709,0.015505,-0.001652,-24.18,15.84,-19.38,53.9995,-5.8196,1.4529,55.56715,37.559265,212.7445,0,3389
-0.167599,1.075029,9.794978,0.018085,0.008785,-0.010204,-24.72,16.2,-18.9,53.9995,-5.8196,1.4529,55.56715,37.559265,212.7445,0,3400
-0.217879,0.928979,9.663293,0.027248,-0.004654,0.004457,-24.72,16.2,-18.9,53.9995,-5.8196,1.4529,55.56715,37.559265,212.7445,0,3409
-0.179571,1.019961,9.565128,0.013809,-0.001599,0.003846,-24.48,16.32,-19.26,54.0169,-5.7426,1.4128,55.56715,37.559265,212.7445,0,3419
-0.253793,1.156435,9.569917,0.00037,-0.00221,-0.004706,-24.48,16.32,-19.26,54.0169,-5.7426,1.4128,55.56715,37.559265,212.7445,0,3430
-0.287313,1.077424,9.656111,-0.001462,-0.013206,-0.001652,-24.36,16.74,-18.96,54.0169,-5.7426,1.4128,55.56715,37.559265,212.7445,0,3439
-0.287313,1.077424,9.656111,-0.001462,-0.013206,-0.001652,-24.36,16.74,-18.96,54.0169,-5.7426,1.4128,55.56715,37.559265,212.7445,0,3449
-0.217879,1.036721,9.675264,-0.008793,-0.00954,0.007511,-23.58,16.86,-19.02,52.4772,-5.7613,1.331,55.56715,37.559265,212.7445,0,3459
-0.282524,1.017567,9.778218,-0.014901,-0.00893,0.002624,-23.58,16.86,-19.02,52.4772,-5.7613,1.331,55.56715,37.559265,212.7445,0,3469
-0.251399,1.019961,9.850046,-0.005128,-0.000988,0.000792,-23.22,16.5,-20.1,52.4772,-5.7613,1.331,55.56715,37.559265,212.7445,0,3479
-0.237033,0.948133,9.725544,0.004035,0.003899,-0.001041,-23.22,16.5,-20.1,52.4772,-5.7613,1.331,55.56715,37.559265,212.7445,0,3489
-0.237033,0.948133,9.725544,0.00037,0.003288,-0.005928,-23.46,16.5,-20.34,51.142,-5.8451,1.3097,55.56715,37.559265,212.7445,0,3500
-0.270553,0.931373,9.713573,-0.014291,0.006953,-0.005928,-23.46,16.5,-20.34,51.142,-5.8451,1.3097,55.56715,37.559265,212.7445,0,3509
-0.292102,1.019961,9.862018,-0.013069,0.024668,0.003235,-23.52,16.98,-19.74,51.142,-5.8451,1.3097,55.56715,37.559265,212.7445,0,3519
-0.174782,1.027144,9.735122,0.002203,0.011229,0.0069,-23.52,16.98,-19.74,51.142,-5.8451,1.3097,55.56715,37.559265,212.7445,0,3529
-0.174782,1.027144,9.735122,0.005257,0.002066,0.005068,-23.34,16.98,-19.5,51.2708,-5.8641,1.3392,55.56715,37.559265,212.7445,0,3539
-0.208302,1.043904,9.720756,0.001592,0.007564,-0.001041,-23.34,16.98,-19.5,51.2708,-5.8641,1.3392,55.56715,37.559265,212.7445,0,3549
-0.220273,1.02475,9.783007,0.001592,0.007564,-0.001041,-24,16.74,-19.26,51.2708,-5.8641,1.3392,55.56715,37.559265,212.7445,0,3559
-0.129291,0.950527,9.644139,0.008922,-0.012595,0.002624,-24,16.74,-19.26,51.2708,-5.8641,1.3392,55.56715,37.559265,212.7445,0,3570
-0.129291,0.950527,9.644139,0.008922,-0.018093,-0.005317,-24.36,16.62,-18.9,52.4561,-5.8604,1.3805,55.56715,37.559265,212.7445,0,3579
-0.167599,0.986441,9.629773,-0.006349,-0.015038,-0.016923,-24.36,16.62,-18.9,52.4561,-5.8604,1.3805,55.567146,37.559265,211.0984,0,3589
-0.24661,0.955316,9.821315,-0.005128,-0.000378,-0.006539,-23.22,16.32,-19.62,52.4561,-5.8604,1.3805,55.567146,37.559265,211.0984,0,3599
-0.256187,0.993624,9.73991,0.005257,0.004509,0.005068,-23.22,16.32,-19.62,52.4561,-5.8604,1.3805,55.567146,37.559265,211.0984,0,3609
-0.277736,1.051087,9.672871,0.006479,0.000844,0.013009,-23.46,16.32,-19.8,52.6327,-5.8727,1.3082,55.567146,37.559265,211.0984,0,3619
-0.277736,1.051087,9.672871,-0.003906,0.008175,0.011176,-23.46,16.32,-19.8,52.6327,-5.8727,1.3082,55.567146,37.559265,211.0984,0,3630
-0.181965,1.053481,9.699207,-0.00696,0.011229,0.006289,-24.42,16.74,-19.38,52.6327,-5.8727,1.3082,55.567146,37.559265,211.0984,0,3639
-0.193936,1.043904,9.658504,-0.013069,-0.001599,-0.002874,-24.42,16.74,-19.38,52.6327,-5.8727,1.3082,55.567146,37.559265,211.0984,0,3649
-0.275342,0.99123,9.682447,-0.024064,0.01184,-0.010204,-23.76,16.86,-19.44,52.4237,-5.8537,1.2983,55.567146,37.559265,211.0984,0,3659
-0.306467,0.996018,9.854836,-0.02773,0.00512,-0.016313,-23.76,16.86,-19.44,52.4237,-5.8537,1.2983,55.567146,37.559265,211.0984,0,3669
-0.306467,0.996018,9.854836,-0.02773,0.00512,-0.016313,-23.4,16.26,-19.56,52.4237,-5.8537,1.2983,55.567146,37.559265,211.0984,0,3679
-0.249005,0.986441,9.850046,-0.003906,-0.007097,-0.013258,-23.4,16.26,-19.56,52.4237,-5.8537,1.2983,55.567146,37.559265,211.0984,0,3690
-0.24661,1.00799,9.763853,0.004646,-0.010151,-0.008371,-23.58,16.38,-19.08,53.9247,-5.855,1.314,55.567146,37.559265,211.0984,0,3699
-0.277736,0.969681,9.792584,-0.003295,-0.007097,-0.012647,-23.58,16.38,-19.08,53.9247,-5.855,1.314,55.567146,37.559265,211.0984,0,3709
-0.21309,0.905036,9.821315,-0.000852,-0.002821,-0.001041,-23.04,16.8,-18.12,53.9247,-5.855,1.314,55.567146,37.559265,211.0984,0,3720
-0.21309,0.905036,9.821315,-0.000852,-0.000378,-0.001652,-23.04,16.8,-18.12,53.9247,-5.855,1.314,55.567146,37.559265,211.0984,0,3730
-0.24661,0.85715,9.783007,0.003425,-0.000378,0.001403,-23.34,16.74,-18.96,51.2788,-5.8508,1.3442,55.567146,37.559265,211.0984,0,3739
-0.29689,0.833208,9.876384,0.018696,-0.006486,0.005679,-23.34,16.74,-18.96,51.2788,-5.8508,1.3442,55.567146,37.559265,211.0984,0,3749
-0.256187,0.938556,9.866806,0.037633,-0.002821,0.008733,-24.12,16.2,-19.56,51.2788,-5.8508,1.3442,55.567146,37.559265,211.0984,0,3760
-0.189148,0.981653,9.62259,0.044352,0.000233,0.011787,-24.12,16.2,-19.56,51.2788,-5.8508,1.3442,55.567146,37.559265,211.0984,0,3769
-0.189148,0.981653,9.62259,0.034579,-0.007708,0.005679,-23.76,16.26,-18.72,53.9846,-5.7788,1.3749,55.567146,37.559265,211.0984,0,3779
-0.244216,1.031933,9.593859,0.011977,0.005731,0.007511,-23.76,16.26,-18.72,53.9846,-5.7788,1.3749,55.567146,37.559265,211.0984,0,3789
-0.251399,1.106155,9.72315,0.002814,0.019781,0.009955,-24.12,16.02,-18.24,53.9846,-5.7788,1.3749,55.567146,37.559265,211.0984,0,3799
-0.189148,1.144463,9.644139,0.00037,0.009396,0.004457,-24.36,15.6,-18.6,53.9846,-5.7788,1.3749,55.567146,37.559265,211.0984,0,3809
-0.220273,1.149252,9.615408,-0.005738,0.001455,-0.002874,-24.36,15.6,-18.6,53.9846,-5.7788,1.3749,55.567146,37.559265,211.0984,0,3819
-0.26337,1.098972,9.732727,-0.008182,-0.005264,-0.001652,-23.94,16.5,-19.38,52.5144,-5.7463,1.4029,55.567146,37.559265,211.0984,0,3829
-0.191542,1.022355,9.694419,0.00037,-0.007708,0.003235,-24.18,16.8,-19.26,52.5144,-5.7463,1.4029,55.567146,37.559265,211.0984,0,3841
-0.191542,1.022355,9.694419,-0.005738,0.000233,0.003235,-24.18,16.8,-19.26,52.5144,-5.7463,1.4029,55.567146,37.559265,211.0984,0,3849
-0.138868,1.015173,9.641745,-0.005738,0.000233,0.003235,-24.18,16.8,-19.26,52.5144,-5.7463,1.4029,55.567146,37.559265,211.0984,0,3859
-0.184359,0.99123,9.778218,-0.023454,-0.000378,-0.002263,-24.36,15.78,-18.96,53.9589,-5.8595,1.3991,55.567146,37.559265,211.0984,0,3869
-0.184359,0.99123,9.778218,-0.032006,-0.00221,-0.00043,-24.36,15.78,-18.96,53.9589,-5.8595,1.3991,55.567146,37.559265,211.0984,0,3879
-0.131685,0.876305,9.873989,-0.021621,-0.001599,0.0069,-23.88,16.14,-19.2,53.9589,-5.8595,1.3991,55.567146,37.559265,211.0984,0,3889
-0.174782,0.854756,9.794978,-0.017956,-0.001599,0.003235,-23.88,16.38,-19.56,53.7817,-5.9106,1.3442,55.567146,37.559265,211.0984,0,3900
-0.31365,0.897853,9.876384,-0.016734,0.010007,0.000792,-23.88,16.38,-19.56,53.7817,-5.9106,1.3442,55.567146,37.559265,211.0984,0,3910
-0.299284,0.917007,9.854836,-0.009404,0.013672,0.000792,-23.88,16.38,-19.56,53.7817,-5.9106,1.3442,55.567146,37.559265,211.0984,0,3919
-0.299284,0.917007,9.854836,0.007701,-0.004654,0.004457,-24.12,16.92,-19.56,53.7817,-5.9106,1.3442,55.567146,37.559265,211.0984,0,3930
-0.191542,0.950527,9.727939,0.007701,-0.01626,-0.001041,-24.12,16.92,-19.56,53.7817,-5.9106,1.3442,55.567146,37.559265,211.0984,0,3939
-0.203513,1.072635,9.794978,-0.002073,-0.006486,-0.012647,-23.7,16.92,-19.44,52.4449,-5.8029,1.2971,55.567146,37.559265,211.0984,0,3949
-0.21309,1.022355,9.811738,-0.001462,0.004509,-0.005928,-23.7,16.92,-19.44,52.4449,-5.8029,1.2971,55.567146,37.559265,211.0984,0,3960
-0.251399,0.976864,9.720756,-0.003295,0.001455,-0.00043,-23.4,16.74,-19.92,52.4449,-5.8029,1.2971,55.567146,37.559265,211.0984,0,3969
-0.251399,0.976864,9.720756,-0.022843,0.011229,0.0069,-23.4,16.74,-19.92,52.4449,-5.8029,1.2971,55.567146,37.559265,211.0984,0,3980
-0.292102,1.00799,9.73991,-0.019178,0.010007,0.002013,-23.88,17.1,-19.56,52.3494,-5.7362,1.2912,55.567146,37.559265,211.0984,0,3989
-0.318439,1.051087,9.924269,0.005257,0.000233,0.005679,-23.88,17.1,-19.56,52.3494,-5.7362,1.2912,55.567146,37.559265,211.0984,0,3999
-0.277736,0.964893,9.838076,0.027859,-0.010151,0.008122,-24,16.44,-19.44,52.3494,-5.7362,1.2912,55.567146,37.559265,211.0984,0,4009
-0.184359,0.943344,9.646533,0.01442,-0.003432,0.007511,-24,16.44,-19.44,52.3494,-5.7362,1.2912,55.567146,37.559265,211.0984,0,4019
-0.184359,0.943344,9.646533,-0.006349,0.010618,0.005068,-23.22,15.54,-19.8,52.7169,-5.7211,1.3332,55.567146,37.559265,211.0984,0,4029
-0.227456,1.019961,9.701602,-0.010015,0.012451,0.0069,-23.22,15.54,-19.8,52.7169,-5.7211,1.3332,55.567146,37.559265,211.0984,0,4039
-0.232245,0.914613,9.715967,-0.011236,0.012451,0.0069,-23.4,15.9,-19.38,52.7169,-5.7211,1.3332,55.567146,37.559265,211.0984,0,4050
-0.289707,0.976864,9.785401,-0.011236,0.013062,-0.00043,-23.4,15.9,-19.38,52.7169,-5.7211,1.3332,55.567146,37.559265,211.0984,0,4060
-0.253793,1.017567,9.869201,-0.003295,0.001455,-0.008371,-23.82,16.62,-19.2,52.5045,-5.7449,1.3783,55.567146,37.559265,211.0984,0,4070
-0.253793,1.017567,9.869201,0.018696,-0.013817,-0.00776,-23.82,16.62,-19.2,52.5045,-5.7449,1.3783,55.567146,37.559265,211.0984,0,4079
-0.160416,1.029538,9.780613,0.007701,-0.010151,-0.005317,-24,17.16,-18.78,52.5045,-5.7449,1.3783,55.567146,37.559265,211.0984,0,4090
-0.153234,0.933767,9.613013,-0.016123,0.006342,0.003235,-24,17.16,-18.78,52.5045,-5.7449,1.3783,55.567146,37.559265,211.0984,0,4099
-0.237033,0.933767,9.809344,-0.030173,0.021003,0.01362,-23.94,17.58,-19.02,51.088,-5.7244,1.4115,55.567146,37.559265,211.0984,0,4109
-0.220273,0.95771,9.907509,-0.016123,0.016116,0.017896,-23.94,17.58,-19.02,51.088,-5.7244,1.4115,55.567146,37.559265,211.0984,0,4119
-0.220273,0.95771,9.907509,-0.016123,0.016116,0.017896,-23.76,16.92,-19.08,51.088,-5.7244,1.4115,55.567146,37.559265,211.0984,0,4129
-0.191542,0.90743,9.838076,0.005868,-0.005264,0.006289,-23.76,16.92,-19.08,51.088,-5.7244,1.4115,55.567146,37.559265,211.0984,0,4139
-0.258582,0.979258,9.847652,0.005868,-0.007708,-0.011426,-23.4,16.38,-18.6,52.8675,-5.7141,1.3794,55.567146,37.559265,211.0984,0,4149
-0.26337,1.000807,9.804555,0.010755,0.001455,-0.010815,-23.4,16.38,-18.6,52.8675,-5.7141,1.3794,55.567146,37.559265,211.0984,0,4159
-0.239427,0.998413,9.644139,0.011977,-0.001599,-0.004706,-22.86,16.26,-18.36,52.8675,-5.7141,1.3794,55.567146,37.559265,211.0984,0,4169
-0.239427,0.998413,9.644139,0.000981,-0.007097,-0.003484,-22.86,16.26,-18.36,52.8675,-5.7141,1.3794,55.567146,37.559265,211.0984,0,4179
-0.270553,1.034327,9.715967,-0.007571,0.003288,-0.005317,-23.52,16.44,-19.32,54.014,-5.684,1.3439,55.567146,37.559265,211.0984,0,4189
-0.249005,1.015173,9.840469,-0.001462,0.000233,0.000792,-23.52,16.44,-19.32,54.014,-5.684,1.3439,55.567146,37.559265,211.0984,0,4199
-0.249005,1.015173,9.840469,0.011366,-0.010151,-0.00043,-24.18,16.86,-19.68,54.014,-5.684,1.3439,55.567146,37.559265,211.0984,0,4209
-0.241822,0.921796,9.699207,0.00037,-0.01626,-0.002874,-24.18,16.86,-19.68,54.014,-5.684,1.3439,55.567146,37.559265,211.0984,0,4219
-0.287313,0.943344,9.80695,-0.012458,0.01184,-0.00043,-24.12,16.98,-19.02,52.51,-5.7058,1.3519,55.567146,37.559265,211.0984,0,4229
-0.225062,0.94095,9.814133,-0.011236,0.011229,0.005068,-24.12,16.98,-19.02,52.51,-5.7058,1.3519,55.567146,37.559265,211.0984,0,4240
-0.22985,0.933767,9.744699,-0.006349,0.006342,0.008733,-24.06,16.5,-18.42,52.51,-5.7058,1.3519,55.567146,37.559265,211.0984,0,4249
-0.22985,0.933767,9.744699,-0.006349,0.006342,0.008733,-23.82,16.26,-17.94,52.51,-5.7058,1.3519,55.567146,37.559265,211.0984,0,4259
-0.260976,1.029538,9.744699,-0.005128,0.010007,0.006289,-23.82,16.26,-17.94,52.51,-5.7058,1.3519,55.567146,37.559265,211.0984,0,4269
-0.253793,1.053481,9.713573,-0.000241,0.010618,0.009344,-23.16,16.56,-18.24,51.4834,-5.6952,1.3843,55.567146,37.559265,211.0984,0,4279
-0.186753,1.031933,9.648928,0.004035,-0.00221,0.014842,-23.16,16.56,-18.24,51.4834,-5.6952,1.3843,55.567146,37.559265,211.0984,0,4289
-0.186753,1.031933,9.648928,-0.004517,-0.005264,0.008122,-23.22,16.38,-18.9,51.4834,-5.6952,1.3843,55.567146,37.559265,211.0984,0,4300
-0.198725,1.060664,9.809344,-0.016123,0.002066,-0.001652,-23.22,16.38,-18.9,51.4834,-5.6952,1.3843,55.567146,37.559265,211.0984,0,4309
-0.203513,0.979258,9.893144,-0.008793,0.006953,-0.00776,-23.94,16.2,-19.44,54.0355,-5.7038,1.4158,55.567146,37.559265,211.0984,0,4319
-0.165205,0.909824,9.850046,0.000981,-0.00221,-0.00776,-23.94,16.2,-19.44,54.0355,-5.7038,1.4158,55.567146,37.559265,211.0984,0,4329
-0.21309,0.936161,9.850046,-0.006349,0.00512,-0.010815,-24.06,15.96,-19.68,54.0355,-5.7038,1.4158,55.567146,37.559265,211.0984,0,4339
-0.21309,0.936161,9.850046,-0.006349,0.006953,-0.005928,-24.06,15.96,-19.68,54.0355,-5.7038,1.4158,55.567146,37.559265,211.0984,0,4349
-0.208302,0.962499,9.945818,0.009533,0.003288,0.0069,-23.76,16.2,-19.38,54.0073,-5.739,1.3864,55.567146,37.559265,211.0984,0,4359
-0.126897,0.988836,9.775824,0.018696,-0.007708,0.003235,-23.76,16.2,-19.38,54.0073,-5.739,1.3864,55.567146,37.559265,211.0984,0,4369
-0.193936,1.010384,9.694419,0.008311,-0.00221,-0.002874,-23.34,16.32,-19.02,54.0073,-5.739,1.3864,55.567146,37.559265,211.0984,0,4379
-0.272947,1.010384,9.77343,0.004035,0.002066,0.007511,-23.34,16.32,-19.02,54.0073,-5.739,1.3864,55.567146,37.559265,211.0984,0,4390
-0.272947,1.010384,9.77343,0.005257,-0.000378,0.014842,-23.22,16.74,-18.96,51.3339,-5.7117,1.3328,55.567146,37.559265,211.0984,0,4399
-0.26337,1.043904,9.70639,0.003425,-0.001599,0.008122,-23.22,16.74,-18.96,51.3339,-5.7117,1.3328,55.567146,37.559265,211.0984,0,4409
-0.258582,1.046298,9.629773,-0.009404,-0.004043,-0.006539,-24.18,17.22,-19.02,51.3339,-5.7117,1.3328,55.567146,37.559265,211.0984,0,4419
-0.325621,1.051087,9.692024,-0.009404,-0.004043,-0.006539,-24.18,17.22,-19.02,51.3339,-5.7117,1.3328,55.567146,37.559265,211.0984,0,4429
-0.282524,0.902642,9.634562,-0.019178,0.004509,-0.015091,-24.84,17.22,-18.9,53.5786,-5.7321,1.2866,55.567146,37.559265,211.0984,0,4439
-0.282524,0.902642,9.634562,-0.02834,-0.000378,-0.017534,-24.84,17.22,-18.9,53.5786,-5.7321,1.2866,55.567146,37.559265,211.0984,0,4449
-0.244216,0.878699,9.586677,-0.055219,0.007564,-0.019978,-24.18,17.16,-18.3,53.5786,-5.7321,1.2866,55.567146,37.559265,211.0984,0,4459
-0.320833,0.888276,9.885961,-0.073545,0.012451,-0.029752,-24.18,17.16,-18.3,53.5786,-5.7321,1.2866,55.567146,37.559265,211.0984,0,4470
-0.325621,0.900247,10.060742,-0.058273,0.003288,-0.025476,-23.46,16.68,-18.42,51.4354,-5.7557,1.3294,55.567146,37.559265,211.0984,0,4480
-0.272947,0.866728,9.950606,-0.033838,-0.013817,-0.018145,-23.46,16.68,-18.42,51.4354,-5.7557,1.3294,55.567146,37.559265,211.0984,0,4489
-0.272947,0.866728,9.950606,-0.028951,-0.011984,-0.012647,-23.7,15.9,-19.02,51.4354,-5.7557,1.3294,55.567146,37.559265,211.0984,0,4500
-0.33041,0.866728,9.972155,-0.023454,-0.011373,-0.003484,-23.7,15.9,-19.02,51.4354,-5.7557,1.3294,55.567146,37.559265,211.0984,0,4509
-0.418998,0.770957,10.118205,-0.005738,-0.011373,0.017896,-24,16.02,-18.9,54.0843,-5.5956,1.4165,55.567146,37.559265,211.0984,0,4519
-0.332804,0.696734,9.996098,0.011977,-0.01626,0.02767,-24,16.02,-18.9,54.0843,-5.5956,1.4165,55.567146,37.559265,211.0984,0,4529
-0.332804,0.696734,9.996098,0.02175,-0.015038,0.029502,-23.76,16.5,-19.44,54.0843,-5.5956,1.4165,55.567146,37.559265,211.0984,0,4539
-0.31365,0.72786,10.034406,0.043131,-0.010762,0.033168,-23.76,16.5,-19.44,54.0843,-5.5956,1.4165,55.567146,37.559265,211.0984,0,4549
-0.239427,0.770957,10.051166,0.057792,-0.001599,0.034389,-23.82,16.74,-19.68,52.5736,-5.4374,1.4906,55.567146,37.559265,211.0984,0,4559
-0.131685,0.895459,9.787795,0.067565,0.003899,0.037444,-23.82,16.74,-19.68,52.5736,-5.4374,1.4906,55.567146,37.55926,210.9259,0,4569
-0.131685,0.895459,9.787795,0.066344,0.006342,0.030724,-23.76,16.62,-18.84,52.5736,-5.4374,1.4906,55.567146,37.55926,210.9259,0,4579
-0.181965,1.120521,9.668081,0.062068,0.011229,0.025226,-23.76,16.62,-18.84,52.5736,-5.4374,1.4906,55.567146,37.55926,210.9259,0,4589
-0.174782,1.247417,9.620196,0.055348,0.009396,0.022172,-23.76,16.2,-19.26,54.2523,-5.3431,1.5462,55.567146,37.55926,210.9259,0,4599
-0.090982,1.280937,9.457385,0.055348,0.009396,0.022172,-23.76,16.2,-19.26,54.2523,-5.3431,1.5462,55.567146,37.55926,210.9259,0,4609
-0.071828,1.266571,9.433443,0.029081,0.021003,0.014842,-23.94,16.56,-19.62,54.2523,-5.3431,1.5462,55.567146,37.55926,210.9259,0,4619
-0.071828,1.266571,9.433443,-0.002073,0.01917,0.003235,-23.94,16.56,-19.62,54.2523,-5.3431,1.5462,55.567146,37.55926,210.9259,0,4629
-0.071828,1.192349,9.60583,-0.016123,0.007564,-0.002874,-24.54,16.92,-19.56,53.6843,-5.4845,1.559,55.567146,37.55926,210.9259,0,4640
-0.021548,1.077424,9.620196,-0.014291,-0.002821,-0.005317,-24.54,16.92,-19.56,53.6843,-5.4845,1.559,55.567146,37.55926,210.9259,0,4649
-0.05028,1.051087,9.586677,-0.024675,-0.010762,-0.010815,-24.9,17.1,-19.8,53.6843,-5.4845,1.559,55.567146,37.55926,210.9259,0,4659
-0.222668,1.029538,9.73991,-0.037503,-0.00954,-0.016923,-24.42,16.56,-19.5,52.7017,-5.486,1.5819,55.567146,37.55926,210.9259,0,4670
-0.198725,0.917007,9.787795,-0.046666,0.008175,-0.005317,-24.42,16.56,-19.5,52.7017,-5.486,1.5819,55.567146,37.55926,210.9259,0,4679
-0.198725,0.917007,9.787795,-0.04239,0.002066,-0.002874,-24,16.14,-20.1,52.7017,-5.486,1.5819,55.567146,37.55926,210.9259,0,4689
-0.217879,0.921796,9.780613,-0.041169,-0.011373,-0.005928,-24,16.14,-20.1,52.7017,-5.486,1.5819,55.567146,37.55926,210.9259,0,4699
-0.256187,0.885882,9.866806,-0.036893,-0.013206,-0.012647,-23.4,16.5,-19.74,52.7017,-5.486,1.5819,55.567146,37.55926,210.9259,0,4709
-0.256187,0.842785,9.991309,-0.030784,-0.011984,-0.013869,-23.4,16.5,-19.74,52.7017,-5.486,1.5819,55.567146,37.55926,210.9259,0,4719
-0.227456,0.792505,9.912297,-0.02773,-0.00893,-0.015091,-22.98,17.4,-19.44,51.5815,-5.3824,1.5694,55.567146,37.55926,210.9259,0,4729
-0.26337,0.833208,9.976943,-0.031395,-0.00893,-0.016923,-22.98,17.4,-19.44,51.5815,-5.3824,1.5694,55.567146,37.55926,210.9259,0,4739
-0.26337,0.833208,9.976943,-0.017956,-0.010151,-0.016313,-23.16,16.98,-19.32,51.5815,-5.3824,1.5694,55.567146,37.55926,210.9259,0,4750
-0.289707,0.811659,10.084685,0.00037,-0.011984,-0.010815,-23.16,16.98,-19.32,51.5815,-5.3824,1.5694,55.567146,37.55926,210.9259,0,4759
-0.344776,0.830813,9.957788,0.023583,-0.014427,0.000181,-23.4,17.22,-19.68,51.4992,-5.3066,1.5482,55.567146,37.55926,210.9259,0,4769
-0.344776,0.830813,9.957788,0.027248,-0.002821,0.011176,-23.4,17.22,-19.68,51.4992,-5.3066,1.5482,55.567146,37.55926,210.9259,0,4779
-0.399844,0.914613,9.90272,0.030913,0.00512,0.016063,-23.22,16.92,-19.56,51.4992,-5.3066,1.5482,55.567146,37.55926,210.9259,0,4790
-0.323227,0.893065,9.818921,0.034579,0.002677,0.019118,-23.22,16.92,-19.56,51.4992,-5.3066,1.5482,55.567146,37.55926,210.9259,0,4799
-0.320833,0.866728,9.771035,0.031524,0.008785,0.015452,-23.28,16.44,-19.26,53.1149,-5.3087,1.522,55.567146,37.55926,210.9259,0,4810
-0.366324,0.897853,9.775824,0.026637,0.007564,0.008733,-23.28,16.44,-19.26,53.1149,-5.3087,1.522,55.567146,37.55926,210.9259,0,4819
-0.366324,0.897853,9.775824,0.026637,0.007564,0.008733,-23.28,16.38,-19.5,53.1149,-5.3087,1.522,55.567146,37.55926,210.9259,0,4829
-0.368718,0.950527,9.792584,0.037633,-0.001599,0.002624,-23.28,16.38,-19.5,53.1149,-5.3087,1.522,55.567146,37.55926,210.9259,0,4840
-0.323227,0.967287,9.613013,0.047407,-0.00893,0.007511,-23.4,16.56,-19.44,51.617,-5.3168,1.5851,55.567146,37.55926,210.9259,0,4850
-0.320833,1.051087,9.538791,0.041909,-0.017482,0.004457,-23.4,16.56,-19.44,51.617,-5.3168,1.5851,55.567146,37.55926,210.9259,0,4859
-0.33041,1.079818,9.63935,0.029692,-0.018703,0.0069,-23.76,16.68,-18.9,51.617,-5.3168,1.5851,55.567146,37.55926,210.9259,0,4869
-0.33041,1.079818,9.63935,0.023583,-0.022369,0.012398,-23.76,16.68,-18.9,51.617,-5.3168,1.5851,55.567146,37.55926,210.9259,0,4879
-0.124502,1.070241,9.636956,0.005868,-0.013817,0.007511,-23.52,16.44,-18.72,54.27,-5.3758,1.6241,55.567146,37.55926,210.9259,0,4890
-0.143656,1.051087,9.718362,-0.014901,-0.003432,0.008122,-23.52,16.44,-18.72,54.27,-5.3758,1.6241,55.567146,37.55926,210.9259,0,4900
-0.227456,1.027144,9.845258,-0.024064,0.014894,0.023394,-23.7,16.2,-19.44,54.27,-5.3758,1.6241,55.567146,37.55926,210.9259,0,4909
-0.227456,1.027144,9.845258,-0.019788,0.004509,0.017896,-23.7,16.2,-19.44,54.27,-5.3758,1.6241,55.567146,37.55926,210.9259,0,4919
-0.138868,0.979258,9.814133,-0.01368,0.001455,0.011176,-24.06,16.08,-19.86,54.0872,-5.4906,1.5874,55.567146,37.55926,210.9259,0,4929
-0.124502,1.010384,9.80695,-0.008793,0.008175,0.003235,-24.06,16.08,-19.86,54.0872,-5.4906,1.5874,55.567146,37.55926,210.9259,0,4940
-0.241822,1.04151,9.79019,-0.000852,0.004509,-0.00776,-24.48,16.74,-19.5,54.0872,-5.4906,1.5874,55.567146,37.55926,210.9259,0,4949
-0.241822,1.04151,9.79019,0.00709,-0.002821,-0.004095,-24.48,16.74,-19.5,54.0872,-5.4906,1.5874,55.567146,37.55926,210.9259,0,4959
-0.232245,0.979258,9.711179,0.007701,-0.005264,-0.003484,-23.4,16.86,-18.84,51.4673,-5.5898,1.5146,55.567146,37.55926,210.9259,0,4969
-0.189148,0.95771,9.682447,0.000981,-0.004043,0.002624,-23.4,16.86,-18.84,51.4673,-5.5898,1.5146,55.567146,37.55926,210.9259,0,4979
-0.189148,0.964893,9.785401,-0.000852,0.002677,0.007511,-23.1,16.38,-18.48,51.4673,-5.5898,1.5146,55.567146,37.55926,210.9259,0,4989
-0.155628,0.876305,9.766247,-0.000852,0.002677,0.007511,-23.1,16.38,-18.48,51.4673,-5.5898,1.5146,55.567146,37.55926,210.9259,0,4999
-0.155628,0.876305,9.766247,0.006479,-0.00221,0.012398,-23.64,16.32,-18.9,54.0446,-5.6929,1.4256,55.567146,37.55926,210.9259,0,5009
-0.158022,0.902642,9.77343,0.006479,0.006342,0.012398,-23.64,16.32,-18.9,54.0446,-5.6929,1.4256,55.567146,37.55926,210.9259,0,5020
-0.22985,0.878699,9.830893,0.003425,-0.007708,0.013009,-22.98,16.5,-19.44,54.0446,-5.6929,1.4256,55.567146,37.55926,210.9259,0,5030
-0.069434,0.964893,9.857229,0.015031,-0.011984,0.006289,-22.98,16.5,-19.44,54.0446,-5.6929,1.4256,55.567146,37.55926,210.9259,0,5040
-0.146051,0.945739,9.766247,0.016253,-0.024812,0.000181,-23.16,16.38,-19.32,52.8551,-5.6964,1.3331,55.567146,37.55926,210.9259,0,5050
-0.258582,0.976864,9.785401,0.010755,-0.021147,-0.001041,-23.16,16.38,-19.32,52.8551,-5.6964,1.3331,55.567146,37.55926,210.9259,0,5059
-0.258582,0.976864,9.785401,0.011366,-0.016871,0.001403,-23.94,16.08,-19.02,52.8551,-5.6964,1.3331,55.567146,37.55926,210.9259,0,5070
-0.256187,0.988836,9.742304,0.007701,-0.010151,0.009344,-23.94,16.08,-19.02,52.8551,-5.6964,1.3331,55.567146,37.55926,210.9259,0,5079
-0.186753,1.000807,9.644139,0.004035,-0.002821,0.014842,-24.36,16.56,-18.84,52.4668,-5.6561,1.2009,55.567146,37.55926,210.9259,0,5089
-0.270553,1.003201,9.668081,-0.014291,0.008175,0.004457,-24.36,16.56,-18.84,52.4668,-5.6561,1.2009,55.567146,37.55926,210.9259,0,5099
-0.220273,1.00799,9.818921,-0.014291,0.004509,0.004457,-23.52,17.22,-19.14,52.4668,-5.6561,1.2009,55.567146,37.55926,210.9259,0,5109
-0.220273,1.00799,9.818921,0.00037,-0.005264,0.002624,-23.52,17.22,-19.14,52.4668,-5.6561,1.2009,55.567146,37.55926,210.9259,0,5119
-0.148445,0.988836,9.785401,0.006479,-0.011984,-0.009593,-23.1,16.92,-19.74,51.1604,-5.6569,1.1647,55.567146,37.55926,210.9259,0,5129
-0.26337,1.010384,9.732727,0.002203,-0.012595,-0.011426,-23.1,16.92,-19.74,51.1604,-5.6569,1.1647,55.567146,37.55926,210.9259,0,5139
-0.33041,1.084607,9.821315,-0.009404,0.008175,-0.004095,-23.28,16.56,-19.68,51.1604,-5.6569,1.1647,55.567146,37.55926,210.9259,0,5149
-0.217879,0.960104,9.759064,-0.006349,0.016116,0.0069,-23.28,16.56,-19.68,51.1604,-5.6569,1.1647,55.567146,37.55926,210.9259,0,5160
-0.217879,0.960104,9.759064,-0.013069,0.030166,0.011787,-23.46,16.62,-19.08,51.2732,-5.6853,1.1708,55.567146,37.55926,210.9259,0,5169
-0.294496,1.019961,9.634562,-0.025897,0.022835,0.005068,-23.46,16.62,-19.08,51.2732,-5.6853,1.1708,55.567146,37.55926,210.9259,0,5179
-0.33041,0.969681,9.826104,-0.011236,0.028944,0.013009,-23.64,17.1,-19.26,51.2732,-5.6853,1.1708,55.567146,37.55926,210.9259,0,5189
-0.225062,1.031933,9.699207,0.002203,0.006342,0.015452,-24.36,17.04,-19.86,52.3458,-5.7216,1.2683,55.567146,37.55926,210.9259,0,5199
-0.225062,1.031933,9.699207,0.004646,0.010618,0.007511,-24.36,17.04,-19.86,52.3458,-5.7216,1.2683,55.567146,37.55926,210.9259,0,5209
-0.198725,0.952921,9.627379,-0.00696,0.020392,0.008122,-24.36,17.04,-19.86,52.3458,-5.7216,1.2683,55.567146,37.55926,210.9259,0,5219
-0.258582,1.034327,9.687236,-0.010625,0.01184,0.005679,-24.54,16.32,-20.34,52.3458,-5.7216,1.2683,55.567146,37.55926,210.9259,0,5229
-0.227456,1.036721,9.759064,-0.006349,0.008785,0.003846,-24.54,16.32,-20.34,52.3458,-5.7216,1.2683,55.567146,37.55926,210.9259,0,5239
-0.277736,0.914613,9.754275,-0.008793,0.010618,0.007511,-23.76,16.44,-20.16,53.8639,-5.7571,1.3665,55.567146,37.55926,210.9259,0,5249
-0.277736,0.914613,9.754275,-0.008793,0.010618,0.007511,-23.76,16.44,-20.16,53.8639,-5.7571,1.3665,55.567146,37.55926,210.9259,0,5259
-0.332804,0.917007,9.79019,-0.012458,-0.00221,0.013009,-23.34,16.86,-19.02,53.8639,-5.7571,1.3665,55.567146,37.55926,210.9259,0,5270
-0.160416,0.905036,9.873989,-0.010015,-0.00954,0.011787,-23.46,16.92,-18.36,53.8639,-5.7571,1.3665,55.567146,37.55926,210.9259,0,5280
-0.031126,0.885882,9.828498,-0.004517,-0.015038,0.003235,-23.46,16.92,-18.36,53.8639,-5.7571,1.3665,55.567146,37.55926,210.9259,0,5289
-0.114925,0.960104,9.778218,-0.008793,-0.001599,-0.005317,-23.82,16.74,-18.54,52.5153,-5.7729,1.4317,55.567146,37.55926,210.9259,0,5299
-0.114925,0.960104,9.778218,-0.01368,-0.001599,-0.004706,-23.82,16.74,-18.54,52.5153,-5.7729,1.4317,55.567146,37.55926,210.9259,0,5310
-0.184359,0.967287,9.821315,-0.001462,0.011229,0.008122,-23.4,16.56,-19.2,52.5153,-5.7729,1.4317,55.567146,37.55926,210.9259,0,5320
-0.146051,0.943344,9.57231,-0.014901,0.017948,0.008122,-23.4,16.56,-19.2,52.5153,-5.7729,1.4317,55.567146,37.55926,210.9259,0,5329
-0.189148,0.938556,9.632168,-0.04239,0.033831,0.005068,-23.64,16.56,-19.14,52.5097,-5.6966,1.3422,55.567146,37.55926,210.9259,0,5339
-0.225062,0.996018,9.840469,-0.040558,0.050324,-0.00043,-23.64,16.56,-19.14,52.5097,-5.6966,1.3422,55.567146,37.55926,210.9259,0,5349
-0.225062,0.996018,9.840469,-0.018567,0.020392,-0.009593,-23.52,16.62,-19.14,52.5097,-5.6966,1.3422,55.567146,37.55926,210.9259,0,5359
-0.193936,0.976864,9.905115,0.015642,-0.001599,-0.00715,-23.52,16.62,-19.14,52.5097,-5.6966,1.3422,55.567146,37.55926,210.9259,0,5369
-0.201119,0.92419,9.794978,0.023583,-0.029088,-0.013869,-23.22,16.38,-19.14,52.868,-5.6183,1.2818,55.567146,37.55926,210.9259,0,5379
-0.260976,0.988836,9.823709,0.022972,-0.032143,-0.002874,-23.22,16.38,-19.14,52.868,-5.6183,1.2818,55.567146,37.55926,210.9259,0,5389
-0.258582,1.00799,9.771035,0.022972,-0.032143,-0.002874,-23.46,16.26,-19.32,52.868,-5.6183,1.2818,55.567146,37.55926,210.9259,0,5399
-0.258582,1.00799,9.771035,0.02114,-0.035808,0.001403,-23.46,16.26,-19.32,52.868,-5.6183,1.2818,55.567146,37.55926,210.9259,0,5409
-0.265764,0.988836,9.699207,0.000981,-0.013206,0.000181,-23.52,16.62,-19.8,52.3829,-5.6111,1.2393,55.567146,37.55926,210.9259,0,5420
-0.318439,0.943344,9.689631,-0.021621,0.010007,-0.002874,-23.52,16.62,-19.8,52.3829,-5.6111,1.2393,55.567146,37.55926,210.9259,0,5430
-0.272947,0.938556,9.708784,-0.03506,0.019781,0.000792,-24,16.92,-20.04,52.3829,-5.6111,1.2393,55.567146,37.55926,210.9259,0,5439
-0.272947,0.938556,9.708784,-0.033227,0.019781,-0.002263,-24,16.92,-20.04,52.3829,-5.6111,1.2393,55.567146,37.55926,210.9259,0,5450
-0.270553,0.933767,9.672871,-0.032006,0.011229,-0.010204,-24.36,17.04,-19.8,52.3698,-5.6353,1.2344,55.567146,37.55926,210.9259,0,5459
-0.304073,0.948133,9.761458,-0.016734,0.004509,-0.00776,-24.36,17.04,-19.8,52.3698,-5.6353,1.2344,55.567146,37.55926,210.9259,0,5470
-0.306467,0.952921,9.766247,-0.003295,-0.006486,-0.00043,-24.36,16.2,-19.08,52.3698,-5.6353,1.2344,55.567146,37.55926,210.9259,0,5480
-0.323227,0.972076,9.718362,0.002814,-0.018093,-0.001041,-24.36,16.2,-19.08,52.3698,-5.6353,1.2344,55.567146,37.55926,210.9259,0,5490
-0.323227,0.972076,9.718362,0.001592,-0.024201,0.000181,-23.82,16.02,-19.08,54.0688,-5.5754,1.3581,55.567146,37.55926,210.9259,0,5499
-0.287313,0.900247,9.797373,0.010144,-0.060853,-0.002874,-23.82,16.02,-19.08,54.0688,-5.5754,1.3581,55.567146,37.55926,210.9259,0,5509
-0.272947,1.031933,9.993703,0.046796,-0.074903,-0.00043,-23.64,16.62,-19.02,54.0688,-5.5754,1.3581,55.567146,37.55926,210.9259,0,5519
-0.272947,1.031933,9.993703,0.044352,-0.030921,-0.002263,-24.06,16.38,-19.44,54.0688,-5.5754,1.3581,55.567146,37.55926,210.9259,0,5529
-0.165205,0.799688,9.617802,0.005257,-0.010762,-0.016313,-24.06,16.38,-19.44,54.0688,-5.5754,1.3581,55.567146,37.55926,210.9259,0,5539
-0.284919,0.943344,9.70639,-0.01368,0.014283,-0.012036,-24.06,17.22,-19.5,52.5893,-5.5766,1.408,55.567146,37.55926,210.9259,0,5549
-0.332804,0.984047,9.771035,-0.013069,0.020392,-0.00715,-24.06,17.22,-19.5,52.5893,-5.5766,1.408,55.567146,37.55926,210.9259,0,5559
-0.332804,0.914613,9.818921,-0.002684,0.000844,-0.003484,-23.46,16.8,-19.14,52.5893,-5.5766,1.408,55.567146,37.55926,210.9884,0,5570
-0.29689,0.914613,9.818921,-0.002684,0.000844,-0.003484,-23.46,16.8,-19.14,52.5893,-5.5766,1.408,55.567146,37.55926,210.9884,0,5579
-0.272947,0.948133,9.917087,0.009533,-0.005264,-0.005928,-24.12,16.56,-19.2,52.5832,-5.5771,1.3941,55.567146,37.55926,210.9884,0,5589
-0.272947,0.948133,9.917087,0.027248,-0.016871,0.006289,-24.12,16.56,-19.2,52.5832,-5.5771,1.3941,55.567146,37.55926,210.9884,0,5599
-0.117319,0.933767,9.799767,0.03519,-0.026034,0.018507,-24.72,17.64,-19.2,52.5832,-5.5771,1.3941,55.567146,37.55926,210.9884,0,5609
-0.031126,0.984047,9.646533,0.019307,-0.016871,0.004457,-24.72,17.64,-19.2,52.5832,-5.5771,1.3941,55.567146,37.55926,210.9884,0,5619
-0.102954,0.993624,9.687236,-0.002073,-0.000378,-0.009593,-23.94,17.28,-19.38,52.6267,-5.5501,1.4693,55.567146,37.55926,210.9884,0,5629
-0.162811,0.964893,9.72315,0.002814,0.010007,-0.010204,-23.94,17.28,-19.38,52.6267,-5.5501,1.4693,55.567146,37.55926,210.9884,0,5639
-0.162811,0.964893,9.72315,0.015031,-0.003432,-0.008982,-23.76,16.5,-19.32,52.6267,-5.5501,1.4693,55.567146,37.55926,210.9884,0,5649
-0.119714,0.960104,9.660899,0.013198,-0.007708,-0.010815,-23.76,16.86,-19.02,52.6267,-5.5501,1.4693,55.567146,37.55926,210.9884,0,5659
-0.10056,1.00799,9.584282,0.000981,-0.00221,-0.020589,-23.76,16.86,-19.02,52.6267,-5.5501,1.4693,55.567146,37.55926,210.9884,0,5669
-0.074223,1.005595,9.63935,-0.018567,-0.000988,-0.023032,-24.12,16.8,-19.44,52.5606,-5.5743,1.3382,55.567146,37.55926,210.9884,0,5679
-0.071828,1.04151,9.703996,-0.02101,-0.001599,-0.020589,-24.12,16.8,-19.44,52.5606,-5.5743,1.3382,55.567146,37.55926,210.9884,0,5689
-0.071828,1.04151,9.703996,-0.027119,-0.005875,-0.024254,-23.64,16.98,-19.32,52.5606,-5.5743,1.3382,55.567146,37.55926,210.9884,0,5700
-0.184359,1.019961,9.838076,-0.022843,-0.007097,-0.021199,-23.64,16.98,-19.32,52.5606,-5.5743,1.3382,55.567146,37.55926,210.9884,0,5710
-0.181965,0.97447,9.859624,-0.009404,-0.020536,-0.009593,-23.94,16.92,-19.26,52.4847,-5.605,1.1911,55.567146,37.55926,210.9884,0,5719
-0.090982,0.969681,9.838076,-0.004517,-0.011373,0.000181,-23.94,16.92,-19.26,52.4847,-5.605,1.1911,55.567146,37.55926,210.9884,0,5729
-0.162811,0.926584,9.783007,-0.014901,0.01184,-0.006539,-24,16.68,-19.56,52.4847,-5.605,1.1911,55.567146,37.55926,210.9884,0,5739
-0.162811,0.926584,9.783007,-0.022843,0.021003,-0.012036,-24,16.68,-19.56,52.4847,-5.605,1.1911,55.567146,37.55926,210.9884,0,5749
-0.270553,0.871516,9.878778,-0.008793,0.01184,-0.005928,-23.76,16.56,-19.74,52.2898,-5.6327,1.0534,55.567146,37.55926,210.9884,0,5759
-0.241822,0.87391,9.909904,-0.008793,0.01184,-0.005928,-23.76,16.56,-19.74,52.2898,-5.6327,1.0534,55.567146,37.55926,210.9884,0,5769
-0.244216,0.912219,9.873989,0.013809,-0.003432,-0.003484,-24.18,16.62,-19.26,52.2898,-5.6327,1.0534,55.567146,37.55926,210.9884,0,5779
-0.289707,0.90743,9.77343,0.024805,-0.005264,-0.003484,-24.18,16.62,-19.26,52.2898,-5.6327,1.0534,55.567146,37.55926,210.9884,0,5789
-0.289707,0.90743,9.77343,0.040687,-0.01626,-0.002874,-23.58,16.56,-18.9,52.4253,-5.5871,1.0347,55.567146,37.55926,210.9884,0,5799
-0.294496,0.94095,9.617802,0.046185,-0.027256,-0.003484,-23.58,16.56,-18.9,52.4253,-5.5871,1.0347,55.567146,37.55926,210.9884,0,5810
-0.349564,0.99123,9.541185,0.032746,-0.027866,-0.003484,-23.94,16.14,-19.14,52.4253,-5.5871,1.0347,55.567146,37.55926,210.9884,0,5820
-0.311256,1.00799,9.663293,0.015642,-0.01626,-0.001652,-23.94,16.14,-19.14,52.4253,-5.5871,1.0347,55.567146,37.55926,210.9884,0,5829
-0.260976,0.981653,9.682447,0.017474,-0.01626,0.001403,-24,16.2,-19.38,53.9464,-5.5787,1.0728,55.567146,37.55926,210.9884,0,5839
-0.260976,0.981653,9.682447,0.017474,-0.01626,0.001403,-24,16.2,-19.38,53.9464,-5.5787,1.0728,55.567146,37.55926,210.9884,0,5849
-0.260976,0.981653,9.682447,0.017474,-0.01626,0.001403,-24,16.2,-19.38,53.9464,-5.5787,1.0728,55.567146,37.55926,210.9884,0,5859
-0.260976,0.981653,9.682447,0.017474,-0.01626,0.001403,-24,16.2,-19.38,53.9464,-5.5787,1.0728,55.567146,37.55926,210.9884,0,5870
-0.260976,0.981653,9.682447,0.017474,-0.01626,0.001403,-24,16.2,-19.38,53.9464,-5.5787,1.0728,55.567146,37.55926,210.9884,0,5879
-0.260976,0.981653,9.682447,0.017474,-0.01626,0.001403,-24,16.2,-19.38,53.9464,-5.5787,1.0728,55.567146,37.55926,210.9884,0,5890
-0.260976,0.981653,9.682447,0.017474,-0.01626,0.001403,-24,16.2,-19.38,53.9464,-5.5787,1.0728,55.567146,37.55926,210.9884,0,5899
-0.251399,0.97447,9.677659,0.020529,-0.02298,0.005068,-23.7,16.38,-19.56,53.8397,-5.5888,1.132,55.567146,37.55926,210.9884,0,5909
-0.217879,0.979258,9.850046,0.004035,-0.019925,-0.002263,-23.7,16.38,-19.56,53.8397,-5.5888,1.132,55.567146,37.55926,210.9884,0,5919
-0.181965,0.945739,9.826104,0.01442,-0.029699,0.000181,-24,16.74,-18.66,53.8397,-5.5888,1.132,55.567146,37.55926,210.9884,0,5929
-0.205908,0.926584,9.917087,0.005868,-0.019314,0.008122,-24,16.74,-18.66,53.8397,-5.5888,1.132,55.567146,37.55926,210.9884,0,5940
-0.205908,0.926584,9.917087,0.002814,-0.002821,0.011787,-24.48,17.04,-18.96,52.5186,-5.6381,1.3039,55.567146,37.55926,210.9884,0,5949
-0.129291,0.962499,9.976943,0.016864,-0.007708,0.01362,-24.48,17.04,-18.96,52.5186,-5.6381,1.3039,55.567146,37.55926,210.9884,0,5959
-0.095771,0.900247,9.840469,0.02847,-0.010762,0.013009,-24.54,16.98,-19.32,52.5186,-5.6381,1.3039,55.567146,37.55926,210.9884,0,5969
-0.122108,0.972076,9.742304,0.024194,-0.011373,0.004457,-24.54,16.98,-19.32,52.5186,-5.6381,1.3039,55.567146,37.55926,210.9884,0,5979
-0.177176,0.998413,9.783007,0.024194,-0.012595,0.009344,-24.36,16.98,-19.08,52.5071,-5.6387,1.2775,55.567146,37.55926,210.9884,0,5989
-0.177176,0.998413,9.783007,0.039466,-0.029088,0.012398,-24.36,16.98,-19.08,52.5071,-5.6387,1.2775,55.567146,37.55926,210.9884,0,5999
-0.217879,0.960104,9.749487,0.050461,-0.026034,0.02095,-23.46,16.62,-19.5,52.5071,-5.6387,1.2775,55.567146,37.55926,210.9884,0,6009
-0.33041,0.888276,9.694419,0.044963,-0.010762,0.037444,-23.46,16.62,-19.5,52.5071,-5.6387,1.2775,55.567146,37.55926,210.9884,0,6019
-0.265764,0.979258,9.737515,0.046185,-0.00221,0.042941,-23.34,16.2,-19.74,52.6771,-5.6523,1.176,55.567146,37.55926,210.9884,0,6029
-0.086194,0.979258,9.677659,0.060846,-0.013817,0.038054,-23.34,16.2,-19.74,52.6771,-5.6523,1.176,55.567146,37.55926,210.9884,0,6039
-0.086194,0.979258,9.677659,0.068176,-0.04436,0.022783,-23.82,16.32,-19.44,52.6771,-5.6523,1.176,55.567146,37.55926,210.9884,0,6049
0.040703,1.055875,9.60583,0.062678,-0.053523,0.005679,-23.82,16.32,-19.44,52.6771,-5.6523,1.176,55.567146,37.55926,210.9884,0,6059
-0.028731,1.084607,9.617802,0.0358,-0.043749,-0.005928,-24.66,17.04,-19.26,53.5428,-5.7027,1.1694,55.567146,37.55926,210.9884,0,6069
-0.339987,1.022355,9.687236,0.026027,-0.015649,0.014231,-24.66,17.04,-19.26,53.5428,-5.7027,1.1694,55.567146,37.55926,210.9884,0,6079
-0.260976,1.075029,9.557945,0.002203,-0.010762,0.024615,-24.96,17.4,-19.02,53.5428,-5.7027,1.1694,55.567146,37.55926,210.9884,0,6089
-0.260976,1.075029,9.557945,-0.015512,0.010007,0.032557,-24.96,17.4,-19.02,53.5428,-5.7027,1.1694,55.567146,37.55926,210.9884,0,6099
-0.148445,1.084607,9.79019,-0.011847,0.006953,0.027059,-24.6,17.16,-18.72,53.4237,-5.8174,0.9996,55.567146,37.55926,210.9884,0,6109
0.107742,1.118126,9.75667,-0.002684,-0.008319,0.002013,-24.6,17.16,-18.72,53.4237,-5.8174,0.9996,55.567146,37.55926,210.9884,0,6119
0.002394,1.091789,9.802161,0.005257,-0.015649,-0.017534,-24.36,17.52,-18.6,53.4237,-5.8174,0.9996,55.567146,37.55926,210.9884,0,6129
-0.172388,1.017567,9.862018,0.009533,-0.010151,-0.016313,-24.36,17.52,-18.6,53.4237,-5.8174,0.9996,55.567146,37.55926,210.9884,0,6139
-0.172388,1.017567,9.862018,0.01442,0.000844,-0.00715,-23.94,17.4,-18.6,52.2714,-5.8926,0.984,55.567146,37.55926,210.9884,0,6149
-0.272947,0.962499,9.787795,0.015031,-0.00221,0.0069,-23.94,17.4,-18.6,52.2714,-5.8926,0.984,55.567146,37.55926,210.9884,0,6159
-0.105348,0.998413,9.656111,0.003425,-0.000378,-0.00043,-24.06,16.5,-18.66,52.2714,-5.8926,0.984,55.567146,37.55926,210.9884,0,6169
-0.131685,1.051087,9.73991,-0.002073,0.014283,0.001403,-24.36,15.84,-19.26,52.2714,-5.8926,0.984,55.567146,37.55926,210.9884,0,6179
-0.131685,1.051087,9.73991,-0.002073,0.014283,0.001403,-24.36,15.84,-19.26,52.2714,-5.8926,0.984,55.567146,37.55926,210.9884,0,6189
-0.134079,0.972076,9.799767,-0.005128,0.020392,0.004457,-24.48,15.9,-19.02,53.6589,-6.0103,0.8581,55.567146,37.55926,210.9884,0,6199
-0.071828,1.034327,9.766247,-0.003295,0.01917,0.003235,-23.88,16.56,-19.5,53.6589,-6.0103,0.8581,55.567146,37.55926,210.9884,0,6210
-0.150839,1.139675,9.749487,-0.007571,0.013672,-0.005317,-23.88,16.56,-19.5,53.6589,-6.0103,0.8581,55.567146,37.55926,210.9884,0,6219
-0.150839,1.139675,9.749487,-0.005738,0.013672,-0.019978,-23.88,16.56,-19.5,53.6589,-6.0103,0.8581,55.567146,37.55926,210.9884,0,6229
-0.153234,1.139675,9.629773,-0.013069,0.002677,-0.026086,-23.76,17.04,-19.8,52.0334,-5.9943,0.8514,55.567146,37.55926,210.9884,0,6240
-0.220273,1.063058,9.562734,-0.039947,0.018559,-0.025476,-23.76,17.04,-19.8,52.0334,-5.9943,0.8514,55.567146,37.55926,210.9884,0,6249
-0.311256,0.962499,9.701602,-0.039947,0.018559,-0.025476,-23.82,16.74,-18.96,52.0334,-5.9943,0.8514,55.567146,37.55926,210.9884,0,6260
-0.287313,0.869122,9.890749,-0.050332,0.036885,-0.019978,-23.82,16.74,-18.96,52.0334,-5.9943,0.8514,55.567146,37.55926,210.9884,0,6270
-0.287313,0.869122,9.890749,-0.026508,0.026501,-0.004095,-23.82,16.74,-19.44,52.1481,-6.0412,0.848,55.567146,37.55926,210.9884,0,6280
-0.21309,0.854756,9.864412,0.004035,0.01184,0.002624,-23.82,16.74,-19.44,52.1481,-6.0412,0.848,55.567146,37.55926,210.9884,0,6289
-0.256187,0.914613,9.893144,0.02114,0.006953,0.003235,-23.88,16.44,-19.5,52.1481,-6.0412,0.848,55.567146,37.55926,210.9884,0,6299
-0.260976,0.967287,9.79019,0.033968,-0.010762,0.012398,-23.88,16.44,-19.5,52.1481,-6.0412,0.848,55.567146,37.55926,210.9884,0,6310
-0.155628,1.012778,9.61062,0.030303,-0.00893,0.016063,-23.64,16.26,-19.08,53.7354,-5.9715,0.9944,55.567146,37.55926,210.9884,0,6320
-0.155628,1.012778,9.61062,-0.002073,0.006342,0.009344,-23.64,16.26,-19.08,53.7354,-5.9715,0.9944,55.567146,37.55926,210.9884,0,6329
-0.119714,1.039115,9.555551,-0.02101,0.021003,0.001403,-24,16.62,-19.08,53.7354,-5.9715,0.9944,55.567146,37.55926,210.9884,0,6339
-0.217879,1.046298,9.735122,-0.016734,0.014894,-0.002263,-24,16.62,-19.08,53.7354,-5.9715,0.9944,55.567146,37.55926,210.9884,0,6350
-0.160416,1.05827,9.785401,-0.000852,-0.003432,-0.004706,-24.78,16.92,-18.66,53.406,-5.9261,1.0683,55.567146,37.55926,210.9884,0,6360
-0.079011,1.115732,9.72315,0.00037,-0.004654,-0.019978,-24.78,16.92,-18.66,53.406,-5.9261,1.0683,55.567146,37.55926,210.9884,0,6370
-0.079011,1.115732,9.72315,0.00037,-0.004654,-0.019978,-24.84,17.16,-18.48,53.406,-5.9261,1.0683,55.567146,37.55926,210.9884,0,6379
-0.169993,1.122915,9.804555,0.005868,-0.006486,-0.018756,-24.84,17.16,-18.48,53.406,-5.9261,1.0683,55.567146,37.55926,210.9884,0,6390
-0.105348,1.094184,9.766247,0.010755,-0.000378,-0.00776,-24.18,17.76,-18.3,51.0065,-5.9017,1.1041,55.567146,37.55926,210.9884,0,6400
-0.114925,1.039115,9.701602,0.001592,0.012451,0.000792,-24.18,17.76,-18.3,51.0065,-5.9017,1.1041,55.567146,37.55926,210.9884,0,6409
-0.220273,1.000807,9.857229,-0.016734,0.020392,0.005679,-23.4,17.52,-18.9,51.0065,-5.9017,1.1041,55.567146,37.55926,210.9884,0,6420
-0.220273,1.000807,9.857229,-0.014901,0.020392,0.010566,-23.34,17.16,-18.78,51.0065,-5.9017,1.1041,55.567146,37.55926,210.9884,0,6429
-0.196331,0.998413,9.945818,0.013198,0.009396,0.010566,-23.34,17.16,-18.78,51.0065,-5.9017,1.1041,55.567146,37.55926,210.9884,0,6439
-0.141262,0.960104,9.754275,0.033968,-0.013817,0.003846,-23.82,16.38,-19.56,53.6,-6.0097,1.0435,55.567146,37.55926,210.9884,0,6450
-0.225062,0.948133,9.720756,0.032746,-0.018703,-0.004095,-23.82,16.38,-19.56,53.6,-6.0097,1.0435,55.567146,37.55926,210.9884,0,6460
-0.205908,0.969681,9.737515,0.024194,-0.005875,0.011787,-23.7,16.38,-19.56,53.6,-6.0097,1.0435,55.567146,37.55926,210.9884,0,6469
-0.205908,0.969681,9.737515,0.026027,-0.007097,0.026448,-24.06,16.5,-19.02,53.6,-6.0097,1.0435,55.567146,37.55926,210.9884,0,6479
-0.038308,1.005595,9.608225,0.010144,-0.003432,0.024005,-24.06,16.5,-19.02,53.6,-6.0097,1.0435,55.567146,37.55926,210.9884,0,6489
-0.023943,1.05827,9.591465,-0.011847,-0.000988,0.005679,-24.12,16.2,-19.08,53.7077,-6.0475,1.0093,55.567146,37.55926,210.9884,0,6499
-0.181965,1.039115,9.77343,-0.016734,0.000233,0.0069,-24.12,16.2,-19.08,53.7077,-6.0475,1.0093,55.567146,37.55926,210.9884,0,6509
-0.205908,1.043904,9.761458,-0.00696,-0.00221,0.002624,-23.58,16.2,-19.08,53.7077,-6.0475,1.0093,55.567146,37.55926,210.9884,0,6519
-0.205908,1.043904,9.761458,-0.012458,-0.000378,-0.00715,-23.76,16.02,-19.08,53.7077,-6.0475,1.0093,55.567146,37.55926,210.9884,0,6529
-0.134079,0.988836,9.677659,-0.012458,-0.000378,-0.00715,-23.76,16.02,-19.08,53.7077,-6.0475,1.0093,55.567146,37.55926,210.9884,0,6539
-0.225062,0.976864,9.794978,-0.024675,0.006342,-0.022421,-24,15.66,-19.26,53.7005,-6.0075,0.951,55.567146,37.55926,210.9884,0,6549
-0.22985,0.948133,9.821315,-0.02101,0.005731,-0.015702,-24,15.66,-19.26,53.7005,-6.0075,0.951,55.567146,37.55926,210.9884,0,6559
-0.258582,0.928979,9.859624,-0.011847,-0.003432,-0.012036,-24.3,16.56,-18.84,53.7005,-6.0075,0.951,55.567146,37.55926,210.9884,0,6569
-0.258582,0.928979,9.859624,-0.010015,-0.000378,-0.008371,-24.3,16.56,-18.84,53.7005,-6.0075,0.951,55.567146,37.55926,210.4468,0,6579
-0.308861,0.955316,9.96976,-0.002073,0.006953,-0.002874,-24.48,17.04,-18.24,52.372,-5.9463,0.9611,55.567146,37.55926,210.4468,0,6589
-0.325621,0.902642,10.010463,0.025416,-0.00221,0.009344,-24.48,17.04,-18.24,52.372,-5.9463,0.9611,55.567146,37.55926,210.4468,0,6599
-0.28013,0.897853,9.864412,0.051072,-0.007708,0.02767,-24.24,16.74,-18.6,52.372,-5.9463,0.9611,55.567146,37.55926,210.4468,0,6609
-0.272947,0.95771,9.761458,0.050461,0.001455,0.029502,-24.24,16.74,-18.6,52.372,-5.9463,0.9611,55.567146,37.55926,210.4468,0,6619
-0.272947,0.95771,9.761458,0.055959,0.004509,0.034389,-23.82,16.86,-18.42,52.4475,-5.8543,1.0531,55.567146,37.55926,210.4468,0,6629
-0.217879,1.046298,9.730332,0.065733,0.008785,0.035611,-23.82,16.86,-18.42,52.4475,-5.8543,1.0531,55.567146,37.55926,210.4468,0,6640
-0.102954,1.075029,9.522031,0.060846,0.002066,0.030724,-24.06,16.68,-18.66,52.4475,-5.8543,1.0531,55.567146,37.55926,210.4468,0,6649
-0.06704,1.137281,9.47654,0.038855,-0.000378,0.02095,-24.06,16.68,-18.66,52.4475,-5.8543,1.0531,55.567146,37.55926,210.4468,0,6659
-0.023943,1.173195,9.565128,0.031524,0.002066,0.026448,-24.48,16.38,-19.32,53.8739,-5.8452,1.1847,55.567146,37.55926,210.4468,0,6669
-0.023943,1.173195,9.565128,0.023583,0.010007,0.020339,-24.48,16.38,-19.32,53.8739,-5.8452,1.1847,55.567146,37.55926,210.4468,0,6679
0.026337,1.22108,9.423865,-0.001462,0.008785,0.010566,-23.82,16.5,-19.32,53.8739,-5.8452,1.1847,55.567146,37.55926,210.4468,0,6689
-0.028731,1.266571,9.466963,-0.001462,0.008785,0.010566,-23.82,16.5,-19.32,53.8739,-5.8452,1.1847,55.567146,37.55926,210.4468,0,6700
-0.026337,1.295303,9.615408,-0.032006,0.009396,-0.015702,-23.82,16.74,-19.14,52.311,-5.9778,1.1599,55.567146,37.55926,210.4468,0,6710
0.021548,1.173195,9.636956,-0.032006,0.009396,-0.015702,-23.82,16.74,-19.14,52.311,-5.9778,1.1599,55.567146,37.55926,210.4468,0,6719
0.021548,1.173195,9.636956,-0.031395,-0.005875,-0.012647,-23.94,16.56,-18.96,52.311,-5.9778,1.1599,55.567146,37.55926,210.4468,0,6729
0.011971,1.151646,9.787795,-0.057051,0.007564,-0.018145,-23.94,16.56,-18.96,52.311,-5.9778,1.1599,55.567146,37.55926,210.4468,0,6740
-0.098165,1.087001,9.955395,-0.052775,0.006342,-0.016313,-23.88,16.62,-19.2,52.2028,-6.1164,1.047,55.567146,37.55926,210.4468,0,6749
-0.0838,0.943344,9.938635,-0.038114,0.000844,-0.009593,-23.88,16.62,-19.2,52.2028,-6.1164,1.047,55.567146,37.55926,210.4468,0,6759
-0.0838,0.943344,9.938635,-0.034449,0.000844,-0.018145,-24.54,16.74,-19.92,52.2028,-6.1164,1.047,55.567146,37.55926,210.4468,0,6769
-0.208302,0.936161,9.948212,-0.030784,0.010007,-0.025476,-24.54,16.74,-19.92,52.2028,-6.1164,1.047,55.567146,37.55926,210.4468,0,6780
-0.270553,0.943344,10.017646,-0.007571,-0.006486,-0.023643,-24.36,16.86,-19.98,52.1151,-6.0141,1.0504,55.567146,37.55926,210.4468,0,6789
-0.220273,0.919402,9.917087,-0.007571,-0.006486,-0.023643,-24.36,16.86,-19.98,52.1151,-6.0141,1.0504,55.567146,37.55926,210.4468,0,6800
-0.268159,0.90743,9.75667,0.011977,-0.018093,-0.023032,-23.76,16.98,-19.02,52.1151,-6.0141,1.0504,55.567146,37.55926,210.4468,0,6809
-0.268159,0.90743,9.75667,0.004035,-0.008319,-0.019367,-23.76,16.98,-19.02,52.1151,-6.0141,1.0504,55.567146,37.55926,210.4468,0,6819
-0.454912,0.90743,9.785401,0.00037,0.004509,-0.010204,-24,16.44,-18.78,53.7664,-5.958,1.0523,55.567146,37.55926,210.4468,0,6830
-0.502798,0.931373,9.732727,0.01442,0.008785,-0.001041,-24,16.44,-18.78,53.7664,-5.958,1.0523,55.567146,37.55926,210.4468,0,6839
-0.502798,0.931373,9.732727,0.01442,0.008785,-0.001041,-24.36,16.2,-18.72,53.7664,-5.958,1.0523,55.567146,37.55926,210.4468,0,6849
-0.502798,0.931373,9.732727,0.01442,0.008785,-0.001041,-24.36,16.2,-18.72,53.7664,-5.958,1.0523,55.567146,37.55926,210.4468,0,6859
-0.502798,0.931373,9.732727,0.01442,0.008785,-0.001041,-24.36,16.2,-18.72,53.7664,-5.958,1.0523,55.567146,37.55926,210.4468,0,6869
-0.474066,0.950527,9.672871,0.022972,0.003899,0.0069,-24.36,16.2,-18.72,53.7577,-5.9735,1.0483,55.567146,37.55926,210.4468,0,6879
-0.29689,0.979258,9.562734,0.016864,0.000844,0.010566,-24.36,16.2,-18.72,53.7577,-5.9735,1.0483,55.567146,37.55926,210.4468,0,6890
-0.270553,1.055875,9.658504,0.009533,-0.005875,0.006289,-24.54,16.92,-19.2,53.7577,-5.9735,1.0483,55.567146,37.55926,210.4468,0,6899
-0.270553,1.055875,9.658504,0.008922,-0.007097,0.014842,-24.54,16.92,-19.2,53.7577,-5.9735,1.0483,55.567146,37.55926,210.4468,0,6909
-0.232245,1.077424,9.811738,0.02175,-0.007708,0.022172,-24.72,16.5,-18.6,53.5644,-5.8977,1.4219,55.567146,37.55926,210.4468,0,6919
-0.150839,1.079818,9.744699,0.020529,-0.006486,0.020339,-24.72,16.5,-18.6,53.5644,-5.8977,1.4219,55.567146,37.55926,210.4468,0,6929
-0.143656,1.05827,9.754275,0.019918,-0.011373,0.019729,-23.88,16.02,-18.54,53.5644,-5.8977,1.4219,55.567146,37.55926,210.4468,0,6939
-0.143656,1.05827,9.754275,0.036411,-0.015649,0.028891,-23.88,16.02,-18.54,53.5644,-5.8977,1.4219,55.567146,37.55926,210.4468,0,6950
-0.090982,1.02475,9.828498,0.041909,-0.018703,0.026448,-24.06,16.32,-19.62,53.8718,-5.9058,1.542,55.567146,37.55926,210.4468,0,6959
0.071828,1.019961,9.648928,0.041909,-0.018703,0.026448,-24.06,16.32,-19.62,53.8718,-5.9058,1.542,55.567146,37.55926,210.4468,0,6969
0.071828,1.106155,9.668081,0.017474,-0.013206,0.018507,-23.88,16.86,-19.86,53.8718,-5.9058,1.542,55.567146,37.55926,210.4468,0,6979
0.071828,1.106155,9.668081,-0.003295,-0.000378,0.005068,-23.88,16.86,-19.86,53.8718,-5.9058,1.542,55.567146,37.55926,210.4468,0,6989
0.05028,1.139675,9.783007,-0.002073,0.002066,0.003846,-23.7,16.98,-18.96,52.4176,-5.9998,1.429,55.567146,37.55926,210.4468,0,6999
0.007183,1.180378,9.713573,0.00037,-0.002821,0.004457,-23.7,16.98,-18.96,52.4176,-5.9998,1.429,55.567146,37.55926,210.4468,0,7009
0.007183,1.180378,9.713573,-0.003906,0.002677,-0.00043,-24.06,17.1,-18.78,52.4176,-5.9998,1.429,55.567146,37.55926,210.4468,0,7020
-0.045491,1.225869,9.80695,0.003425,0.002066,-0.001652,-24.06,17.1,-18.78,52.4176,-5.9998,1.429,55.567146,37.55926,210.4468,0,7029
0.019154,1.223474,9.670476,0.007701,-0.005875,-0.00043,-24.06,16.98,-19.68,52.1205,-6.0732,1.1209,55.567146,37.55926,210.4468,0,7039
0.019154,1.223474,9.670476,0.007701,-0.005875,-0.00043,-24.06,16.98,-19.68,52.1205,-6.0732,1.1209,55.567146,37.55926,210.4468,0,7049
0.047885,1.185166,9.502876,-0.000852,-0.012595,-0.006539,-23.76,16.32,-19.98,52.1205,-6.0732,1.1209,55.567146,37.55926,210.4468,0,7059
0.047885,1.185166,9.502876,-0.036282,0.01184,-0.005317,-23.76,16.32,-19.98,52.1205,-6.0732,1.1209,55.567146,37.55926,210.4468,0,7069
-0.134079,1.010384,9.687236,-0.034449,0.002677,-0.003484,-23.82,16.5,-20.4,51.9006,-6.2587,0.8229,55.567146,37.55926,210.4468,0,7080
-0.148445,0.998413,9.684841,-0.037503,0.002677,-0.019367,-23.82,16.5,-20.4,51.9006,-6.2587,0.8229,55.567146,37.55926,210.4468,0,7089
-0.217879,0.981653,9.742304,-0.034449,-0.001599,-0.024865,-24.06,16.62,-19.56,51.9006,-6.2587,0.8229,55.567146,37.55926,210.4468,0,7099
-0.217879,0.981653,9.742304,-0.034449,-0.001599,-0.024865,-24.06,16.62,-19.56,51.9006,-6.2587,0.8229,55.567146,37.55926,210.4468,0,7109
-0.318439,0.926584,9.869201,-0.016734,0.000844,-0.010815,-23.94,16.14,-18.54,53.4236,-6.3349,0.6539,55.567146,37.55926,210.4468,0,7119
-0.292102,0.928979,9.703996,-0.010625,-0.008319,-0.003484,-23.94,16.14,-18.54,53.4236,-6.3349,0.6539,55.567146,37.55926,210.4468,0,7129
-0.320833,0.914613,9.759064,-0.01368,-0.004654,-0.004706,-24.12,16.44,-19.56,53.4236,-6.3349,0.6539,55.567146,37.55926,210.4468,0,7139
-0.320833,0.914613,9.759064,-0.022232,0.013062,0.004457,-24.12,16.44,-19.56,53.4236,-6.3349,0.6539,55.567146,37.55926,210.4468,0,7150
-0.304073,0.955316,9.833286,-0.013069,0.021614,0.016063,-23.94,16.68,-20.1,51.8682,-6.2226,0.7172,55.567146,37.55926,210.4468,0,7159
-0.239427,0.943344,9.694419,-0.008182,0.017338,0.015452,-23.94,16.68,-20.1,51.8682,-6.2226,0.7172,55.567146,37.55926,210.4468,0,7169
-0.249005,1.003201,9.744699,-0.013069,0.014894,0.002624,-23.58,16.5,-19.02,51.8682,-6.2226,0.7172,55.567146,37.55926,210.4468,0,7179
-0.249005,1.003201,9.744699,-0.010625,0.016727,-0.005928,-23.76,16.08,-18.96,51.8682,-6.2226,0.7172,55.567146,37.55926,210.4468,0,7189
-0.287313,1.043904,9.838076,0.005868,0.008175,-0.010815,-23.76,16.08,-18.96,51.8682,-6.2226,0.7172,55.567146,37.55926,210.4468,0,7199
-0.292102,1.003201,9.737515,0.004646,0.010618,-0.002263,-23.7,15.72,-19.2,53.7131,-6.0056,0.9782,55.567146,37.55926,210.4468,0,7209
-0.308861,1.029538,9.802161,-0.008182,0.008785,-0.002874,-23.7,15.72,-19.2,53.7131,-6.0056,0.9782,55.567146,37.55926,210.4468,0,7219
-0.308861,1.029538,9.802161,-0.000241,0.009396,0.003846,-23.76,15.96,-18.96,53.7131,-6.0056,0.9782,55.567146,37.55926,210.4468,0,7229
-0.24661,0.943344,9.854836,0.004035,0.013672,0.009955,-23.76,15.96,-18.96,53.7131,-6.0056,0.9782,55.567146,37.55926,210.4468,0,7239
-0.308861,0.943344,9.799767,0.015031,0.012451,0.014231,-23.82,16.32,-19.08,53.8271,-5.9354,1.1699,55.567146,37.55926,210.4468,0,7249
-0.29689,0.964893,9.883567,0.024194,0.006953,0.014231,-23.82,16.32,-19.08,53.8271,-5.9354,1.1699,55.567146,37.55926,210.4468,0,7260
-0.29689,0.964893,9.883567,0.038244,-0.000988,0.014231,-23.58,16.14,-19.14,53.8271,-5.9354,1.1699,55.567146,37.55926,210.4468,0,7269
-0.0838,1.04151,9.818921,0.038244,-0.000988,0.014231,-23.58,16.14,-19.14,53.8271,-5.9354,1.1699,55.567146,37.55926,210.4468,0,7279
-0.03352,1.089395,9.613013,0.033357,-0.007097,0.007511,-23.22,16.32,-18.96,52.7635,-5.8918,1.3264,55.567146,37.55926,210.4468,0,7290
-0.081405,1.120521,9.658504,0.015031,-0.007708,-0.004706,-23.16,16.5,-19.02,52.7635,-5.8918,1.3264,55.567146,37.55926,210.4468,0,7299
-0.129291,1.122915,9.797373,-0.005128,0.004509,-0.008371,-23.16,16.5,-19.02,52.7635,-5.8918,1.3264,55.567146,37.55926,210.4468,0,7309
-0.129291,1.122915,9.797373,0.002203,-0.001599,-0.00043,-23.22,15.66,-19.38,52.7635,-5.8918,1.3264,55.567146,37.55926,210.4468,0,7320
-0.143656,1.113338,9.711179,-0.000241,-0.000378,0.007511,-23.22,15.66,-19.38,52.7635,-5.8918,1.3264,55.567146,37.55926,210.4468,0,7329
-0.148445,1.151646,9.718362,0.000981,-0.005264,0.008733,-23.76,16.14,-19.08,53.8706,-5.936,1.272,55.567146,37.55926,210.4468,0,7339
-0.090982,1.156435,9.708784,0.00709,-0.013206,0.010566,-23.76,16.14,-19.08,53.8706,-5.936,1.272,55.567146,37.55926,210.4468,0,7349
-0.040703,1.108549,9.63935,-0.000241,-0.002821,0.007511,-23.28,16.86,-18.36,53.8706,-5.936,1.272,55.567146,37.55926,210.4468,0,7359
-0.040703,1.108549,9.63935,-0.017345,0.012451,-0.001041,-23.28,16.86,-18.36,53.8706,-5.936,1.272,55.567146,37.55926,210.4468,0,7369
-0.086194,1.079818,9.598648,-0.031395,0.016116,-0.004706,-23.64,16.8,-18.24,52.4097,-6.0473,1.1504,55.567146,37.55926,210.4468,0,7380
-0.107742,1.000807,9.778218,-0.025897,0.010007,-0.004706,-23.64,16.8,-18.24,52.4097,-6.0473,1.1504,55.567146,37.55926,210.4468,0,7389
-0.102954,0.981653,9.763853,-0.005738,-0.010762,-0.001041,-24.54,16.2,-19.14,52.4097,-6.0473,1.1504,55.567146,37.55926,210.4468,0,7399
-0.122108,0.986441,9.732727,-0.003295,-0.013817,-0.005928,-24.54,16.2,-19.14,52.4097,-6.0473,1.1504,55.567146,37.55926,210.4468,0,7410
-0.122108,0.986441,9.732727,-0.003295,-0.013817,-0.005928,-24,16.26,-18.96,53.6682,-6.1393,1.013,55.567146,37.55926,210.4468,0,7420
-0.241822,1.005595,9.747093,-0.010625,-0.015038,-0.005928,-24,16.26,-18.96,53.6682,-6.1393,1.013,55.567146,37.55926,210.4468,0,7429
-0.287313,0.960104,9.73991,-0.011236,-0.007708,-0.00043,-24.12,16.74,-18.12,53.6682,-6.1393,1.013,55.567146,37.55926,210.4468,0,7439
-0.292102,0.905036,9.802161,-0.022232,0.005731,0.001403,-23.94,16.68,-18.3,53.6682,-6.1393,1.013,55.567146,37.55926,210.4468,0,7450
-0.292102,0.905036,9.802161,-0.022232,0.005731,0.001403,-23.94,16.68,-18.3,53.6682,-6.1393,1.013,55.567146,37.55926,210.4468,0,7459
-0.292102,0.905036,9.802161,-0.022232,0.005731,0.001403,-23.94,16.68,-18.3,53.6682,-6.1393,1.013,55.567146,37.55926,210.4468,0,7469
-0.294496,0.897853,9.814133,-0.032006,0.008175,-0.00043,-23.94,16.68,-18.84,52.1449,-6.1058,0.904,55.567146,37.55926,210.4468,0,7479
-0.294496,0.897853,9.814133,-0.032006,0.008175,-0.00043,-23.94,16.68,-18.84,52.1449,-6.1058,0.904,55.567146,37.55926,210.4468,0,7490
-0.158022,0.976864,9.77343,0.012587,-0.016871,-0.006539,-24.36,16.74,-19.26,52.1449,-6.1058,0.904,55.567146,37.55926,210.4468,0,7499
-0.158022,0.976864,9.77343,0.012587,-0.016871,-0.006539,-24.36,16.74,-19.26,52.1449,-6.1058,0.904,55.567146,37.55926,210.4468,0,7509
-0.158022,0.976864,9.77343,0.012587,-0.016871,-0.006539,-24.36,16.74,-19.26,52.1449,-6.1058,0.904,55.567146,37.55926,210.4468,0,7519
-0.260976,1.053481,9.763853,-0.003295,0.01184,-0.001041,-24.54,16.86,-18.9,53.3734,-5.9388,1.0029,55.567146,37.55926,210.4468,0,7529
-0.251399,1.043904,9.80695,0.004646,0.000233,0.002013,-24.54,16.86,-18.9,53.3734,-5.9388,1.0029,55.567146,37.55926,210.4468,0,7540
-0.251399,1.043904,9.80695,0.015642,-0.002821,0.007511,-23.82,16.2,-19.02,53.3734,-5.9388,1.0029,55.567146,37.55926,210.4468,0,7549
-0.160416,0.952921,9.818921,0.02114,-0.004654,0.005679,-23.82,16.2,-19.02,53.3734,-5.9388,1.0029,55.567146,37.55926,210.4468,0,7559
-0.098165,0.885882,9.684841,0.008311,0.006342,0.000181,-24.24,16.74,-19.26,52.3171,-5.914,1.1108,55.567146,37.55926,210.4468,0,7569
-0.155628,0.962499,9.727939,-0.001462,0.013672,-0.00043,-24.24,16.74,-19.26,52.3171,-5.914,1.1108,55.567146,37.55926,210.4468,0,7579
-0.201119,1.079818,9.811738,0.006479,0.014894,-0.005317,-24.42,17.22,-19.56,52.3171,-5.914,1.1108,55.567146,37.55926,210.4468,0,7589
-0.201119,1.079818,9.811738,0.013198,-0.004043,-0.002263,-24.6,16.86,-19.26,52.3171,-5.914,1.1108,55.567146,37.55926,210.4468,0,7599
-0.153234,1.082212,9.636956,0.013198,-0.004043,-0.002263,-24.6,16.86,-19.26,52.3171,-5.914,1.1108,55.56715,37.559265,210.3969,0,7609
-0.193936,1.101366,9.584282,0.015642,-0.010762,-0.003484,-23.22,17.64,-18.48,49.8386,-5.9043,1.1411,55.56715,37.559265,210.3969,0,7619
-0.208302,1.072635,9.634562,0.002814,-0.004654,0.011787,-23.22,17.64,-18.48,49.8386,-5.9043,1.1411,55.56715,37.559265,210.3969,0,7629
-0.208302,1.072635,9.634562,-0.010015,0.008175,0.019729,-23.58,17.7,-18.66,49.8386,-5.9043,1.1411,55.56715,37.559265,210.3969,0,7640
-0.126897,0.993624,9.57231,-0.022232,0.008785,0.016063,-24.12,16.98,-18.9,49.8386,-5.9043,1.1411,55.56715,37.559265,210.3969,0,7649
-0.181965,1.082212,9.778218,-0.022843,0.007564,-0.001041,-24.12,16.98,-18.9,49.8386,-5.9043,1.1411,55.56715,37.559265,210.3969,0,7659
-0.148445,1.091789,9.809344,-0.022843,0.007564,-0.001041,-24.18,16.5,-19.38,52.2888,-5.9857,1.1165,55.56715,37.559265,210.3969,0,7669
-0.148445,1.091789,9.809344,-0.005738,-0.010151,-0.010815,-24.18,16.5,-19.38,52.2888,-5.9857,1.1165,55.56715,37.559265,210.3969,0,7679
-0.172388,1.063058,9.634562,-0.004517,-0.017482,-0.015702,-24.54,16.44,-19.08,52.2888,-5.9857,1.1165,55.56715,37.559265,210.3969,0,7689
-0.241822,1.034327,9.677659,-0.025897,0.003288,-0.013869,-25.2,16.44,-19.38,52.2888,-5.9857,1.1165,55.56715,37.559265,210.3969,0,7699
-0.210696,0.972076,9.866806,-0.029562,0.008785,0.003846,-25.2,16.44,-19.38,52.2888,-5.9857,1.1165,55.56715,37.559265,210.3969,0,7710
-0.210696,0.972076,9.866806,-0.014901,-0.008319,0.009344,-24.6,16.92,-19.62,53.2319,-6.0298,1.0733,55.56715,37.559265,210.3969,0,7719
-0.040703,0.964893,9.876384,-0.015512,-0.013206,-0.003484,-24.6,16.92,-19.62,53.2319,-6.0298,1.0733,55.56715,37.559265,210.3969,0,7729
-0.129291,0.998413,9.972155,-0.004517,-0.015038,-0.018756,-23.64,16.98,-19.26,53.2319,-6.0298,1.0733,55.56715,37.559265,210.3969,0,7739
-0.234639,0.979258,10.082292,0.004035,-0.018703,-0.012647,-23.64,16.98,-19.26,53.2319,-6.0298,1.0733,55.56715,37.559265,210.3969,0,7749
-0.234639,0.979258,10.082292,0.004035,-0.018703,-0.012647,-24.24,16.92,-19.14,52.2662,-6.0058,1.084,55.56715,37.559265,210.3969,0,7759
-0.208302,0.964893,9.881172,0.02114,-0.015649,-0.003484,-24.24,16.92,-19.14,52.2662,-6.0058,1.084,55.56715,37.559265,210.3969,0,7769
-0.22985,0.883487,9.768641,0.011366,-0.017482,-0.002874,-24.72,16.86,-19.02,52.2662,-6.0058,1.084,55.56715,37.559265,210.3969,0,7779
-0.272947,0.866728,9.885961,0.010144,0.001455,0.0069,-24.72,16.86,-19.02,52.2662,-6.0058,1.084,55.56715,37.559265,210.3969,0,7789
-0.189148,0.871516,9.759064,0.018696,-0.001599,0.015452,-24.12,16.62,-19.32,52.2626,-5.9638,1.0343,55.56715,37.559265,210.3969,0,7799
-0.189148,0.871516,9.759064,0.039466,-0.011373,0.017896,-24.12,16.62,-19.32,52.2626,-5.9638,1.0343,55.56715,37.559265,210.3969,0,7809
-0.205908,0.943344,9.70639,0.038855,-0.001599,0.014842,-23.88,16.62,-19.08,52.2626,-5.9638,1.0343,55.56715,37.559265,210.3969,0,7819
-0.198725,1.048692,9.744699,0.046796,-0.000988,0.013009,-23.88,16.62,-19.08,52.2626,-5.9638,1.0343,55.56715,37.559265,210.3969,0,7829
-0.198725,1.048692,9.744699,0.037022,0.002066,0.012398,-23.58,16.44,-19.02,53.8209,-5.8534,1.0695,55.56715,37.559265,210.3969,0,7839
-0.117319,1.146858,9.469357,0.009533,0.00512,0.005679,-23.34,16.5,-19.5,53.8209,-5.8534,1.0695,55.56715,37.559265,210.3969,0,7849
-0.191542,1.213897,9.505271,-0.017345,0.014283,0.002013,-23.34,16.5,-19.5,53.8209,-5.8534,1.0695,55.56715,37.559265,210.3969,0,7859
-0.158022,1.206715,9.708784,-0.010015,0.001455,0.003846,-23.82,16.5,-18.9,53.8209,-5.8534,1.0695,55.56715,37.559265,210.3969,0,7871
-0.158022,1.206715,9.708784,-0.010015,0.001455,0.003846,-23.82,16.5,-18.9,53.8209,-5.8534,1.0695,55.56715,37.559265,210.3969,0,7879
-0.117319,1.082212,9.651321,-0.003295,-0.004654,0.008122,-23.76,17.1,-18.06,52.4524,-5.8831,1.0932,55.56715,37.559265,210.3969,0,7890
-0.158022,1.05827,9.627379,-0.019178,-0.004654,0.003846,-23.64,17.34,-18.42,52.4524,-5.8831,1.0932,55.56715,37.559265,210.3969,0,7899
-0.174782,1.091789,9.866806,-0.023454,-0.00221,0.010566,-23.64,17.34,-18.42,52.4524,-5.8831,1.0932,55.56715,37.559265,210.3969,0,7909
-0.102954,1.027144,9.792584,-0.015512,-0.00221,0.016063,-23.4,17.4,-18.3,52.4524,-5.8831,1.0932,55.56715,37.559265,210.3969,0,7919
-0.102954,1.027144,9.792584,-0.01368,-0.003432,0.011176,-23.4,17.4,-18.3,52.4524,-5.8831,1.0932,55.56715,37.559265,210.3969,0,7929
-0.174782,0.969681,9.797373,-0.011847,-0.001599,0.000792,-23.88,17.16,-18.24,52.3779,-6.0434,1.0701,55.56715,37.559265,210.3969,0,7940
-0.208302,0.955316,9.883567,0.002203,-0.005264,0.003235,-23.46,17.4,-18.36,52.3779,-6.0434,1.0701,55.56715,37.559265,210.3969,0,7949
-0.150839,0.905036,9.799767,0.002203,-0.005264,0.003235,-23.46,17.4,-18.36,52.3779,-6.0434,1.0701,55.56715,37.559265,210.3969,0,7959
-0.150839,0.905036,9.799767,0.004035,0.003288,0.007511,-24.06,17.16,-18.9,52.3779,-6.0434,1.0701,55.56715,37.559265,210.3969,0,7969
-0.189148,0.919402,9.730332,-0.003295,0.01184,0.002013,-24.06,17.16,-18.9,52.3779,-6.0434,1.0701,55.56715,37.559265,210.3969,0,7979
-0.148445,1.067847,9.835681,-0.000241,0.000844,-0.002874,-24.42,17.1,-19.14,52.2221,-6.0526,1.0288,55.56715,37.559265,210.3969,0,7989
-0.117319,1.113338,9.814133,0.012587,-0.011373,-0.004706,-24.42,17.1,-19.14,52.2221,-6.0526,1.0288,55.56715,37.559265,210.3969,0,7999
-0.141262,1.106155,9.75667,0.012587,-0.011984,-0.004095,-24.66,16.92,-19.08,52.2221,-6.0526,1.0288,55.56715,37.559265,210.3969,0,8009
-0.167599,1.039115,9.794978,0.004035,-0.007097,-0.005317,-24.36,16.98,-19.2,52.2221,-6.0526,1.0288,55.56715,37.559265,210.3969,0,8019
-0.167599,1.039115,9.794978,-0.005128,0.005731,-0.00043,-24.36,16.98,-19.2,52.2221,-6.0526,1.0288,55.56715,37.559265,210.3969,0,8029
-0.131685,0.905036,9.842864,0.003425,0.015505,0.005679,-23.4,16.56,-19.32,51.0564,-5.995,0.9885,55.56715,37.559265,210.3969,0,8039
-0.222668,0.770957,9.759064,0.004035,0.017948,0.010566,-23.4,16.56,-19.32,51.0564,-5.995,0.9885,55.56715,37.559265,210.3969,0,8049
-0.328016,0.933767,9.850046,0.02114,0.026501,0.011176,-23.22,15.54,-19.44,51.0564,-5.995,0.9885,55.56715,37.559265,210.3969,0,8059
-0.26337,1.089395,9.787795,0.052294,0.010618,0.009955,-23.22,15.54,-19.44,51.0564,-5.995,0.9885,55.56715,37.559265,210.3969,0,8069
-0.26337,1.089395,9.787795,0.066955,-0.013206,0.015452,-23.7,16.32,-18.9,53.7265,-5.9636,0.9655,55.56715,37.559265,210.3969,0,8079
-0.215485,1.259389,9.529214,0.040076,-0.006486,0.007511,-23.4,16.56,-18.96,53.7265,-5.9636,0.9655,55.56715,37.559265,210.3969,0,8089
-0.208302,1.283331,9.505271,0.040076,-0.006486,0.007511,-23.4,16.56,-18.96,53.7265,-5.9636,0.9655,55.56715,37.559265,210.3969,0,8099
-0.208302,1.283331,9.505271,-0.011847,0.010007,0.002013,-23.4,16.98,-18.96,53.7265,-5.9636,0.9655,55.56715,37.559265,210.3969,0,8109
-0.234639,1.106155,9.751882,-0.031395,0.030166,0.004457,-23.4,16.98,-18.96,53.7265,-5.9636,0.9655,55.56715,37.559265,210.3969,0,8119
-0.227456,0.909824,9.842864,-0.02834,0.028333,0.008122,-23.4,16.86,-18.54,51.0786,-6.0112,1.0529,55.56715,37.559265,210.3969,0,8129
-0.28013,0.87391,9.950606,-0.010015,0.01917,0.005068,-23.4,16.86,-18.54,51.0786,-6.0112,1.0529,55.56715,37.559265,210.3969,0,8139
-0.222668,0.902642,9.883567,0.020529,-0.003432,0.002624,-23.34,16.5,-18.66,51.0786,-6.0112,1.0529,55.56715,37.559265,210.3969,0,8149
-0.222668,0.902642,9.883567,0.049239,-0.029699,0.017896,-23.34,16.5,-18.66,51.0786,-6.0112,1.0529,55.56715,37.559265,210.3969,0,8159
-0.122108,0.964893,9.581888,0.025416,-0.025423,0.014842,-23.7,16.44,-19.2,53.7654,-6.0585,1.1544,55.56715,37.559265,210.3969,0,8169
-0.203513,1.101366,9.498088,-0.002073,-0.011984,0.014842,-23.7,16.44,-19.2,53.7654,-6.0585,1.1544,55.56715,37.559265,210.3969,0,8179
-0.186753,1.139675,9.665688,-0.009404,-0.010762,0.020339,-24,16.26,-19.08,53.7654,-6.0585,1.1544,55.56715,37.559265,210.3969,0,8190
-0.126897,1.166012,9.682447,-0.007571,-0.019314,0.014842,-24,16.26,-19.08,53.7654,-6.0585,1.1544,55.56715,37.559265,210.3969,0,8199
-0.126897,1.166012,9.682447,-0.007571,-0.019314,0.014842,-23.94,16.32,-18.6,53.772,-6.0408,1.1512,55.56715,37.559265,210.3969,0,8209
-0.105348,1.156435,9.703996,-0.014291,-0.011984,-0.001652,-23.94,16.32,-18.6,53.772,-6.0408,1.1512,55.56715,37.559265,210.3969,0,8219
-0.069434,1.101366,9.797373,-0.008182,-0.011984,-0.011426,-24,16.8,-19.14,53.772,-6.0408,1.1512,55.56715,37.559265,210.3969,0,8229
-0.011971,1.031933,9.747093,-0.00696,0.000844,-0.010815,-23.46,16.74,-19.5,51.0784,-6.0778,1.1162,55.56715,37.559265,210.3969,0,8240
-0.062251,1.012778,9.692024,-0.00696,0.000844,-0.010815,-23.46,16.74,-19.5,51.0784,-6.0778,1.1162,55.56715,37.559265,210.3969,0,8249
-0.062251,1.012778,9.692024,-0.018567,0.014894,-0.013258,-23.46,16.74,-19.5,51.0784,-6.0778,1.1162,55.56715,37.559265,210.3969,0,8259
-0.107742,0.981653,9.852441,-0.016734,0.020392,-0.01448,-23.04,16.44,-19.08,51.0784,-6.0778,1.1162,55.56715,37.559265,210.3969,0,8269
-0.05028,0.986441,9.80695,0.001592,0.010007,-0.011426,-23.04,16.44,-19.08,51.0784,-6.0778,1.1162,55.56715,37.559265,210.3969,0,8279
-0.074223,1.060664,9.727939,0.004646,-0.003432,-0.013258,-23.76,16.5,-18.54,52.1739,-6.1428,1.0066,55.56715,37.559265,210.3969,0,8289
-0.146051,1.031933,9.826104,-0.011236,-0.011373,-0.017534,-23.76,16.5,-18.54,52.1739,-6.1428,1.0066,55.56715,37.559265,210.3969,0,8299
-0.146051,1.031933,9.826104,-0.023454,0.003288,-0.004706,-24.12,16.98,-18.42,52.1739,-6.1428,1.0066,55.56715,37.559265,210.3969,0,8309
-0.184359,0.986441,9.900327,-0.02773,0.002677,0.002624,-23.76,17.28,-18.9,52.1739,-6.1428,1.0066,55.56715,37.559265,210.3969,0,8320
-0.249005,0.955316,9.933846,-0.019178,0.001455,-0.001652,-23.76,17.28,-18.9,52.1739,-6.1428,1.0066,55.56715,37.559265,210.3969,0,8329
-0.249005,0.955316,9.933846,-0.019178,0.001455,-0.001652,-24.12,17.1,-19.44,52.125,-6.1037,0.8565,55.56715,37.559265,210.3969,0,8339
-0.344776,0.94095,9.991309,0.005257,0.000844,-0.001652,-24.12,17.1,-19.44,52.125,-6.1037,0.8565,55.56715,37.559265,210.3969,0,8349
-0.294496,0.883487,9.792584,0.026637,-0.004043,0.005679,-24.36,16.8,-18.54,52.125,-6.1037,0.8565,55.56715,37.559265,210.3969,0,8359
-0.234639,0.92419,9.677659,0.039466,-0.004654,0.014231,-24.36,16.8,-18.54,52.125,-6.1037,0.8565,55.56715,37.559265,210.3969,0,8369
-0.193936,0.97447,9.720756,0.032135,0.001455,0.014842,-24.24,16.08,-18.3,53.8116,-6.0071,0.8763,55.56715,37.559265,210.3969,0,8379
-0.193936,0.97447,9.720756,0.032135,0.013672,0.014842,-24.24,16.08,-18.3,53.8116,-6.0071,0.8763,55.56715,37.559265,210.3969,0,8389
-0.179571,1.127703,9.658504,0.04252,0.007564,0.014231,-24.06,16.2,-18.24,53.8116,-6.0071,0.8763,55.56715,37.559265,210.3969,0,8400
-0.275342,1.175589,9.545974,0.050461,-0.00221,0.008733,-24.06,16.2,-18.24,53.8116,-6.0071,0.8763,55.56715,37.559265,210.3969,0,8409
-0.292102,1.27136,9.534002,0.038855,0.006953,0.015452,-24,16.38,-18.54,53.7463,-5.9497,0.9971,55.56715,37.559265,210.3969,0,8419
-0.232245,1.28812,9.502876,0.023583,0.013672,0.016674,-24,16.38,-18.54,53.7463,-5.9497,0.9971,55.56715,37.559265,210.3969,0,8429
-0.232245,1.28812,9.502876,0.016253,0.010618,0.011787,-24.06,16.14,-19.38,53.7463,-5.9497,0.9971,55.56715,37.559265,210.3969,0,8439
-0.146051,1.242629,9.385557,-0.012458,0.005731,-0.009593,-24.06,16.14,-19.38,53.7463,-5.9497,0.9971,55.56715,37.559265,210.3969,0,8449
-0.138868,1.166012,9.514848,-0.040558,-0.000378,-0.02853,-23.76,16.2,-19.5,53.7315,-6.0857,1.1038,55.56715,37.559265,210.3969,0,8459
-0.158022,1.05827,9.75667,-0.050332,-0.002821,-0.032195,-23.76,16.2,-19.5,53.7315,-6.0857,1.1038,55.56715,37.559265,210.3969,0,8469
-0.205908,1.000807,9.828498,-0.048499,0.005731,-0.024865,-23.88,16.26,-19.26,53.7315,-6.0857,1.1038,55.56715,37.559265,210.3969,0,8479
-0.205908,1.000807,9.828498,-0.046056,-0.000378,-0.026697,-24.18,16.5,-19.02,52.1784,-6.2848,1.1552,55.56715,37.559265,210.3969,0,8489
-0.265764,0.931373,9.957788,-0.046056,-0.000378,-0.026697,-24.18,16.5,-19.02,52.1784,-6.2848,1.1552,55.56715,37.559265,210.3969,0,8499
-0.191542,0.92419,10.055954,-0.017345,-0.014427,-0.002263,-23.88,17.04,-19.14,52.1784,-6.2848,1.1552,55.56715,37.559265,210.3969,0,8509
-0.191542,0.92419,10.055954,0.009533,-0.019925,0.009955,-23.88,17.04,-19.14,52.1784,-6.2848,1.1552,55.56715,37.559265,210.3969,0,8520
-0.117319,0.902642,9.926663,0.015031,-0.022369,0.01362,-24.18,17.58,-18.66,50.7592,-6.2529,1.1486,55.56715,37.559265,210.3969,0,8529
-0.117319,0.902642,9.926663,0.015031,-0.022369,0.01362,-24.18,17.58,-18.66,50.7592,-6.2529,1.1486,55.56715,37.559265,210.3969,0,8539
-0.117319,0.902642,9.926663,0.015031,-0.022369,0.01362,-24.18,17.58,-18.66,50.7592,-6.2529,1.1486,55.56715,37.559265,210.3969,0,8549
-0.167599,0.92419,9.814133,0.008922,-0.017482,0.000181,-24.48,17.4,-18.54,50.7592,-6.2529,1.1486,55.56715,37.559265,210.3969,0,8559
-0.177176,0.852362,9.775824,0.025416,0.002677,0.006289,-24.48,17.4,-18.54,50.7592,-6.2529,1.1486,55.56715,37.559265,210.3969,0,8569
-0.177176,0.852362,9.775824,0.02847,-0.00221,0.008733,-23.88,16.38,-18.78,53.6612,-6.2554,1.1161,55.56715,37.559265,210.3969,0,8579
-0.177176,0.926584,9.802161,0.050461,-0.001599,0.024005,-23.88,16.38,-18.78,53.6612,-6.2554,1.1161,55.56715,37.559265,210.3969,0,8589
-0.064645,1.084607,9.531608,0.057792,-0.007097,0.025226,-24.06,16.2,-19.08,53.6612,-6.2554,1.1161,55.56715,37.55927,210.4133,0,8599
-0.040703,1.240234,9.45978,0.044352,-0.000988,0.022172,-24.06,16.2,-19.08,53.6612,-6.2554,1.1161,55.56715,37.55927,210.4133,0,8609
-0.040703,1.240234,9.45978,0.022361,-0.00221,0.0069,-24.06,16.14,-19.44,53.6176,-6.3329,1.0948,55.56715,37.55927,210.4133,0,8619
-0.043097,1.364737,9.486116,0.007701,-0.002821,0.002013,-24.06,16.14,-19.44,53.6176,-6.3329,1.0948,55.56715,37.55927,210.4133,0,8629
-0.019154,1.3384,9.431048,-0.01368,-0.011373,-0.00715,-24.72,15.72,-19.08,53.6176,-6.3329,1.0948,55.56715,37.55927,210.4133,0,8639
-0.155628,1.280937,9.507666,-0.047277,-0.00954,-0.019367,-24.72,15.72,-19.08,53.6176,-6.3329,1.0948,55.56715,37.55927,210.4133,0,8649
-0.191542,1.122915,9.809344,-0.066214,-0.00221,-0.020589,-24.54,16.2,-18.54,54.6726,-6.4229,1.0884,55.56715,37.55927,210.4133,0,8659
-0.191542,1.122915,9.809344,-0.063771,0.010007,-0.016313,-24.54,16.2,-18.54,54.6726,-6.4229,1.0884,55.56715,37.55927,210.4133,0,8669
-0.155628,1.039115,9.921875,-0.048499,0.001455,-0.011426,-24.12,16.74,-18.54,54.6726,-6.4229,1.0884,55.56715,37.55927,210.4133,0,8679
-0.232245,0.938556,9.943423,-0.048499,0.001455,-0.011426,-24.12,16.74,-18.54,54.6726,-6.4229,1.0884,55.56715,37.55927,210.4133,0,8689
-0.265764,0.950527,10.015251,-0.019178,-0.006486,-0.004706,-24,16.14,-19.02,53.6076,-6.3388,1.0778,55.56715,37.55927,210.4133,0,8700
-0.265764,0.950527,10.015251,0.008311,-0.004043,0.007511,-24,16.14,-19.02,53.6076,-6.3388,1.0778,55.56715,37.55927,210.4133,0,8709
-0.189148,0.936161,9.754275,0.029081,-0.010151,0.013009,-23.64,16.5,-18.66,53.6076,-6.3388,1.0778,55.56715,37.55927,210.4133,0,8719
-0.225062,1.034327,9.646533,0.024805,-0.011373,0.010566,-23.64,16.5,-18.66,53.6076,-6.3388,1.0778,55.56715,37.55927,210.4133,0,8729
-0.258582,1.070241,9.718362,0.015031,0.002677,-0.002263,-23.52,16.5,-18.18,52.2854,-6.2774,1.074,55.56715,37.55927,210.4133,0,8739
-0.258582,1.070241,9.718362,0.013198,0.012451,-0.004095,-23.52,16.5,-18.18,52.2854,-6.2774,1.074,55.56715,37.55927,210.4133,0,8750
-0.186753,1.094184,9.701602,0.006479,-0.000378,-0.015091,-24.12,16.32,-18.6,52.2854,-6.2774,1.074,55.56715,37.55927,210.4133,0,8759
-0.141262,1.103761,9.601042,0.001592,-0.004043,-0.022421,-24.18,16.5,-18.84,52.1186,-6.3279,1.0601,55.56715,37.55927,210.4133,0,8770
-0.141262,1.103761,9.601042,0.001592,-0.004043,-0.022421,-24.18,16.5,-18.84,52.1186,-6.3279,1.0601,55.56715,37.55927,210.4133,0,8779
-0.146051,1.084607,9.617802,-0.005128,-0.00893,-0.023032,-24.6,16.38,-19.02,52.1186,-6.3279,1.0601,55.56715,37.55927,210.4133,0,8789
-0.222668,0.972076,9.672871,-0.010015,-0.000378,0.002013,-24.6,16.38,-19.02,52.1186,-6.3279,1.0601,55.56715,37.55927,210.4133,0,8799
-0.222668,0.972076,9.672871,-0.010015,-0.000378,0.002013,-24.18,16.74,-19.08,52.1186,-6.3279,1.0601,55.56715,37.55927,210.4133,0,8809
-0.244216,1.022355,9.725544,-0.01368,0.004509,0.010566,-24.18,16.74,-19.08,52.1186,-6.3279,1.0601,55.56715,37.55927,210.4133,0,8819
-0.22985,0.933767,9.838076,-0.01368,0.015505,0.02095,-24.18,17.04,-19.26,52.1288,-6.313,1.0692,55.56715,37.55927,210.4133,0,8829
-0.172388,0.85715,9.783007,-0.002073,0.010618,0.027059,-24.18,17.04,-19.26,52.1288,-6.313,1.0692,55.56715,37.55927,210.4133,0,8839
-0.162811,0.912219,9.787795,0.003425,-0.002821,0.018507,-23.94,16.86,-19.14,52.1288,-6.313,1.0692,55.56715,37.55927,210.4133,0,8849
-0.162811,0.912219,9.787795,0.004646,-0.004043,0.000792,-23.94,16.86,-19.14,52.1288,-6.313,1.0692,55.56715,37.55927,210.4133,0,8859
-0.174782,0.955316,9.842864,0.005257,0.000233,-0.00715,-24.06,16.86,-19.2,52.2139,-6.1906,1.1451,55.56715,37.55927,210.4133,0,8869
-0.102954,1.022355,9.759064,0.006479,-0.00954,-0.005928,-24.06,16.86,-19.2,52.2139,-6.1906,1.1451,55.56715,37.55927,210.4133,0,8879
-0.122108,1.072635,9.730332,0.002814,-0.010151,-0.003484,-23.82,16.8,-19.08,52.2139,-6.1906,1.1451,55.56715,37.55927,210.4133,0,8890
-0.184359,1.180378,9.811738,0.00037,-0.004043,-0.002263,-23.82,16.8,-19.08,52.2139,-6.1906,1.1451,55.56715,37.55927,210.4133,0,8899
-0.184359,1.180378,9.811738,0.005868,-0.004654,0.005679,-24,16.32,-19.2,53.7719,-6.0296,1.1393,55.56715,37.55927,210.4133,0,8909
-0.107742,1.089395,9.804555,0.008311,-0.010762,0.014231,-24,16.32,-19.2,53.7719,-6.0296,1.1393,55.56715,37.55927,210.4133,0,8919
-0.074223,1.091789,9.682447,-0.010015,0.004509,0.004457,-23.94,16.62,-19.2,53.7719,-6.0296,1.1393,55.56715,37.55927,210.4133,0,8929
-0.148445,1.043904,9.818921,-0.010015,0.004509,0.004457,-23.94,16.62,-19.2,53.7719,-6.0296,1.1393,55.56715,37.55927,210.4133,0,8939
-0.148445,1.043904,9.818921,-0.014901,0.004509,-0.004706,-23.64,16.62,-19.5,52.2601,-6.0145,1.0785,55.56715,37.55927,210.4133,0,8949
-0.095771,1.075029,9.838076,0.008922,-0.007097,-0.008982,-23.64,16.62,-19.5,52.2601,-6.0145,1.0785,55.56715,37.55927,210.4133,0,8959
-0.098165,1.063058,9.694419,0.025416,-0.019314,-0.012647,-24.24,16.32,-19.62,52.2601,-6.0145,1.0785,55.56715,37.55927,210.4133,0,8970
-0.210696,1.108549,9.61062,0.016253,-0.00893,0.000181,-24.24,16.32,-19.62,52.2601,-6.0145,1.0785,55.56715,37.55927,210.4133,0,8979
-0.165205,1.106155,9.581888,0.006479,0.004509,0.017896,-23.88,16.38,-18.6,53.6965,-6.0517,0.9878,55.56715,37.55927,210.4133,0,8989
-0.165205,1.106155,9.581888,-0.002684,0.010618,0.024005,-23.88,16.38,-18.6,53.6965,-6.0517,0.9878,55.56715,37.55927,210.4133,0,8999
-0.119714,1.082212,9.519637,-0.02101,0.011229,0.017285,-23.94,16.68,-18.3,53.6965,-6.0517,0.9878,55.56715,37.55927,210.4133,0,9010
-0.189148,1.055875,9.696813,-0.02773,0.003899,0.001403,-23.94,16.68,-18.3,53.6965,-6.0517,0.9878,55.56715,37.55927,210.4133,0,9019
-0.189148,1.096578,9.866806,-0.026508,0.002677,-0.010204,-24.54,16.32,-19.02,54.7241,-6.1498,0.9248,55.56715,37.55927,210.4133,0,9029
