ACCELEROMETER X (m/s²),ACCELEROMETER Y (m/s²),ACCELEROMETER Z (m/s²),GRAVITY X (m/s²),GRAVITY Y (m/s²),GRAVITY Z (m/s²),GYROSCOPE X (rad/s),GYROSCOPE Y (rad/s),GYROSCOPE Z (rad/s),MAGNETIC FIELD X (μT),MAGNETIC FIELD Y (μT),MAGNETIC FIELD Z (μT),ORIENTATION Z (azimuth °),ORIENTATION X (pitch °),ORIENTATION Y (roll °),ATMOSPHERIC PRESSURE (hPa),LOCATION Latitude : ,LOCATION Longitude : ,LOCATION Altitude ( m),LOCATION Altitude-google ( m),LOCATION Altitude-atmospheric pressure ( m),LOCATION Speed ( m/s),LOCATION Accuracy ( m),LOCATION ORIENTATION (°),Satellites in range,GPS NMEA,Time since start in ms ,YYYY-MO-DD HH-MI-SS_SSS
0.603357,1.359948,9.244295,0.63115,0.28985,9.782025,-2.06E-4,0.084233,-0.142655,-1961.34,-1935.9,1857.72,133.7047,-1.8308,-3.8749,984.8137,55.855846,37.484264,176.6367,NaN,,0.0401,2.0,269.3348,24 / 26,,11,2021-05-20 21:44:42:774
0.790111,1.611347,8.777411,0.63115,0.28985,9.782025,-2.06E-4,0.084233,-0.142655,-1960.98,-1935.12,1858.5,133.7047,-1.8308,-3.8749,984.8137,55.855846,37.484264,176.6367,NaN,,0.0401,2.0,269.3348,24 / 26,,21,2021-05-20 21:44:42:784
1.096578,2.071048,8.566715,0.616616,0.294544,9.782812,0.027894,0.006654,-0.118221,-1960.98,-1935.12,1858.5,133.7047,-1.8308,-3.8749,984.8137,55.855846,37.484264,176.6367,NaN,,0.0401,2.0,269.3348,24 / 26,,31,2021-05-20 21:44:42:794
1.096578,2.071048,8.566715,0.616616,0.294544,9.782812,0.036446,-0.069094,-0.131049,-1960.44,-1935.0,1857.78,133.7739,-1.7211,-3.6066,984.8137,55.855846,37.484264,176.6367,NaN,,0.0401,2.0,269.3348,24 / 26,,41,2021-05-20 21:44:42:804
1.168406,2.336812,8.612206,0.626547,0.305627,9.781841,0.026061,-0.089863,-0.172588,-1960.44,-1935.0,1857.78,133.7739,-1.7211,-3.6066,984.8137,55.855846,37.484264,176.6367,NaN,,0.0401,2.0,269.3348,24 / 26,,51,2021-05-20 21:44:42:814
1.091789,2.396669,8.885154,0.626547,0.305627,9.781841,0.005903,-0.107578,-0.203742,-1959.48,-1935.84,1856.94,133.7739,-1.7211,-3.6066,984.8137,55.855846,37.484264,176.6367,NaN,,0.0401,2.0,269.3348,24 / 26,,61,2021-05-20 21:44:42:824
0.833208,2.446949,9.148524,0.646093,0.313714,9.780313,-0.017921,-0.063596,-0.231842,-1959.48,-1935.84,1856.94,133.7739,-1.7211,-3.6066,984.8137,55.855846,37.484264,176.6367,NaN,,0.0401,2.0,269.3348,24 / 26,,71,2021-05-20 21:44:42:834
0.533923,2.221887,9.304152,0.646093,0.313714,9.780313,-0.042966,-0.015338,-0.220846,-1959.96,-1936.2,1857.3,133.7609,-1.8332,-3.7795,984.8137,55.855846,37.484264,176.6367,NaN,,0.0401,2.0,269.3348,24 / 26,,81,2021-05-20 21:44:42:844
0.533923,2.221887,9.304152,0.651665,0.31421,9.779928,-0.06679,0.028034,-0.194579,-1959.96,-1936.2,1857.3,133.7609,-1.8332,-3.7795,984.8137,55.855846,37.48426,176.4417,NaN,,0.4527,1.5,269.3348,24 / 27,,91,2021-05-20 21:44:42:854
0.423787,2.286533,9.517242,0.651665,0.31421,9.779928,-0.102831,0.100727,-0.148153,-1960.86,-1935.42,1858.44,133.7609,-1.8332,-3.7795,984.8137,55.855846,37.48426,176.4417,NaN,,0.4527,1.5,269.3348,24 / 27,,101,2021-05-20 21:44:42:864
0.521952,2.437372,9.634562,0.635571,0.301154,9.781398,-0.129098,0.100727,-0.131049,-1960.86,-1935.42,1858.44,133.7609,-1.8332,-3.7795,984.8137,55.855846,37.48426,176.4417,NaN,,0.4527,1.5,269.3348,24 / 27,,111,2021-05-20 21:44:42:874
0.656031,2.535537,10.00328,0.635571,0.301154,9.781398,-0.126655,0.10989,-0.140212,-1960.44,-1935.48,1858.38,133.7421,-1.7598,-3.7177,984.8066,55.855846,37.48426,176.4417,NaN,,0.4527,1.5,269.3348,24 / 27,,121,2021-05-20 21:44:42:884
1.087001,2.305687,10.170879,0.614529,0.281872,9.783318,-0.098555,0.079347,-0.187859,-1960.44,-1935.48,1858.38,133.7421,-1.7598,-3.7177,984.8066,55.855846,37.48426,176.4417,NaN,,0.4527,1.5,269.3348,24 / 27,,131,2021-05-20 21:44:42:894
1.087001,2.305687,10.170879,0.614529,0.281872,9.783318,-0.106496,0.024369,-0.262996,-1960.62,-1935.48,1857.3,133.7421,-1.7598,-3.7177,984.8066,55.855846,37.48426,176.4417,NaN,,0.4527,1.5,269.3348,24 / 27,,142,2021-05-20 21:44:42:905
1.213897,2.004008,10.767054,0.601028,0.269324,9.784509,-0.135818,0.052468,-0.299037,-1960.62,-1935.48,1857.3,133.7421,-1.7598,-3.7177,984.8066,55.855846,37.48426,176.4417,NaN,,0.4527,1.5,269.3348,24 / 27,,151,2021-05-20 21:44:42:914
1.120521,1.637684,11.559559,0.601028,0.269324,9.784509,-0.171859,0.155094,-0.308811,-1960.56,-1935.36,1857.66,133.7375,-1.5737,-3.5151,984.8066,55.855846,37.48426,176.4417,NaN,,0.4527,1.5,269.3348,24 / 27,,161,2021-05-20 21:44:42:924
0.960104,1.259389,12.186859,0.584455,0.247993,9.786077,-0.160863,0.23695,-0.305145,-1960.56,-1935.36,1857.66,133.7375,-1.5737,-3.5151,984.8066,55.855846,37.48426,176.4417,NaN,,0.4527,1.5,269.3348,24 / 27,,171,2021-05-20 21:44:42:934
0.960104,1.259389,12.186859,0.584455,0.247993,9.786077,-0.071066,0.368286,-0.269104,-1960.26,-1935.24,1857.96,133.7375,-1.5737,-3.5151,984.8066,55.855846,37.48426,176.4417,NaN,,0.4527,1.5,269.3348,24 / 27,,181,2021-05-20 21:44:42:944
0.498009,1.015173,12.577126,0.529753,0.227696,9.789684,0.021174,0.454418,-0.208629,-1960.26,-1935.24,1857.96,133.7375,-1.5737,-3.5151,984.8066,55.855846,37.48426,176.4417,NaN,,0.4527,1.5,269.3348,24 / 27,,192,2021-05-20 21:44:42:955
0.215485,1.2546,12.261082,0.529753,0.227696,9.789684,0.079207,0.511839,-0.14571,-1960.2,-1934.22,1857.84,133.8144,-1.3304,-3.0974,984.8066,55.855846,37.48426,176.4417,NaN,,0.4527,1.5,269.3348,24 / 27,,201,2021-05-20 21:44:42:964
0.038308,1.400651,11.662513,0.439865,0.237604,9.793899,0.093867,0.548491,-0.084012,-1960.2,-1934.22,1857.84,133.8144,-1.3304,-3.0974,984.8066,55.855846,37.48426,176.4417,NaN,,0.4527,1.5,269.3348,24 / 27,,211,2021-05-20 21:44:42:974
0.038308,1.400651,11.662513,0.439865,0.237604,9.793899,0.06027,0.578423,-3.24E-4,-1959.24,-1934.22,1858.26,133.8144,-1.3304,-3.0974,984.8005,55.855846,37.48426,176.4417,NaN,,0.4527,1.5,269.3348,24 / 27,,221,2021-05-20 21:44:42:984
-0.407027,1.407834,11.78462,0.332011,0.257131,9.797654,0.06027,0.578423,-3.24E-4,-1959.24,-1934.22,1858.26,133.8144,-1.3304,-3.0974,984.8005,55.855846,37.48426,176.4417,NaN,,0.4527,1.5,269.3348,24 / 27,,231,2021-05-20 21:44:42:994
-0.040703,1.316851,11.530828,0.332011,0.257131,9.797654,0.037668,0.579034,0.110243,-1958.82,-1934.88,1859.16,134.4342,-1.5025,-1.9408,984.8005,55.855846,37.48426,176.4417,NaN,,0.4527,1.5,269.3348,24 / 27,,242,2021-05-20 21:44:43:005
-0.328016,1.482056,11.051972,0.218424,0.267064,9.80058,-0.011812,0.63218,0.184158,-1958.82,-1934.88,1859.16,134.4342,-1.5025,-1.9408,984.8005,55.855846,37.48426,176.4417,NaN,,0.4527,1.5,269.3348,24 / 27,,251,2021-05-20 21:44:43:014
0.272947,1.66881,10.956202,0.218424,0.267064,9.80058,-0.074121,0.635234,0.257461,-1958.7,-1935.18,1859.5198,134.4342,-1.5025,-1.9408,984.8005,55.855846,37.48426,176.4417,NaN,,0.4527,1.5,269.3348,24 / 27,,261,2021-05-20 21:44:43:024
0.272947,1.66881,10.956202,0.096349,0.256642,9.802817,-0.123601,0.535052,0.289226,-1958.7,-1935.18,1859.5198,134.4342,-1.5025,-1.9408,984.8005,55.855846,37.48426,176.4417,NaN,,0.4527,1.5,269.3348,24 / 27,,272,2021-05-20 21:44:43:035
0.160416,1.91542,10.649734,0.096349,0.256642,9.802817,-0.175524,0.417766,0.305109,-1958.46,-1935.24,1858.86,135.0913,-1.4996,-0.5631,984.8005,55.855846,37.48426,176.4417,NaN,,0.4527,1.5,269.3348,24 / 27,,281,2021-05-20 21:44:43:044
0.435758,1.956123,10.697619,0.010956,0.226712,9.804023,-0.262267,0.240004,0.287394,-1958.46,-1935.24,1858.86,135.0913,-1.4996,-0.5631,984.8005,55.855846,37.48426,176.4417,NaN,,0.4527,1.5,269.3348,24 / 27,,291,2021-05-20 21:44:43:054
0.66082,1.606559,11.652935,0.010956,0.226712,9.804023,-0.308082,0.09584,0.269679,-1957.74,-1934.94,1858.2,135.0913,-1.4996,-0.5631,984.8005,55.855846,37.48426,176.4417,NaN,,0.4527,1.5,269.3348,24 / 27,,301,2021-05-20 21:44:43:064
0.854756,0.775745,12.818948,-0.017031,0.171958,9.805127,-0.323964,0.047582,0.273955,-1957.74,-1934.94,1858.2,135.0913,-1.4996,-0.5631,984.8005,55.855846,37.48426,176.4417,NaN,,0.4527,1.5,269.3348,24 / 27,,312,2021-05-20 21:44:43:075
0.854756,0.775745,12.818948,-0.017031,0.171958,9.805127,-0.294032,0.112944,0.32038,-1957.14,-1935.24,1858.74,135.1986,-1.0047,0.0995,984.8005,55.855846,37.48426,176.4417,NaN,,0.4527,1.5,269.3348,24 / 27,,322,2021-05-20 21:44:43:085
0.826025,0.150839,13.702435,-0.031203,0.113485,9.805944,-0.192018,0.230841,0.353978,-1957.14,-1935.24,1858.74,135.1986,-1.0047,0.0995,984.8005,55.855846,37.48426,176.4417,NaN,,0.4527,1.5,269.3348,24 / 27,,331,2021-05-20 21:44:43:094
0.521952,-0.270553,13.934679,-0.031203,0.113485,9.805944,0.008957,0.326136,0.430947,-1957.14,-1934.94,1859.28,135.1986,-1.0047,0.0995,984.8005,55.855846,37.48426,176.4417,NaN,,0.4527,1.5,269.3348,24 / 27,,342,2021-05-20 21:44:43:105
-0.143656,-0.21309,13.726377,-0.084048,0.097463,9.805805,0.310114,0.437314,0.51097,-1957.14,-1934.94,1859.28,135.1986,-1.0047,0.0995,984.8005,55.855846,37.48426,176.4417,NaN,,0.4527,1.5,269.3348,24 / 27,,351,2021-05-20 21:44:43:114
-0.579414,0.292102,12.004894,-0.084048,0.097463,9.805805,0.655863,0.49107,0.594048,-1956.48,-1933.98,1859.64,135.185,-0.5694,0.4911,984.8005,55.855846,37.48426,176.4417,NaN,,0.4527,1.5,269.3348,24 / 27,,361,2021-05-20 21:44:43:124
-0.579414,0.292102,12.004894,-0.172727,0.19436,9.803202,0.941748,0.451974,0.6307,-1956.48,-1933.98,1859.64,135.185,-0.5694,0.4911,984.8005,55.855846,37.48426,176.4417,NaN,,0.4527,1.5,269.3348,24 / 27,,371,2021-05-20 21:44:43:134
-0.651243,0.802082,9.883567,-0.172727,0.19436,9.803202,1.096908,0.31453,0.592216,-1956.06,-1934.5198,1859.28,135.185,-0.5694,0.4911,984.8005,55.855846,37.48426,176.4417,NaN,,0.4527,1.5,269.3348,24 / 27,,381,2021-05-20 21:44:43:144
-0.64406,1.48445,7.99209,-0.246141,0.396094,9.795556,1.051093,0.174641,0.507916,-1956.06,-1934.5198,1859.28,135.185,-0.5694,0.4911,984.8005,55.855846,37.48426,176.4417,NaN,,0.4527,1.5,269.3348,24 / 27,,391,2021-05-20 21:44:43:154
-0.430969,2.092596,7.094237,-0.246141,0.396094,9.795556,0.83668,0.015206,0.304498,-1956.0,-1935.54,1858.98,136.5019,-2.3148,1.4394,984.8005,55.855846,37.48426,176.4417,NaN,,0.4527,1.5,269.3348,24 / 27,,401,2021-05-20 21:44:43:164
-0.833208,1.939363,7.221133,-0.261515,0.586813,9.785584,0.564845,-0.014727,0.11513,-1956.0,-1935.54,1858.98,136.5019,-2.3148,1.4394,984.8005,55.855846,37.48426,176.4417,NaN,,0.4527,1.5,269.3348,24 / 27,,412,2021-05-20 21:44:43:175
-0.833208,1.939363,7.221133,-0.259147,0.646252,9.781901,0.329051,0.019482,-0.009487,-1956.0,-1936.74,1859.46,136.5019,-2.3148,1.4394,984.8022,55.855846,37.48426,176.4417,NaN,,0.4527,1.5,269.3348,24 / 27,,421,2021-05-20 21:44:43:184
-1.707118,1.173195,8.12138,-0.259147,0.646252,9.781901,0.134795,0.091564,-0.085845,-1956.0,-1936.74,1859.46,136.5019,-2.3148,1.4394,984.8022,55.855846,37.48426,176.4417,NaN,,0.4527,1.5,269.3348,24 / 27,,431,2021-05-20 21:44:43:194
-2.305687,0.366324,9.057542,-0.270226,0.695062,9.778255,0.15923,0.108057,-0.060799,-1955.76,-1937.76,1859.28,137.2178,-3.7785,1.5176,984.8022,55.855846,37.48426,176.4417,NaN,,0.4527,1.5,269.3348,24 / 27,,442,2021-05-20 21:44:43:205
-2.396669,0.062251,9.007262,-0.270226,0.695062,9.778255,0.15923,0.108057,-0.060799,-1955.76,-1937.76,1859.28,137.2178,-3.7785,1.5176,984.8022,55.855846,37.48426,176.4417,NaN,,0.4527,1.5,269.3348,24 / 27,,451,2021-05-20 21:44:43:214
-2.020768,-0.167599,7.879559,-0.293827,0.728359,9.775149,0.214819,0.102559,-0.021093,-1956.0,-1937.88,1859.5198,137.2178,-3.7785,1.5176,984.8022,55.855846,37.48426,176.4417,NaN,,0.4527,1.5,269.3348,24 / 27,,461,2021-05-20 21:44:43:224
-2.020768,-0.167599,7.879559,-0.293827,0.728359,9.775149,0.187941,0.052468,-0.008265,-1956.0,-1937.88,1859.5198,137.2178,-3.7785,1.5176,984.8022,55.855846,37.48426,176.4417,NaN,,0.4527,1.5,269.3348,24 / 27,,471,2021-05-20 21:44:43:234
-1.247417,-0.146051,6.632141,-0.306404,0.763305,9.772097,0.087759,-0.029388,-0.026591,-1956.24,-1938.24,1859.64,137.5337,-4.2594,1.7217,984.8022,55.855846,37.48426,176.4417,NaN,,0.4527,1.5,269.3348,24 / 27,,481,2021-05-20 21:44:43:244
-0.57702,-0.052674,5.988082,-0.306404,0.763305,9.772097,-0.119935,-0.143619,-0.099895,-1956.24,-1938.24,1859.64,137.5337,-4.2594,1.7217,984.8022,55.855846,37.48426,176.4417,NaN,,0.4527,1.5,269.3348,24 / 27,,491,2021-05-20 21:44:43:254
-0.57702,-0.052674,5.988082,-0.285044,0.742974,9.77431,-0.350232,-0.197375,-0.190303,-1955.46,-1938.3,1859.1,137.5337,-4.2594,1.7217,984.8022,55.855846,37.48426,176.4417,NaN,,0.4527,1.5,269.3348,24 / 27,,501,2021-05-20 21:44:43:264
-0.249005,-0.292102,6.780586,-0.285044,0.742974,9.77431,-0.541432,-0.177217,-0.249557,-1955.46,-1938.3,1859.1,137.5337,-4.2594,1.7217,984.8022,55.855846,37.48426,176.4417,NaN,,0.4527,1.5,269.3348,24 / 27,,511,2021-05-20 21:44:43:274
-0.390267,-0.505192,8.152506,-0.25688,0.641855,9.78225,-0.634284,-0.045881,-0.255055,-1955.64,-1938.24,1859.34,137.5409,-4.345,1.6704,984.8186,55.855846,37.48426,176.4417,NaN,,0.4527,1.5,269.3348,24 / 27,,522,2021-05-20 21:44:43:285
-0.749408,-0.883487,8.724737,-0.25688,0.641855,9.78225,-0.637338,0.073238,-0.203742,-1955.64,-1938.24,1859.34,137.5409,-4.345,1.6704,984.8186,55.855846,37.48426,176.4417,NaN,,0.4527,1.5,269.3348,24 / 27,,531,2021-05-20 21:44:43:294
-1.077424,-0.931373,9.028811,-0.266674,0.515001,9.789486,-0.588469,0.181972,-0.124329,-1956.36,-1938.0,1859.94,137.5409,-4.345,1.6704,984.8186,55.855846,37.48426,176.4417,NaN,,0.4527,1.5,269.3348,24 / 27,,541,2021-05-20 21:44:43:304
-1.077424,-0.931373,9.028811,-0.266674,0.515001,9.789486,-0.491342,0.233285,-0.020482,-1956.36,-1938.0,1859.94,137.5409,-4.345,1.6704,984.8186,55.855846,37.48426,176.4417,NaN,,0.4527,1.5,269.3348,24 / 27,,551,2021-05-20 21:44:43:314
-1.297697,-0.581809,8.772623,-0.311696,0.412042,9.793031,-0.350232,0.254665,0.10841,-1956.36,-1936.74,1859.76,136.8921,-3.0103,1.5604,984.8186,55.855846,37.48426,176.4417,NaN,,0.4527,1.5,269.3348,24 / 27,,561,2021-05-20 21:44:43:324
-1.546701,-0.335198,8.250672,-0.311696,0.412042,9.793031,-0.248217,0.322471,0.223253,-1956.36,-1936.74,1859.76,136.8921,-3.0103,1.5604,984.8186,55.855846,37.48426,176.4417,NaN,,0.4527,1.5,269.3348,24 / 27,,572,2021-05-20 21:44:43:335
-0.751802,0.272947,7.896319,-0.368682,0.353049,9.793356,-0.142537,0.235117,0.283118,-1956.36,-1936.08,1860.18,136.8921,-3.0103,1.5604,984.8186,55.855846,37.48426,176.4417,NaN,,0.4527,1.5,269.3348,24 / 27,,581,2021-05-20 21:44:43:344
-0.751802,0.272947,7.896319,-0.368682,0.353049,9.793356,-0.022808,0.096451,0.272122,-1956.36,-1936.08,1860.18,136.8921,-3.0103,1.5604,984.8186,55.855846,37.48426,176.4417,NaN,,0.4527,1.5,269.3348,24 / 27,,591,2021-05-20 21:44:43:354
-0.85715,1.089395,7.549149,-0.407416,0.332297,9.792547,-0.022808,0.096451,0.272122,-1955.64,-1936.0198,1860.06,136.7625,-2.0632,2.1559,984.8186,55.855846,37.48426,176.4417,NaN,,0.4527,1.5,269.3348,24 / 27,,601,2021-05-20 21:44:43:364
-0.938556,1.247417,7.283384,-0.407416,0.332297,9.792547,0.18733,-0.265792,0.25685,-1955.64,-1936.0198,1860.06,136.7625,-2.0632,2.1559,984.8186,55.855846,37.48426,176.4417,NaN,,0.4527,1.5,269.3348,24 / 27,,611,2021-05-20 21:44:43:374
-0.725465,1.350371,7.319299,-0.383465,0.357199,9.792638,0.216651,-0.365363,0.248298,-1955.16,-1936.32,1859.16,136.7625,-2.0632,2.1559,984.8186,55.855846,37.48426,176.4417,NaN,,0.4527,1.5,269.3348,24 / 27,,622,2021-05-20 21:44:43:385
-0.725465,1.350371,7.319299,-0.383465,0.357199,9.792638,0.216651,-0.365363,0.248298,-1955.16,-1936.32,1859.16,136.7625,-2.0632,2.1559,984.8186,55.855846,37.48426,176.4417,NaN,,0.4527,1.5,269.3348,24 / 27,,631,2021-05-20 21:44:43:394
-0.620117,1.503605,7.774211,-0.312427,0.402165,9.793418,0.251471,-0.36292,0.255018,-1955.4,-1937.04,1859.28,136.8478,-2.0874,2.2425,984.8186,55.855846,37.48426,176.4417,NaN,,0.4527,1.5,269.3348,24 / 27,,641,2021-05-20 21:44:43:404
-0.701522,1.84838,8.075889,-0.312427,0.402165,9.793418,0.251471,-0.36292,0.255018,-1955.4,-1937.04,1859.28,136.8478,-2.0874,2.2425,984.8186,55.855846,37.48426,176.4417,NaN,,0.4527,1.5,269.3348,24 / 27,,651,2021-05-20 21:44:43:414
-0.617723,1.879506,8.10462,-0.243835,0.453696,9.793115,0.241697,-0.289616,0.255018,-1956.0,-1936.92,1859.58,136.8478,-2.0874,2.2425,984.8186,55.855846,37.48426,176.4417,NaN,,0.4527,1.5,269.3348,24 / 27,,661,2021-05-20 21:44:43:424
-0.375901,2.293715,8.202786,-0.243835,0.453696,9.793115,0.206877,-0.231584,0.253185,-1956.0,-1936.92,1859.58,136.8478,-2.0874,2.2425,984.8186,55.855846,37.48426,176.4417,NaN,,0.4527,1.5,269.3348,24 / 27,,671,2021-05-20 21:44:43:434
-0.375901,2.293715,8.202786,-0.195363,0.497916,9.792053,0.126854,-0.225475,0.183547,-1956.6,-1937.04,1859.28,136.6462,-2.6517,1.4263,984.8186,55.855846,37.48426,176.4417,NaN,,0.4527,1.5,269.3348,24 / 27,,682,2021-05-20 21:44:43:445
-0.158022,2.233858,8.655303,-0.195363,0.497916,9.792053,0.02484,-0.180882,0.118795,-1956.6,-1937.04,1859.28,136.6462,-2.6517,1.4263,984.8186,55.855846,37.48426,176.4417,NaN,,0.4527,1.5,269.3348,24 / 27,,691,2021-05-20 21:44:43:454
-0.143656,1.630501,9.237112,-0.155863,0.513847,9.791939,-0.094279,-0.157669,0.0797,-1956.66,-1937.22,1859.34,136.6462,-2.6517,1.4263,984.8186,55.855846,37.48426,176.4417,NaN,,0.4527,1.5,269.3348,24 / 27,,702,2021-05-20 21:44:43:465
-0.167599,1.482056,10.38397,-0.155863,0.513847,9.791939,-0.214009,-0.131402,0.063206,-1956.66,-1937.22,1859.34,136.6462,-2.6517,1.4263,984.8186,55.855846,37.48426,176.4417,NaN,,0.4527,1.5,269.3348,24 / 27,,712,2021-05-20 21:44:43:475
0.0,1.731061,11.727158,-0.129023,0.481375,9.793979,-0.265932,-0.117352,0.038772,-1956.06,-1936.98,1859.28,136.5509,-3.0036,0.9119,984.8208,55.855846,37.48426,176.4417,NaN,,0.4527,1.5,269.3348,24 / 27,,721,2021-05-20 21:44:43:484
0.0,1.731061,11.727158,-0.129023,0.481375,9.793979,-0.209122,-0.133845,-0.022315,-1956.06,-1936.98,1859.28,136.5509,-3.0036,0.9119,984.8208,55.855846,37.48426,176.4417,NaN,,0.4527,1.5,269.3348,24 / 27,,731,2021-05-20 21:44:43:494
-0.098165,1.654444,12.270658,-0.103554,0.440426,9.796207,-0.101609,-0.243801,-0.095008,-1955.76,-1937.28,1859.5198,136.5509,-3.0036,0.9119,984.8208,55.855846,37.48426,176.4417,NaN,,0.4527,1.5,269.3348,24 / 27,,742,2021-05-20 21:44:43:505
-0.148445,1.505999,12.416709,-0.103554,0.440426,9.796207,-0.023419,-0.374526,-0.13899,-1955.76,-1937.28,1859.5198,136.5509,-3.0036,0.9119,984.8208,55.855846,37.48426,176.4417,NaN,,0.4527,1.5,269.3348,24 / 27,,751,2021-05-20 21:44:43:514
-0.169993,1.218686,12.61304,-0.043247,0.431253,9.797068,-0.012423,-0.446608,-0.165257,-1956.9,-1937.1,1859.88,136.1912,-2.5741,0.6056,984.8208,55.855846,37.48426,176.4417,NaN,,0.4527,1.5,269.3348,24 / 27,,761,2021-05-20 21:44:43:524
-0.126897,1.072635,12.742331,-0.043247,0.431253,9.797068,-0.064347,-0.465545,-0.18114,-1956.9,-1937.1,1859.88,136.1912,-2.5741,0.6056,984.8208,55.855846,37.48426,176.4417,NaN,,0.4527,1.5,269.3348,24 / 27,,771,2021-05-20 21:44:43:534
-0.126897,1.072635,12.742331,0.044133,0.425517,9.797315,-0.141316,-0.463713,-0.172588,-1957.38,-1936.5,1859.5198,136.1912,-2.5741,0.6056,984.8208,55.855846,37.48426,176.4417,NaN,,0.4527,1.5,269.3348,24 / 27,,781,2021-05-20 21:44:43:544
-0.153234,0.864333,13.017673,0.044133,0.425517,9.797315,-0.199348,-0.430115,-0.158538,-1957.38,-1936.5,1859.5198,136.1912,-2.5741,0.6056,984.8208,55.855846,37.48426,176.4417,NaN,,0.4527,1.5,269.3348,24 / 27,,791,2021-05-20 21:44:43:554
-0.047885,1.04151,13.13978,0.130948,0.395296,9.797805,-0.241498,-0.383078,-0.15304,-1957.44,-1936.92,1859.82,135.7216,-2.4869,-0.2581,984.8208,55.855846,37.48426,176.4417,NaN,,0.4527,1.5,269.3348,24 / 27,,802,2021-05-20 21:44:43:565
0.770957,1.04151,12.572337,0.130948,0.395296,9.797805,-0.309304,-0.336653,-0.23062,-1957.44,-1936.92,1859.82,135.7216,-2.4869,-0.2581,984.8208,55.855846,37.48426,176.4417,NaN,,0.4527,1.5,269.3348,24 / 27,,811,2021-05-20 21:44:43:574
1.364737,0.548289,11.681666,0.200293,0.344996,9.798532,-0.388105,-0.325657,-0.311254,-1957.98,-1937.1,1859.22,135.7216,-2.4869,-0.2581,984.8208,55.855846,37.48426,176.4417,NaN,,0.4527,1.5,269.3348,24 / 27,,822,2021-05-20 21:44:43:585
1.364737,0.548289,11.681666,0.200293,0.344996,9.798532,-0.532269,-0.283507,-0.435871,-1957.98,-1937.1,1859.22,135.7216,-2.4869,-0.2581,984.8208,55.855846,37.48426,176.4417,NaN,,0.4527,1.5,269.3348,24 / 27,,831,2021-05-20 21:44:43:594
1.623318,-0.366324,11.451817,0.25775,0.257732,9.799873,-0.689873,-0.249299,-0.564763,-1957.98,-1936.44,1858.8,135.0458,-2.0161,-1.171,984.8208,55.855846,37.48426,176.4417,NaN,,0.4527,1.5,269.3348,24 / 27,,841,2021-05-20 21:44:43:604
1.151646,-1.611347,12.203619,0.25775,0.257732,9.799873,-0.826096,-0.133235,-0.638678,-1957.98,-1936.44,1858.8,135.0458,-2.0161,-1.171,984.8208,55.855846,37.48426,176.4417,NaN,,0.4527,1.5,269.3348,24 / 27,,852,2021-05-20 21:44:43:615
0.541106,-2.351178,13.700041,0.294381,0.113863,9.80157,-0.790055,-0.056266,-0.610578,-1958.22,-1935.66,1858.68,135.0458,-2.0161,-1.171,984.8208,55.855846,37.48426,176.4417,NaN,,0.4527,1.5,269.3348,24 / 27,,861,2021-05-20 21:44:43:624
0.541106,-2.351178,13.700041,0.294381,0.113863,9.80157,-0.557315,0.042695,-0.531777,-1958.22,-1935.66,1858.68,135.0458,-2.0161,-1.171,984.8208,55.855846,37.48426,176.4417,NaN,,0.4527,1.5,269.3348,24 / 27,,871,2021-05-20 21:44:43:634
-0.009577,-2.312869,14.11425,0.295639,-0.015157,9.802181,-0.03869,0.084844,-0.392499,-1958.5198,-1934.82,1858.26,134.1608,-0.6653,-1.7203,984.8208,55.855846,37.48426,176.4417,NaN,,0.4527,1.5,269.3348,24 / 27,,882,2021-05-20 21:44:43:645
-0.071828,-1.63529,13.587509,0.295639,-0.015157,9.802181,0.344933,0.04636,-0.31553,-1958.5198,-1934.82,1858.26,134.1608,-0.6653,-1.7203,984.8208,55.855846,37.48426,176.4417,NaN,,0.4527,1.5,269.3348,24 / 27,,891,2021-05-20 21:44:43:654
0.378295,-0.806871,11.34168,0.280752,-0.012413,9.802623,0.555071,-0.022057,-0.290485,-1958.58,-1934.5198,1858.62,134.1608,-0.6653,-1.7203,984.8208,55.855846,37.48426,176.4417,NaN,,0.4527,1.5,269.3348,24 / 27,,901,2021-05-20 21:44:43:664
1.213897,-0.03352,8.849239,0.280752,-0.012413,9.802623,0.490319,-0.120406,-0.330191,-1958.58,-1934.5198,1858.62,134.1608,-0.6653,-1.7203,984.8208,55.855846,37.48426,176.4417,NaN,,0.4527,1.5,269.3348,24 / 27,,911,2021-05-20 21:44:43:674
1.544307,0.064645,8.231517,0.287586,0.09086,9.802011,0.244751,-0.141176,-0.397386,-1959.3,-1934.5198,1858.74,133.8569,0.0725,-1.6405,984.8208,55.855846,37.48426,176.4417,NaN,,0.4527,1.5,269.3348,24 / 27,,921,2021-05-20 21:44:43:684
1.544307,0.064645,8.231517,0.287586,0.09086,9.802011,0.244751,-0.141176,-0.397386,-1959.3,-1934.5198,1858.74,133.8569,0.0725,-1.6405,984.8208,55.855846,37.48426,176.4417,NaN,,0.4527,1.5,269.3348,24 / 27,,931,2021-05-20 21:44:43:694
1.352765,-0.110137,9.876384,0.313009,0.131817,9.800768,-0.096723,-0.042216,-0.460305,-1959.12,-1934.46,1858.14,133.8569,0.0725,-1.6405,984.8208,55.855846,37.48426,176.4417,NaN,,0.4527,1.5,269.3348,24 / 27,,941,2021-05-20 21:44:43:704
1.192349,-0.579414,11.061549,0.313009,0.131817,9.800768,-0.195683,0.210072,-0.46336,-1959.12,-1934.46,1858.14,133.8569,0.0725,-1.6405,984.8208,55.855846,37.48426,176.4417,NaN,,0.4527,1.5,269.3348,24 / 27,,951,2021-05-20 21:44:43:714
0.85715,-0.885882,11.020847,0.283512,0.099681,9.802045,-0.159642,0.367675,-0.423653,-1958.58,-1934.88,1857.9,134.1591,-0.7702,-1.8292,984.8208,55.855846,37.48426,176.4417,NaN,,0.4527,1.5,269.3348,24 / 27,,961,2021-05-20 21:44:43:724
0.85715,-0.885882,11.020847,0.283512,0.099681,9.802045,-0.006315,0.409825,-0.360734,-1958.58,-1934.88,1857.9,134.1591,-0.7702,-1.8292,984.8208,55.855846,37.48426,176.4417,NaN,,0.4527,1.5,269.3348,24 / 27,,971,2021-05-20 21:44:43:734
0.866728,-0.773351,10.247497,0.20546,0.086391,9.804117,0.169615,0.274213,-0.352793,-1959.0,-1934.5198,1858.26,134.1591,-0.7702,-1.8292,984.8208,55.855846,37.48426,176.4417,NaN,,0.4527,1.5,269.3348,24 / 27,,981,2021-05-20 21:44:43:744
1.441354,-0.344776,9.064724,0.20546,0.086391,9.804117,0.254525,0.141655,-0.410825,-1959.0,-1934.5198,1858.26,134.1591,-0.7702,-1.8292,984.8208,55.855846,37.48426,176.4417,NaN,,0.4527,1.5,269.3348,24 / 27,,991,2021-05-20 21:44:43:754
1.786129,0.332804,8.231517,0.160294,0.123504,9.804563,0.254525,0.141655,-0.410825,-1958.94,-1933.62,1858.2,134.3096,-0.5047,-1.2005,984.8208,55.855846,37.48426,176.4417,NaN,,0.4527,1.5,269.3348,24 / 27,,1001,2021-05-20 21:44:43:764
1.697541,0.447729,7.582669,0.160294,0.123504,9.804563,0.267964,0.055523,-0.544605,-1958.94,-1933.62,1858.2,134.3096,-0.5047,-1.2005,984.8208,55.855846,37.48426,176.4417,NaN,,0.4527,1.5,269.3348,24 / 27,,1011,2021-05-20 21:44:43:774
1.697541,0.447729,7.582669,0.149422,0.173391,9.803979,0.126854,0.061631,-0.67533,-1958.76,-1933.86,1857.78,134.3096,-0.5047,-1.2005,984.8208,55.855846,37.48426,176.4417,NaN,,0.4527,1.5,269.3348,24 / 27,,1021,2021-05-20 21:44:43:784
1.175589,0.318439,7.498869,0.149422,0.173391,9.803979,0.012622,0.115388,-0.696099,-1958.76,-1933.86,1857.78,134.3096,-0.5047,-1.2005,984.8264,55.855846,37.48426,176.4417,NaN,,0.4527,1.5,269.3348,24 / 27,,1031,2021-05-20 21:44:43:794
0.134079,0.031126,7.869982,0.128917,0.183379,9.804088,-0.061292,0.197244,-0.656393,-1958.5198,-1934.34,1858.32,134.6946,-1.0131,-0.8732,984.8264,55.855846,37.48426,176.4417,NaN,,0.4527,1.5,269.3348,24 / 27,,1041,2021-05-20 21:44:43:804
-0.478855,-0.069434,8.27222,0.128917,0.183379,9.804088,-0.07351,0.301091,-0.545216,-1958.5198,-1934.34,1858.32,134.6946,-1.0131,-0.8732,984.8264,55.855846,37.48426,176.4417,NaN,,0.4527,1.5,269.3348,24 / 27,,1051,2021-05-20 21:44:43:814
-0.976864,-0.138868,7.944204,0.077474,0.169757,9.804875,4.05E-4,0.331634,-0.444423,-1958.58,-1934.1,1858.38,134.6946,-1.0131,-0.8732,984.8264,55.855846,37.48426,176.4417,NaN,,0.4527,1.5,269.3348,24 / 27,,1061,2021-05-20 21:44:43:824
-0.976864,-0.138868,7.944204,0.077474,0.169757,9.804875,0.1238,0.283376,-0.306978,-1958.58,-1934.1,1858.38,134.6946,-1.0131,-0.8732,984.8264,55.855846,37.48426,176.4417,NaN,,0.4527,1.5,269.3348,24 / 27,,1071,2021-05-20 21:44:43:834
-0.92419,0.181965,7.470138,0.016619,0.182833,9.804932,0.25086,0.137379,-0.214127,-1958.16,-1934.1,1857.42,134.8978,-0.9919,-0.4527,984.8264,55.855846,37.48426,176.4417,NaN,,0.4527,1.5,269.3348,24 / 27,,1082,2021-05-20 21:44:43:845
-0.292102,0.462095,7.132545,0.016619,0.182833,9.804932,0.327829,0.062853,-0.176864,-1958.16,-1934.1,1857.42,134.8978,-0.9919,-0.4527,984.8264,55.855846,37.48424,176.6756,NaN,,0.8037,1.5,273.2608,25 / 27,,1091,2021-05-20 21:44:43:854
0.351958,0.984047,6.617776,-0.004803,0.238181,9.803756,0.340657,-6.77E-4,-0.182972,-1957.5,-1933.68,1858.44,134.8978,-0.9919,-0.4527,984.8264,55.855846,37.48424,176.6756,NaN,,0.8037,1.5,273.2608,25 / 27,,1101,2021-05-20 21:44:43:864
0.351958,0.984047,6.617776,-0.004803,0.238181,9.803756,0.308892,0.009708,-0.214737,-1957.5,-1933.68,1858.44,134.8978,-0.9919,-0.4527,984.8264,55.855846,37.48424,176.6756,NaN,,0.8037,1.5,273.2608,25 / 27,,1111,2021-05-20 21:44:43:874
0.368718,1.125309,6.742278,-0.006709,0.303342,9.801954,0.286901,0.05369,-0.208629,-1956.9,-1933.56,1859.4,135.3278,-1.3917,0.0281,984.8335,55.855846,37.48424,176.6756,NaN,,0.8037,1.5,273.2608,25 / 27,,1121,2021-05-20 21:44:43:884
0.189148,1.53473,6.735095,-0.006709,0.303342,9.801954,0.272851,0.087288,-0.197022,-1956.9,-1933.56,1859.4,135.3278,-1.3917,0.0281,984.8335,55.855846,37.48424,176.6756,NaN,,0.8037,1.5,273.2608,25 / 27,,1132,2021-05-20 21:44:43:895
0.023943,1.675992,6.416657,-0.019881,0.359898,9.800024,0.244751,0.062853,-0.168312,-1956.54,-1933.74,1858.92,135.3278,-1.3917,0.0281,984.8335,55.855846,37.48424,176.6756,NaN,,0.8037,1.5,273.2608,25 / 27,,1141,2021-05-20 21:44:43:904
-0.292102,1.61853,6.828472,-0.019881,0.359898,9.800024,0.209321,0.04636,-0.128605,-1956.54,-1933.74,1858.92,135.3278,-1.3917,0.0281,984.8335,55.855846,37.48424,176.6756,NaN,,0.8037,1.5,273.2608,25 / 27,,1152,2021-05-20 21:44:43:915
-0.292102,1.61853,6.828472,-0.03373,0.408735,9.798071,0.178167,0.054912,-0.080347,-1957.2,-1933.56,1858.26,135.6926,-2.1032,0.1162,984.8335,55.855846,37.48424,176.6756,NaN,,0.8037,1.5,273.2608,25 / 27,,1161,2021-05-20 21:44:43:924
-0.409421,1.628107,7.178036,-0.03373,0.408735,9.798071,0.158619,0.001156,-0.05408,-1957.2,-1933.56,1858.26,135.6926,-2.1032,0.1162,984.8335,55.855846,37.48424,176.6756,NaN,,0.8037,1.5,273.2608,25 / 27,,1171,2021-05-20 21:44:43:934
-0.256187,1.388679,7.805336,-0.041329,0.44547,9.79644,0.137239,-0.0807,-0.021093,-1957.08,-1933.8,1858.44,135.6926,-2.1032,0.1162,984.8335,55.855846,37.48424,176.6756,NaN,,0.8037,1.5,273.2608,25 / 27,,1182,2021-05-20 21:44:43:945
0.191542,1.364737,8.399116,-0.041329,0.44547,9.79644,0.104863,-0.127737,-0.029034,-1957.08,-1933.8,1858.44,135.6926,-2.1032,0.1162,984.8335,55.855846,37.48424,176.6756,NaN,,0.8037,1.5,273.2608,25 / 27,,1192,2021-05-20 21:44:43:955
0.581809,1.180378,9.356826,-0.024425,0.47328,9.795193,0.076763,-0.131402,-0.044917,-1956.72,-1934.46,1859.22,135.9777,-2.6036,0.2417,984.8335,55.855846,37.48424,176.6756,NaN,,0.8037,1.5,273.2608,25 / 27,,1201,2021-05-20 21:44:43:964
0.581809,1.180378,9.356826,-0.024425,0.47328,9.795193,0.084094,-0.067261,-0.048582,-1956.72,-1934.46,1859.22,135.9777,-2.6036,0.2417,984.8335,55.855846,37.48424,176.6756,NaN,,0.8037,1.5,273.2608,25 / 27,,1211,2021-05-20 21:44:43:974
0.478855,1.149252,10.288198,-0.001298,0.490846,9.794358,0.084094,-0.067261,-0.048582,-1956.72,-1934.88,1859.58,135.9777,-2.6036,0.2417,984.8335,55.855846,37.48424,176.6756,NaN,,0.8037,1.5,273.2608,25 / 27,,1221,2021-05-20 21:44:43:984
0.177176,1.194743,10.870008,-0.001298,0.490846,9.794358,0.120745,0.010319,-0.038808,-1956.72,-1934.88,1859.58,135.9777,-2.6036,0.2417,984.8335,55.855846,37.48424,176.6756,NaN,,0.8037,1.5,273.2608,25 / 27,,1231,2021-05-20 21:44:43:994
-0.043097,1.216292,11.07831,-0.00479,0.517048,9.793009,0.17328,0.116609,0.013726,-1956.78,-1934.4,1859.46,135.9768,-2.869,0.0076,984.8335,55.855846,37.48424,176.6756,NaN,,0.8037,1.5,273.2608,25 / 27,,1241,2021-05-20 21:44:44:004
-0.574626,1.374314,11.035213,-0.00479,0.517048,9.793009,0.200769,0.233285,0.063206,-1956.78,-1934.4,1859.46,135.9768,-2.869,0.0076,984.8335,55.855846,37.48424,176.6756,NaN,,0.8037,1.5,273.2608,25 / 27,,1251,2021-05-20 21:44:44:014
-0.574626,1.374314,11.035213,-0.047954,0.556037,9.790756,0.17328,0.364621,0.130401,-1957.14,-1934.82,1858.62,135.9768,-2.869,0.0076,984.8335,55.855846,37.48424,176.6756,NaN,,0.8037,1.5,273.2608,25 / 27,,1262,2021-05-20 21:44:44:025
-0.52674,1.580221,10.604243,-0.047954,0.556037,9.790756,0.093257,0.429983,0.180492,-1957.14,-1934.82,1858.62,135.9768,-2.869,0.0076,984.8335,55.855846,37.48424,176.6756,NaN,,0.8037,1.5,273.2608,25 / 27,,1271,2021-05-20 21:44:44:034
-0.383084,1.570644,10.726351,-0.127376,0.578948,9.788717,0.004681,0.386001,0.198207,-1957.08,-1935.3,1858.32,136.2922,-3.2504,0.2806,984.8335,55.855846,37.48424,176.6756,NaN,,0.8037,1.5,273.2608,25 / 27,,1281,2021-05-20 21:44:44:044
-0.442941,1.297697,11.322526,-0.127376,0.578948,9.788717,-0.050908,0.316362,0.20676,-1957.08,-1935.3,1858.32,136.2922,-3.2504,0.2806,984.8335,55.855846,37.48424,176.6756,NaN,,0.8037,1.5,273.2608,25 / 27,,1291,2021-05-20 21:44:44:054
-0.442941,1.297697,11.322526,-0.192252,0.57535,9.78787,-0.095501,0.241226,0.226918,-1956.84,-1935.12,1858.32,136.2922,-3.2504,0.2806,984.8335,55.855846,37.48424,176.6756,NaN,,0.8037,1.5,273.2608,25 / 27,,1301,2021-05-20 21:44:44:064
-0.438152,1.640078,11.825323,-0.213534,0.565742,9.787989,-0.142537,0.224732,0.229972,-1957.26,-1935.18,1858.56,136.2922,-3.2504,0.2806,984.8335,55.855846,37.48424,176.6756,NaN,,0.8037,1.5,273.2608,25 / 27,,1312,2021-05-20 21:44:44:075
-0.404632,1.807678,12.052779,-0.213534,0.565742,9.787989,-0.276928,0.205185,0.184158,-1957.26,-1935.18,1858.56,136.2922,-3.2504,0.2806,984.8467,55.855846,37.48424,176.6756,NaN,,0.8037,1.5,273.2608,25 / 27,,1321,2021-05-20 21:44:44:084
-0.404632,1.807678,12.052779,-0.253228,0.523436,9.789396,-0.418038,0.150207,0.142619,-1956.66,-1935.12,1858.56,136.816,-3.3072,1.2498,984.8467,55.855846,37.48424,176.6756,NaN,,0.8037,1.5,273.2608,25 / 27,,1331,2021-05-20 21:44:44:094
0.045491,-0.129291,12.785427,-0.253228,0.523436,9.789396,-0.589691,0.062853,0.120628,-1956.66,-1935.12,1858.56,136.816,-3.3072,1.2498,984.8467,55.855846,37.48424,176.6756,NaN,,0.8037,1.5,273.2608,25 / 27,,1341,2021-05-20 21:44:44:104
0.126897,-1.486845,15.100691,-0.272741,0.426779,9.793562,-0.633673,0.10317,0.140786,-1956.54,-1934.94,1858.74,136.816,-3.3072,1.2498,984.8467,55.855846,37.48424,176.6756,NaN,,0.8037,1.5,273.2608,25 / 27,,1351,2021-05-20 21:44:44:114
0.126897,-1.486845,15.100691,-0.272741,0.426779,9.793562,-0.633673,0.10317,0.140786,-1956.54,-1934.94,1858.74,136.816,-3.3072,1.2498,984.8467,55.855846,37.48424,176.6756,NaN,,0.8037,1.5,273.2608,25 / 27,,1361,2021-05-20 21:44:44:124
-0.098165,-2.051893,16.587536,-0.282153,0.365317,9.795781,-0.449192,0.210072,0.173773,-1956.12,-1934.82,1858.74,136.5149,-2.1349,1.6499,984.8467,55.855846,37.48424,176.6756,NaN,,0.8037,1.5,273.2608,25 / 27,,1371,2021-05-20 21:44:44:134
-1.173195,-1.666415,14.748733,-0.333914,0.320135,9.795733,0.243529,0.34996,0.292281,-1955.94,-1934.64,1859.28,136.5149,-2.1349,1.6499,984.8467,55.855846,37.48424,176.6756,NaN,,0.8037,1.5,273.2608,25 / 27,,1381,2021-05-20 21:44:44:144
-1.388679,-0.435758,10.805362,-0.361066,0.373247,9.792891,0.713285,0.171587,0.36925,-1955.76,-1934.34,1858.98,136.5149,-2.1349,1.6499,984.8467,55.855846,37.48424,176.6756,NaN,,0.8037,1.5,273.2608,25 / 27,,1394,2021-05-20 21:44:44:157
-1.388679,-0.435758,10.805362,-0.361066,0.373247,9.792891,0.883105,-0.109411,0.364363,-1955.76,-1934.34,1858.98,136.5149,-2.1349,1.6499,984.8467,55.855846,37.48424,176.6756,NaN,,0.8037,1.5,273.2608,25 / 27,,1402,2021-05-20 21:44:44:165
-1.036721,0.806871,7.360001,-0.361066,0.373247,9.792891,0.883105,-0.109411,0.364363,-1955.76,-1934.34,1858.98,136.5149,-2.1349,1.6499,984.8467,55.855846,37.48424,176.6756,NaN,,0.8037,1.5,273.2608,25 / 27,,1411,2021-05-20 21:44:44:174
-1.036721,0.806871,7.360001,-0.361066,0.373247,9.792891,0.883105,-0.109411,0.364363,-1955.76,-1934.34,1858.98,136.5149,-2.1349,1.6499,984.8467,55.855846,37.48424,176.6756,NaN,,0.8037,1.5,273.2608,25 / 27,,1421,2021-05-20 21:44:44:184
-1.036721,0.806871,7.360001,-0.361066,0.373247,9.792891,0.883105,-0.109411,0.364363,-1955.76,-1934.34,1858.98,136.5149,-2.1349,1.6499,984.8467,55.855846,37.48424,176.6756,NaN,,0.8037,1.5,273.2608,25 / 27,,1432,2021-05-20 21:44:44:195
-1.015172,0.883487,7.192402,-0.329831,0.543768,9.786006,0.799417,-0.500975,0.277009,-1956.12,-1934.64,1858.8,136.7783,-2.1812,2.1116,984.8433,55.855846,37.48424,176.6756,NaN,,0.8037,1.5,273.2608,25 / 27,,1441,2021-05-20 21:44:44:204
-1.443748,0.086194,9.63935,-0.156039,0.651412,9.783747,-0.32763,-0.295725,0.162166,-1955.7,-1936.32,1858.86,136.7783,-2.1812,2.1116,984.8433,55.855846,37.48424,176.6756,NaN,,0.8037,1.5,273.2608,25 / 27,,1451,2021-05-20 21:44:44:214
-1.017567,-0.936161,10.652128,-0.156039,0.651412,9.783747,-0.597021,0.030477,0.262348,-1955.7,-1936.32,1858.86,136.7783,-2.1812,2.1116,984.8433,55.855846,37.48424,176.6756,NaN,,0.8037,1.5,273.2608,25 / 27,,1462,2021-05-20 21:44:44:225
-0.603357,-1.278543,10.779025,-0.125601,0.507477,9.792706,-0.519441,0.010319,0.289226,-1956.72,-1936.0198,1858.2,136.7783,-2.1812,2.1116,984.8433,55.855846,37.48424,176.6756,NaN,,0.8037,1.5,273.2608,25 / 27,,1472,2021-05-20 21:44:44:235
-0.603357,-1.278543,10.779025,-0.125601,0.507477,9.792706,-0.365503,-0.070926,0.277009,-1956.72,-1936.0198,1858.2,136.7783,-2.1812,2.1116,984.8433,55.855846,37.48424,176.6756,NaN,,0.8037,1.5,273.2608,25 / 27,,1481,2021-05-20 21:44:44:244
-0.167599,-1.431776,10.541992,-0.120347,0.414706,9.797138,-0.25005,-0.093528,0.278842,-1956.72,-1935.36,1858.38,136.3998,-2.9663,0.7348,984.8433,55.855846,37.48424,176.6756,NaN,,0.8037,1.5,273.2608,25 / 27,,1491,2021-05-20 21:44:44:254
-0.167599,-1.431776,10.541992,-0.120347,0.414706,9.797138,-0.132153,-0.071537,0.286172,-1956.72,-1935.36,1858.38,136.3998,-2.9663,0.7348,984.8433,55.855846,37.48424,176.6756,NaN,,0.8037,1.5,273.2608,25 / 27,,1502,2021-05-20 21:44:44:265
0.160416,-0.92419,8.983319,-0.103028,0.37447,9.798956,-0.110162,-0.053822,0.273344,-1956.48,-1934.82,1857.96,136.3998,-2.9663,0.7348,984.8433,55.855846,37.48424,176.6756,NaN,,0.8037,1.5,273.2608,25 / 27,,1512,2021-05-20 21:44:44:275
0.160416,-0.92419,8.983319,-0.103028,0.37447,9.798956,-0.110162,-0.053822,0.273344,-1956.48,-1934.82,1857.96,136.3998,-2.9663,0.7348,984.8433,55.855846,37.48424,176.6756,NaN,,0.8037,1.5,273.2608,25 / 27,,1521,2021-05-20 21:44:44:284
0.371113,0.03352,7.278596,-0.089385,0.350723,9.799969,-0.108329,-0.082533,0.241579,-1956.54,-1934.94,1858.0198,135.9875,-2.1884,0.6024,984.8433,55.855846,37.48424,176.6756,NaN,,0.8037,1.5,273.2608,25 / 27,,1531,2021-05-20 21:44:44:294
0.021548,0.462095,6.725518,-0.079844,0.338942,9.800466,-0.13032,-0.084976,0.201262,-1956.66,-1935.0,1858.68,135.9875,-2.1884,0.6024,984.8433,55.855846,37.48424,176.6756,NaN,,0.8037,1.5,273.2608,25 / 27,,1541,2021-05-20 21:44:44:304
0.021548,0.462095,6.725518,-0.079844,0.338942,9.800466,-0.157809,-0.004342,0.222642,-1956.66,-1935.0,1858.68,135.9875,-2.1884,0.6024,984.8433,55.855846,37.48424,176.6756,NaN,,0.8037,1.5,273.2608,25 / 27,,1551,2021-05-20 21:44:44:314
-0.548289,0.375901,6.562708,-0.071747,0.30923,9.801511,-0.168194,0.049414,0.311828,-1956.36,-1935.0,1858.98,135.9875,-2.1884,0.6024,984.8433,55.855846,37.48424,176.6756,NaN,,0.8037,1.5,273.2608,25 / 27,,1562,2021-05-20 21:44:44:325
-0.548289,0.375901,6.562708,-0.071747,0.30923,9.801511,-0.168194,0.049414,0.311828,-1956.36,-1935.0,1858.98,135.9875,-2.1884,0.6024,984.8433,55.855846,37.48424,176.6756,NaN,,0.8037,1.5,273.2608,25 / 27,,1571,2021-05-20 21:44:44:334
-1.120521,0.153234,6.861992,-0.08105,0.278677,9.802355,-0.122379,0.071405,0.440721,-1956.36,-1935.0,1858.68,135.7391,-1.807,0.4194,984.8433,55.855846,37.48424,176.6756,NaN,,0.8037,1.5,273.2608,25 / 27,,1581,2021-05-20 21:44:44:344
-1.120521,0.153234,6.861992,-0.08105,0.278677,9.802355,0.002848,0.052468,0.584274,-1956.36,-1935.0,1858.68,135.7391,-1.807,0.4194,984.8433,55.855846,37.48424,176.6756,NaN,,0.8037,1.5,273.2608,25 / 27,,1591,2021-05-20 21:44:44:354
-0.909824,0.500403,7.304933,-0.086899,0.27099,9.80252,0.13113,0.01826,0.634976,-1956.36,-1934.94,1858.62,135.7391,-1.807,0.4194,984.8433,55.855846,37.48424,176.6756,NaN,,0.8037,1.5,273.2608,25 / 27,,1601,2021-05-20 21:44:44:364
-0.452518,0.804476,6.857203,-0.090517,0.287881,9.802006,0.20138,-0.048324,0.641696,-1956.3,-1934.7,1858.2,135.7391,-1.807,0.4194,984.8433,55.855846,37.48424,176.6756,NaN,,0.8037,1.5,273.2608,25 / 27,,1611,2021-05-20 21:44:44:374
-0.452518,0.804476,6.857203,-0.090517,0.287881,9.802006,0.243529,-0.263349,0.545179,-1956.3,-1934.7,1858.2,135.7391,-1.807,0.4194,984.8455,55.855846,37.48424,176.6756,NaN,,0.8037,1.5,273.2608,25 / 27,,1621,2021-05-20 21:44:44:384
0.344776,1.616136,6.60341,-0.052063,0.335627,9.800767,0.249638,-0.373915,0.438277,-1956.66,-1935.18,1858.8,135.7221,-1.6822,0.5291,984.8455,55.855846,37.48424,176.6756,NaN,,0.8037,1.5,273.2608,25 / 27,,1631,2021-05-20 21:44:44:394
0.418998,1.544307,7.585063,-0.015425,0.360734,9.8,0.254525,-0.409346,0.360087,-1956.48,-1935.6,1858.74,135.7221,-1.6822,0.5291,984.8455,55.855846,37.48424,176.6756,NaN,,0.8037,1.5,273.2608,25 / 27,,1642,2021-05-20 21:44:44:405
0.418998,1.544307,7.585063,-0.015425,0.360734,9.8,0.217262,-0.382468,0.308163,-1956.48,-1935.6,1858.74,135.7221,-1.6822,0.5291,984.8455,55.855846,37.48424,176.6756,NaN,,0.8037,1.5,273.2608,25 / 27,,1651,2021-05-20 21:44:44:414
0.181965,1.359948,8.049552,0.064842,0.409318,9.79789,0.154954,-0.37697,0.284339,-1956.66,-1936.14,1858.8,135.7221,-1.6822,0.5291,984.8455,55.855846,37.48424,176.6756,NaN,,0.8037,1.5,273.2608,25 / 27,,1661,2021-05-20 21:44:44:424
0.215485,1.082212,8.332076,0.064842,0.409318,9.79789,0.154954,-0.37697,0.284339,-1956.66,-1936.14,1858.8,135.7221,-1.6822,0.5291,984.8455,55.855846,37.48424,176.6756,NaN,,0.8037,1.5,273.2608,25 / 27,,1671,2021-05-20 21:44:44:434
0.172388,0.969681,9.122187,0.138533,0.437899,9.795889,0.038279,-0.329322,0.255629,-1956.96,-1935.54,1858.44,135.6055,-2.3922,-0.3792,984.8455,55.855846,37.48424,176.6756,NaN,,0.8037,1.5,273.2608,25 / 27,,1681,2021-05-20 21:44:44:444
0.172388,0.969681,9.122187,0.138533,0.437899,9.795889,-0.093057,-0.251132,0.229362,-1956.96,-1935.54,1858.44,135.6055,-2.3922,-0.3792,984.8455,55.855846,37.48424,176.6756,NaN,,0.8037,1.5,273.2608,25 / 27,,1691,2021-05-20 21:44:44:454
0.186753,0.852362,9.967366,0.167366,0.435716,9.795537,-0.140705,-0.21448,0.211646,-1957.26,-1935.6,1858.32,135.6055,-2.3922,-0.3792,984.8455,55.855846,37.48424,176.6756,NaN,,0.8037,1.5,273.2608,25 / 27,,1701,2021-05-20 21:44:44:464
0.390267,0.823631,11.245909,0.212906,0.411435,9.795702,-0.140094,-0.235249,0.171329,-1957.38,-1936.26,1858.0198,135.6055,-2.3922,-0.3792,984.8455,55.855846,37.48424,176.6756,NaN,,0.8037,1.5,273.2608,25 / 27,,1712,2021-05-20 21:44:44:475
0.390267,0.823631,11.245909,0.212906,0.411435,9.795702,-0.140094,-0.235249,0.171329,-1957.38,-1936.26,1858.0198,135.6055,-2.3922,-0.3792,984.8357,55.855846,37.48424,176.6756,NaN,,0.8037,1.5,273.2608,25 / 27,,1721,2021-05-20 21:44:44:484
0.59378,0.500403,12.431075,0.268587,0.388577,9.795267,-0.080229,-0.328101,0.072369,-1957.86,-1936.14,1857.78,135.1791,-2.4045,-1.2451,984.8357,55.855846,37.48424,176.6756,NaN,,0.8037,1.5,273.2608,25 / 27,,1731,2021-05-20 21:44:44:494
1.051087,0.452518,13.254705,0.303641,0.386139,9.794339,0.066989,-0.420952,-0.058967,-1957.86,-1936.32,1857.72,135.1791,-2.4045,-1.2451,984.8357,55.855846,37.48424,176.6756,NaN,,0.8037,1.5,273.2608,25 / 27,,1741,2021-05-20 21:44:44:504
1.051087,0.452518,13.254705,0.303641,0.386139,9.794339,0.184886,-0.533351,-0.193357,-1957.86,-1936.32,1857.72,135.1791,-2.4045,-1.2451,984.8357,55.855846,37.48424,176.6756,NaN,,0.8037,1.5,273.2608,25 / 27,,1752,2021-05-20 21:44:44:515
0.871516,0.225062,13.214003,0.393614,0.40936,9.790194,0.184886,-0.533351,-0.193357,-1958.4,-1936.5,1858.08,135.1791,-2.4045,-1.2451,984.8357,55.855846,37.48424,176.6756,NaN,,0.8037,1.5,273.2608,25 / 27,,1761,2021-05-20 21:44:44:524
0.483644,-0.074223,13.367236,0.393614,0.40936,9.790194,0.191606,-0.550456,-0.225122,-1958.4,-1936.5,1858.08,135.1791,-2.4045,-1.2451,984.8357,55.855846,37.48424,176.6756,NaN,,0.8037,1.5,273.2608,25 / 27,,1771,2021-05-20 21:44:44:534
0.351958,-0.03352,13.539624,0.496296,0.448446,9.783812,0.175112,-0.478984,-0.173809,-1958.46,-1936.62,1858.14,134.6946,-2.3924,-2.3023,984.8357,55.855846,37.48424,176.6756,NaN,,0.8037,1.5,273.2608,25 / 27,,1781,2021-05-20 21:44:44:544
0.351958,-0.03352,13.539624,0.496296,0.448446,9.783812,0.175112,-0.478984,-0.173809,-1958.46,-1936.62,1858.14,134.6946,-2.3924,-2.3023,984.8357,55.855846,37.48424,176.6756,NaN,,0.8037,1.5,273.2608,25 / 27,,1791,2021-05-20 21:44:44:554
0.232245,0.938556,13.304985,0.537653,0.46615,9.780799,0.172058,-0.358644,-0.066297,-1958.76,-1936.62,1857.9,134.6946,-2.3924,-2.3023,984.8357,55.855846,37.48424,176.6756,NaN,,0.8037,1.5,273.2608,25 / 27,,1802,2021-05-20 21:44:44:565
1.30488,0.359141,13.202031,0.610611,0.49346,9.775175,0.007735,-0.448441,-0.147542,-1959.6,-1936.2,1857.6,134.6946,-2.3924,-2.3023,984.8357,55.855846,37.48424,176.6756,NaN,,0.8037,1.5,273.2608,25 / 27,,1811,2021-05-20 21:44:44:574
1.30488,0.359141,13.202031,0.610611,0.49346,9.775175,-0.08084,-0.403848,-0.221457,-1959.6,-1936.2,1857.6,134.6946,-2.3924,-2.3023,984.8264,55.855846,37.48424,176.6756,NaN,,0.8037,1.5,273.2608,25 / 27,,1821,2021-05-20 21:44:44:584
2.26259,-1.268966,14.617047,0.694724,0.488268,9.769818,-0.056405,-0.166832,-0.264828,-1960.08,-1936.38,1857.9,134.2817,-2.8843,-3.5744,984.8264,55.855846,37.48424,176.6756,NaN,,0.8037,1.5,273.2608,25 / 27,,1831,2021-05-20 21:44:44:594
1.980065,-2.585817,15.572363,0.717749,0.482625,9.768434,0.068822,0.1386,-0.253222,-1959.78,-1936.56,1857.84,134.2817,-2.8843,-3.5744,984.8264,55.855846,37.48424,176.6756,NaN,,0.8037,1.5,273.2608,25 / 27,,1842,2021-05-20 21:44:44:605
1.980065,-2.585817,15.572363,0.717749,0.482625,9.768434,0.068822,0.1386,-0.253222,-1959.78,-1936.56,1857.84,134.2817,-2.8843,-3.5744,984.8264,55.855846,37.48424,176.6756,NaN,,0.8037,1.5,273.2608,25 / 27,,1852,2021-05-20 21:44:44:615
0.641666,-2.320052,12.907536,0.662769,0.519915,9.770405,0.467717,0.472744,-0.102949,-1960.56,-1936.74,1857.18,134.2817,-2.8843,-3.5744,984.8264,55.855846,37.48424,176.6756,NaN,,0.8037,1.5,273.2608,25 / 27,,1861,2021-05-20 21:44:44:624
0.641666,-2.320052,12.907536,0.662769,0.519915,9.770405,0.657085,0.318195,-0.013152,-1960.56,-1936.74,1857.18,134.2817,-2.8843,-3.5744,984.8264,55.855846,37.48424,176.6756,NaN,,0.8037,1.5,273.2608,25 / 27,,1872,2021-05-20 21:44:44:635
0.488432,-0.902642,8.660092,0.599164,0.639466,9.767419,0.709009,0.050636,-9.35E-4,-1960.68,-1936.74,1856.52,134.2089,-3.039,-3.8807,984.8264,55.855846,37.48424,176.6756,NaN,,0.8037,1.5,273.2608,25 / 27,,1881,2021-05-20 21:44:44:644
1.122915,0.375901,6.871569,0.62111,0.707592,9.761349,0.628985,-0.561451,-0.062021,-1960.32,-1936.98,1857.06,134.2089,-3.039,-3.8807,984.8264,55.855846,37.48424,176.6756,NaN,,0.8037,1.5,273.2608,25 / 27,,1891,2021-05-20 21:44:44:654
1.122915,0.375901,6.871569,0.62111,0.707592,9.761349,0.425567,-0.698285,-0.14571,-1960.32,-1936.98,1857.06,134.2089,-3.039,-3.8807,984.8264,55.855846,37.48424,176.6756,NaN,,0.8037,1.5,273.2608,25 / 27,,1902,2021-05-20 21:44:44:665
1.587404,0.524346,7.400704,0.745839,0.804246,9.745116,0.149456,-0.590162,-0.208018,-1959.96,-1937.7,1857.36,134.2089,-3.039,-3.8807,984.8264,55.855846,37.48424,176.6756,NaN,,0.8037,1.5,273.2608,25 / 27,,1911,2021-05-20 21:44:44:674
1.587404,0.524346,7.400704,0.745839,0.804246,9.745116,-0.248828,-0.202262,-0.241005,-1959.96,-1937.7,1857.36,134.2089,-3.039,-3.8807,984.8164,55.855846,37.48424,176.6756,NaN,,0.8037,1.5,273.2608,25 / 27,,1921,2021-05-20 21:44:44:684
1.589799,-0.055068,7.656891,0.818604,0.792379,9.740247,-0.49012,0.049414,-0.244059,-1960.62,-1938.24,1856.88,134.6434,-4.7041,-4.3766,984.8164,55.855846,37.48424,176.6756,NaN,,0.8037,1.5,273.2608,25 / 27,,1932,2021-05-20 21:44:44:695
0.931373,-0.646454,7.980118,0.814701,0.748271,9.744061,-0.615958,0.151429,-0.239783,-1960.62,-1938.0,1856.88,134.6434,-4.7041,-4.3766,984.8164,55.855846,37.48424,176.6756,NaN,,0.8037,1.5,273.2608,25 / 27,,1941,2021-05-20 21:44:44:704
0.931373,-0.646454,7.980118,0.814701,0.748271,9.744061,-0.615958,0.151429,-0.239783,-1960.62,-1938.0,1856.88,134.6434,-4.7041,-4.3766,984.8164,55.855846,37.48424,176.6756,NaN,,0.8037,1.5,273.2608,25 / 27,,1951,2021-05-20 21:44:44:714
0.162811,-0.826025,8.849239,0.780496,0.62982,9.755232,-0.557315,0.185026,-0.147542,-1960.44,-1938.12,1857.24,134.6434,-4.7041,-4.3766,984.8164,55.855846,37.48424,176.6756,NaN,,0.8037,1.5,273.2608,25 / 27,,1961,2021-05-20 21:44:44:724
0.162811,-0.826025,8.849239,0.780496,0.62982,9.755232,-0.432698,0.18747,-0.053469,-1960.44,-1938.12,1857.24,134.6434,-4.7041,-4.3766,984.8164,55.855846,37.48424,176.6756,NaN,,0.8037,1.5,273.2608,25 / 27,,1972,2021-05-20 21:44:44:735
0.201119,-0.490826,8.535589,0.744059,0.540422,9.763437,-0.330073,0.160592,0.021667,-1960.14,-1938.18,1857.48,134.1843,-3.6823,-4.5744,984.8164,55.855846,37.48424,176.6756,NaN,,0.8037,1.5,273.2608,25 / 27,,1982,2021-05-20 21:44:44:745
1.149252,0.390267,7.757451,0.744059,0.540422,9.763437,-0.208511,0.11722,0.063206,-1960.14,-1938.18,1857.48,134.1843,-3.6823,-4.5744,984.8164,55.855846,37.48424,176.6756,NaN,,0.8037,1.5,273.2608,25 / 27,,1991,2021-05-20 21:44:44:754
1.637684,0.964893,7.618582,0.720032,0.490953,9.767851,-0.182855,0.115388,0.007617,-1960.08,-1937.1,1857.36,134.1843,-3.6823,-4.5744,984.8164,55.855846,37.48424,176.6756,NaN,,0.8037,1.5,273.2608,25 / 27,,2001,2021-05-20 21:44:44:764
1.637684,0.964893,7.618582,0.708227,0.472975,9.769601,-0.155976,0.161202,-0.07546,-1959.9,-1936.56,1857.36,134.1843,-3.6823,-4.5744,984.8164,55.855846,37.48424,176.6756,NaN,,0.8037,1.5,273.2608,25 / 27,,2011,2021-05-20 21:44:44:774
1.479662,1.218686,7.59464,0.708227,0.472975,9.769601,-0.155976,0.161202,-0.07546,-1959.9,-1936.56,1857.36,134.1843,-3.6823,-4.5744,984.8174,55.855846,37.48424,176.6756,NaN,,0.8037,1.5,273.2608,25 / 27,,2021,2021-05-20 21:44:44:784
1.192349,1.211503,7.295356,0.667679,0.453018,9.773401,-0.057627,0.251,-0.189081,-1959.3,-1936.8,1856.52,134.0107,-2.7645,-4.1463,984.8174,55.855846,37.48424,176.6756,NaN,,0.8037,1.5,273.2608,25 / 27,,2031,2021-05-20 21:44:44:794
1.192349,1.211503,7.295356,0.667679,0.453018,9.773401,-0.057627,0.251,-0.189081,-1959.3,-1936.8,1856.52,134.0107,-2.7645,-4.1463,984.8174,55.855846,37.48424,176.6756,NaN,,0.8037,1.5,273.2608,25 / 27,,2041,2021-05-20 21:44:44:804
0.622511,0.979258,6.806924,0.641516,0.451485,9.775225,-0.011201,0.283986,-0.236118,-1959.0,-1936.38,1856.58,134.0107,-2.7645,-4.1463,984.8174,55.855846,37.48424,176.6756,NaN,,0.8037,1.5,273.2608,25 / 27,,2051,2021-05-20 21:44:44:814
-0.162811,0.608146,7.125362,0.585339,0.456393,9.778521,0.078596,0.27971,-0.170144,-1959.3,-1936.74,1856.82,134.0107,-2.7645,-4.1463,984.8174,55.855846,37.48424,176.6756,NaN,,0.8037,1.5,273.2608,25 / 27,,2062,2021-05-20 21:44:44:825
-0.162811,0.608146,7.125362,0.585339,0.456393,9.778521,0.172669,0.25833,-0.077293,-1959.3,-1936.74,1856.82,134.0107,-2.7645,-4.1463,984.8174,55.855846,37.48424,176.6756,NaN,,0.8037,1.5,273.2608,25 / 27,,2071,2021-05-20 21:44:44:834
-0.249005,0.706311,7.070294,0.533369,0.490064,9.779864,0.248416,0.251,0.025943,-1959.54,-1937.04,1856.94,134.274,-2.6675,-3.4256,984.8174,55.855846,37.48422,176.654,NaN,,1.1203,1.5,271.4775,27 / 27,,2081,2021-05-20 21:44:44:844
0.31365,1.070241,6.656084,0.50955,0.514936,9.779856,0.231923,0.241226,0.116352,-1959.6,-1936.56,1857.24,134.274,-2.6675,-3.4256,984.8174,55.855846,37.48422,176.654,NaN,,1.1203,1.5,271.4775,27 / 27,,2092,2021-05-20 21:44:44:855
0.31365,1.070241,6.656084,0.50955,0.514936,9.779856,0.231923,0.241226,0.116352,-1959.6,-1936.56,1857.24,134.274,-2.6675,-3.4256,984.8174,55.855846,37.48422,176.654,NaN,,1.1203,1.5,271.4775,27 / 27,,2101,2021-05-20 21:44:44:864
1.3384,1.83162,6.596227,0.466058,0.55043,9.780092,0.052939,0.207628,0.085808,-1959.24,-1936.26,1857.3,134.274,-2.6675,-3.4256,984.8174,55.855846,37.48422,176.654,NaN,,1.1203,1.5,271.4775,27 / 27,,2112,2021-05-20 21:44:44:875
1.3384,1.83162,6.596227,0.466058,0.55043,9.780092,-0.058238,0.185637,-0.005822,-1959.24,-1936.26,1857.3,134.274,-2.6675,-3.4256,984.8086,55.855846,37.48422,176.654,NaN,,1.1203,1.5,271.4775,27 / 27,,2121,2021-05-20 21:44:44:884
1.640078,2.099779,8.162083,0.428962,0.544791,9.782104,-0.103442,0.213126,-0.112723,-1958.5198,-1936.74,1857.24,134.8265,-3.2176,-2.7283,984.8086,55.855846,37.48422,176.654,NaN,,1.1203,1.5,271.4775,27 / 27,,2131,2021-05-20 21:44:44:894
1.05827,1.719089,8.830086,0.428962,0.544791,9.782104,-0.092447,0.233285,-0.178086,-1958.5198,-1936.74,1857.24,134.8265,-3.2176,-2.7283,984.8086,55.855846,37.48422,176.654,NaN,,1.1203,1.5,271.4775,27 / 27,,2142,2021-05-20 21:44:44:905
0.548289,1.56825,9.620196,0.384274,0.529491,9.784802,-0.076564,0.23695,-0.175642,-1958.16,-1937.22,1857.72,134.8265,-3.2176,-2.7283,984.8086,55.855846,37.48422,176.654,NaN,,1.1203,1.5,271.4775,27 / 27,,2151,2021-05-20 21:44:44:914
0.548289,1.56825,9.620196,0.384274,0.529491,9.784802,-0.04541,0.251,-0.144488,-1958.16,-1937.22,1857.72,134.8265,-3.2176,-2.7283,984.8086,55.855846,37.48422,176.654,NaN,,1.1203,1.5,271.4775,27 / 27,,2162,2021-05-20 21:44:44:925
0.148445,1.455719,10.005674,0.336019,0.522673,9.786944,0.016898,0.23023,-0.053469,-1958.76,-1936.68,1858.26,134.9981,-3.0951,-2.249,984.8086,55.855846,37.48422,176.654,NaN,,1.1203,1.5,271.4775,27 / 27,,2171,2021-05-20 21:44:44:934
-0.090982,1.27136,10.264256,0.336019,0.522673,9.786944,0.049885,0.18075,0.024111,-1958.76,-1936.68,1858.26,134.9981,-3.0951,-2.249,984.8086,55.855846,37.48422,176.654,NaN,,1.1203,1.5,271.4775,27 / 27,,2181,2021-05-20 21:44:44:944
0.153234,1.108549,10.889162,0.293974,0.529883,9.78791,0.049885,0.18075,0.024111,-1959.0,-1936.0198,1858.08,134.9981,-3.0951,-2.249,984.8086,55.855846,37.48422,176.654,NaN,,1.1203,1.5,271.4775,27 / 27,,2191,2021-05-20 21:44:44:954
0.454912,0.893065,11.459,0.293974,0.529883,9.78791,0.068211,0.128216,0.08031,-1959.0,-1936.0198,1858.08,134.9981,-3.0951,-2.249,984.8086,55.855846,37.48422,176.654,NaN,,1.1203,1.5,271.4775,27 / 27,,2201,2021-05-20 21:44:44:964
0.454912,0.893065,11.459,0.271435,0.543671,9.787806,0.049885,0.093396,0.130401,-1958.76,-1936.5,1858.0198,135.233,-3.0974,-1.7203,984.8086,55.855846,37.48422,176.654,NaN,,1.1203,1.5,271.4775,27 / 27,,2211,2021-05-20 21:44:44:974
0.651243,0.962499,12.263475,0.271435,0.543671,9.787806,0.054772,0.089731,0.135899,-1958.76,-1936.5,1858.0198,135.233,-3.0974,-1.7203,984.8022,55.855846,37.48422,176.654,NaN,,1.1203,1.5,271.4775,27 / 27,,2221,2021-05-20 21:44:44:984
0.691945,0.95771,13.044009,0.256463,0.556179,9.787506,0.111582,0.078736,0.131623,-1958.82,-1937.22,1858.26,135.233,-3.0974,-1.7203,984.8022,55.855846,37.48422,176.654,NaN,,1.1203,1.5,271.4775,27 / 27,,2232,2021-05-20 21:44:44:995
0.691945,0.95771,13.044009,0.256463,0.556179,9.787506,0.111582,0.078736,0.131623,-1958.82,-1937.22,1858.26,135.233,-3.0974,-1.7203,984.8022,55.855846,37.48422,176.654,NaN,,1.1203,1.5,271.4775,27 / 27,,2241,2021-05-20 21:44:45:004
0.402238,0.701523,13.388784,0.236074,0.598914,9.785498,0.285068,0.148374,0.159723,-1958.58,-1936.68,1858.38,135.4154,-3.2512,-1.501,984.8022,55.855846,37.48422,176.654,NaN,,1.1203,1.5,271.4775,27 / 27,,2252,2021-05-20 21:44:45:015
-0.320833,1.252206,12.395161,0.217379,0.633505,9.783752,0.376087,0.250389,0.261737,-1958.64,-1936.62,1858.32,135.4154,-3.2512,-1.501,984.8022,55.855846,37.48422,176.654,NaN,,1.1203,1.5,271.4775,27 / 27,,2261,2021-05-20 21:44:45:024
-0.320833,1.252206,12.395161,0.217379,0.633505,9.783752,0.332716,0.282154,0.325267,-1958.64,-1936.62,1858.32,135.4154,-3.2512,-1.501,984.8022,55.855846,37.48422,176.654,NaN,,1.1203,1.5,271.4775,27 / 27,,2272,2021-05-20 21:44:45:035
-0.531529,1.929786,10.525232,0.168703,0.696713,9.780416,0.179389,0.192357,0.343593,-1957.74,-1937.16,1858.56,135.4154,-3.2512,-1.501,984.8022,55.855846,37.48422,176.654,NaN,,1.1203,1.5,271.4775,27 / 27,,2281,2021-05-20 21:44:45:044
0.462095,0.31365,11.334496,0.168703,0.696713,9.780416,-0.1798,-0.072148,0.317937,-1957.74,-1937.16,1858.56,135.4154,-3.2512,-1.501,984.8022,55.855846,37.48422,176.654,NaN,,1.1203,1.5,271.4775,27 / 27,,2292,2021-05-20 21:44:45:055
1.051087,-0.699128,14.229176,0.167103,0.688412,9.78103,-0.297086,-0.070926,0.31977,-1957.62,-1937.34,1857.66,136.0172,-4.074,-0.9882,984.8022,55.855846,37.48422,176.654,NaN,,1.1203,1.5,271.4775,27 / 27,,2301,2021-05-20 21:44:45:064
1.051087,-0.699128,14.229176,0.176268,0.658875,9.782904,-0.212176,0.079957,0.294724,-1957.62,-1937.28,1858.0198,136.0172,-4.074,-0.9882,984.8022,55.855846,37.48422,176.654,NaN,,1.1203,1.5,271.4775,27 / 27,,2312,2021-05-20 21:44:45:075
0.706311,-0.866727,16.010515,0.176268,0.658875,9.782904,0.281403,0.311475,0.25624,-1957.62,-1937.28,1858.0198,136.0172,-4.074,-0.9882,984.8152,55.855846,37.48422,176.654,NaN,,1.1203,1.5,271.4775,27 / 27,,2322,2021-05-20 21:44:45:085
0.143657,-0.565049,15.653769,0.148253,0.64789,9.784101,0.705954,0.393331,0.226307,-1957.5,-1937.64,1857.96,136.0172,-4.074,-0.9882,984.8152,55.855846,37.48422,176.654,NaN,,1.1203,1.5,271.4775,27 / 27,,2331,2021-05-20 21:44:45:094
0.143657,-0.565049,15.653769,0.148253,0.64789,9.784101,0.705954,0.393331,0.226307,-1957.5,-1937.64,1857.96,136.0172,-4.074,-0.9882,984.8152,55.855846,37.48422,176.654,NaN,,1.1203,1.5,271.4775,27 / 27,,2341,2021-05-20 21:44:45:104
-0.888276,0.292102,10.850853,0.083366,0.786988,9.774665,0.910594,0.262606,0.187823,-1957.32,-1938.18,1858.44,135.9874,-3.7881,-0.8681,984.8152,55.855846,37.48422,176.654,NaN,,1.1203,1.5,271.4775,27 / 27,,2351,2021-05-20 21:44:45:114
-1.27136,1.077424,7.632948,0.079269,0.87605,9.76712,0.847675,-0.124682,0.060152,-1957.38,-1938.18,1858.62,135.9874,-3.7881,-0.8681,984.8152,55.855846,37.48422,176.654,NaN,,1.1203,1.5,271.4775,27 / 27,,2361,2021-05-20 21:44:45:124
-1.470085,1.084607,7.005648,0.079269,0.87605,9.76712,0.603329,-0.34154,-0.030256,-1957.38,-1938.18,1858.62,135.9874,-3.7881,-0.8681,984.8152,55.855846,37.48422,176.654,NaN,,1.1203,1.5,271.4775,27 / 27,,2371,2021-05-20 21:44:45:134
-1.755003,0.433364,8.039975,0.138304,0.991722,9.755396,0.212986,-0.406291,-0.069962,-1956.48,-1938.54,1858.38,135.9874,-3.7881,-0.8681,984.8152,55.855846,37.48422,176.654,NaN,,1.1203,1.5,271.4775,27 / 27,,2381,2021-05-20 21:44:45:144
-1.755003,0.433364,8.039975,0.138304,0.991722,9.755396,0.212986,-0.406291,-0.069962,-1956.48,-1938.54,1858.38,135.9874,-3.7881,-0.8681,984.8152,55.855846,37.48422,176.654,NaN,,1.1203,1.5,271.4775,27 / 27,,2391,2021-05-20 21:44:45:154
-1.709512,0.069434,9.035994,0.18475,0.953765,9.75841,-0.418649,-0.113076,0.028387,-1956.54,-1939.26,1858.56,136.8323,-5.8041,-0.8122,984.8152,55.855846,37.48422,176.654,NaN,,1.1203,1.5,271.4775,27 / 27,,2401,2021-05-20 21:44:45:164
-1.211503,-0.72786,10.020041,0.18475,0.953765,9.75841,-0.714918,0.177085,0.142619,-1956.54,-1939.26,1858.56,136.8323,-5.8041,-0.8122,984.8152,55.855846,37.48422,176.654,NaN,,1.1203,1.5,271.4775,27 / 27,,2411,2021-05-20 21:44:45:174
-0.828419,-1.235446,10.462981,0.1763,0.891743,9.76443,-0.740575,0.210683,0.159723,-1957.26,-1939.5,1858.56,136.8323,-5.8041,-0.8122,984.8083,55.855846,37.48422,176.654,NaN,,1.1203,1.5,271.4775,27 / 27,,2421,2021-05-20 21:44:45:184
-0.323227,-1.156435,10.506078,0.136782,0.747061,9.777197,-0.641003,0.157537,0.240357,-1957.38,-1939.2,1858.98,136.8323,-5.8041,-0.8122,984.8083,55.855846,37.48422,176.654,NaN,,1.1203,1.5,271.4775,27 / 27,,2431,2021-05-20 21:44:45:194
-0.323227,-1.156435,10.506078,0.136782,0.747061,9.777197,-0.361838,0.027423,0.2709,-1957.38,-1939.2,1858.98,136.8323,-5.8041,-0.8122,984.8083,55.855846,37.48422,176.654,NaN,,1.1203,1.5,271.4775,27 / 27,,2442,2021-05-20 21:44:45:205
0.055068,-0.878699,10.065532,0.123565,0.653386,9.784079,-0.179189,-0.045881,0.262348,-1957.2,-1939.32,1858.62,136.2722,-4.369,-0.8015,984.8083,55.855846,37.48422,176.654,NaN,,1.1203,1.5,271.4775,27 / 27,,2451,2021-05-20 21:44:45:214
0.055068,-0.878699,10.065532,0.123565,0.653386,9.784079,-0.179189,-0.045881,0.262348,-1957.2,-1939.32,1858.62,136.2722,-4.369,-0.8015,984.8083,55.855846,37.48422,176.654,NaN,,1.1203,1.5,271.4775,27 / 27,,2461,2021-05-20 21:44:45:224
0.457306,-0.440547,8.719949,0.12909,0.63451,9.785251,-0.114438,-0.025722,0.267235,-1957.62,-1938.96,1858.44,136.2722,-4.369,-0.8015,984.8083,55.855846,37.48422,176.654,NaN,,1.1203,1.5,271.4775,27 / 27,,2472,2021-05-20 21:44:45:235
0.457306,-0.440547,8.719949,0.12909,0.63451,9.785251,-0.114438,-0.025722,0.267235,-1957.62,-1938.96,1858.44,136.2722,-4.369,-0.8015,984.8083,55.855846,37.48422,176.654,NaN,,1.1203,1.5,271.4775,27 / 27,,2481,2021-05-20 21:44:45:244
0.287313,-0.258582,8.063917,0.132739,0.621952,9.786007,-0.111994,0.059799,0.292281,-1957.5,-1939.14,1858.38,136.0242,-3.7097,-0.7558,984.8083,55.855846,37.48422,176.654,NaN,,1.1203,1.5,271.4775,27 / 27,,2491,2021-05-20 21:44:45:254
-0.134079,0.10056,7.249864,0.098511,0.583953,9.788754,-0.09489,0.188691,0.41201,-1957.38,-1938.78,1857.84,136.0242,-3.7097,-0.7558,984.8083,55.855846,37.48422,176.654,NaN,,1.1203,1.5,271.4775,27 / 27,,2501,2021-05-20 21:44:45:264
-0.134079,0.10056,7.249864,0.098511,0.583953,9.788754,-0.09489,0.188691,0.41201,-1957.38,-1938.78,1857.84,136.0242,-3.7097,-0.7558,984.8083,55.855846,37.48422,176.654,NaN,,1.1203,1.5,271.4775,27 / 27,,2511,2021-05-20 21:44:45:274
-0.134079,0.10056,7.249864,0.098511,0.583953,9.788754,-0.09489,0.188691,0.41201,-1957.38,-1938.78,1857.84,136.0242,-3.7097,-0.7558,984.8083,55.855846,37.48422,176.654,NaN,,1.1203,1.5,271.4775,27 / 27,,2521,2021-05-20 21:44:45:284
-0.138868,0.718282,6.929032,0.084709,0.578936,9.78918,0.072487,0.090342,0.471264,-1957.08,-1938.6,1857.54,135.9892,-3.4138,-0.5766,984.8164,55.855846,37.48422,176.654,NaN,,1.1203,1.5,271.4775,27 / 27,,2531,2021-05-20 21:44:45:294
0.270553,1.264177,6.114978,0.092163,0.62842,9.786061,0.267964,-0.14423,0.385132,-1956.36,-1938.66,1858.26,135.9892,-3.4138,-0.5766,984.8164,55.855846,37.48422,176.654,NaN,,1.1203,1.5,271.4775,27 / 27,,2541,2021-05-20 21:44:45:304
0.490826,1.525153,6.320886,0.092163,0.62842,9.786061,0.227036,-0.219367,0.325267,-1956.36,-1938.66,1858.26,135.9892,-3.4138,-0.5766,984.8164,55.855846,37.48422,176.654,NaN,,1.1203,1.5,271.4775,27 / 27,,2551,2021-05-20 21:44:45:314
0.612934,1.594587,7.125362,0.136742,0.673237,9.782557,0.175112,-0.25724,0.247688,-1956.78,-1939.08,1858.74,136.1171,-3.6741,-0.5396,984.8164,55.855846,37.48422,176.654,NaN,,1.1203,1.5,271.4775,27 / 27,,2561,2021-05-20 21:44:45:324
0.612934,1.594587,7.125362,0.136742,0.673237,9.782557,0.149456,-0.243801,0.178049,-1956.78,-1939.08,1858.74,136.1171,-3.6741,-0.5396,984.8164,55.855846,37.48422,176.654,NaN,,1.1203,1.5,271.4775,27 / 27,,2571,2021-05-20 21:44:45:334
0.684763,1.556279,7.556331,0.187451,0.703299,9.779602,0.125632,-0.223643,0.099247,-1957.56,-1938.72,1857.84,136.1171,-3.6741,-0.5396,984.8164,55.855846,37.48422,176.654,NaN,,1.1203,1.5,271.4775,27 / 27,,2582,2021-05-20 21:44:45:345
0.39745,1.290514,7.728719,0.187451,0.703299,9.779602,0.058437,-0.193099,-0.003989,-1957.56,-1938.72,1857.84,136.1171,-3.6741,-0.5396,984.8164,55.855846,37.48422,176.654,NaN,,1.1203,1.5,271.4775,27 / 27,,2591,2021-05-20 21:44:45:354
0.138868,0.837996,8.413482,0.22815,0.721481,9.777413,-0.036858,-0.20043,-0.053469,-1958.04,-1938.54,1857.78,136.0066,-4.1126,-1.0981,984.8164,55.855846,37.48422,176.654,NaN,,1.1203,1.5,271.4775,27 / 27,,2601,2021-05-20 21:44:45:364
0.138868,0.837996,8.413482,0.22815,0.721481,9.777413,-0.091225,-0.207149,-0.070573,-1958.04,-1938.54,1857.78,136.0066,-4.1126,-1.0981,984.8164,55.855846,37.48422,176.654,NaN,,1.1203,1.5,271.4775,27 / 27,,2611,2021-05-20 21:44:45:374
-0.134079,0.663214,9.320911,0.267255,0.710398,9.777233,-0.083284,-0.251742,-0.086456,-1957.38,-1938.96,1858.56,136.0066,-4.1126,-1.0981,984.824,55.855846,37.48422,176.654,NaN,,1.1203,1.5,271.4775,27 / 27,,2621,2021-05-20 21:44:45:384
-0.143656,0.462095,9.852441,0.267255,0.710398,9.777233,-0.04541,-0.348259,-0.084623,-1957.38,-1938.96,1858.56,136.0066,-4.1126,-1.0981,984.824,55.855846,37.48422,176.654,NaN,,1.1203,1.5,271.4775,27 / 27,,2631,2021-05-20 21:44:45:394
0.351958,0.507586,10.537204,0.32446,0.699025,9.776322,-0.018532,-0.456382,-0.11089,-1957.32,-1939.5,1858.08,135.8096,-4.1542,-1.5658,984.824,55.855846,37.48422,176.654,NaN,,1.1203,1.5,271.4775,27 / 27,,2641,2021-05-20 21:44:45:404
0.809265,0.648849,11.396749,0.32446,0.699025,9.776322,-0.055184,-0.458215,-0.164036,-1957.32,-1939.5,1858.08,135.8096,-4.1542,-1.5658,984.824,55.855846,37.48422,176.654,NaN,,1.1203,1.5,271.4775,27 / 27,,2651,2021-05-20 21:44:45:414
0.809265,0.648849,11.396749,0.410717,0.69452,9.773399,-0.096723,-0.425228,-0.212905,-1958.04,-1939.32,1858.2,135.8096,-4.1542,-1.5658,984.824,55.855846,37.48422,176.654,NaN,,1.1203,1.5,271.4775,27 / 27,,2661,2021-05-20 21:44:45:424
0.979258,0.718282,12.258687,0.410717,0.69452,9.773399,-0.135207,-0.300001,-0.311254,-1958.04,-1939.32,1858.2,135.8096,-4.1542,-1.5658,984.824,55.855846,37.48422,176.654,NaN,,1.1203,1.5,271.4775,27 / 27,,2671,2021-05-20 21:44:45:434
0.66082,0.533923,13.012883,0.478868,0.674717,9.771686,-0.120546,-0.201041,-0.344241,-1958.28,-1938.84,1858.38,135.3568,-4.0612,-2.4064,984.824,55.855846,37.48422,176.654,NaN,,1.1203,1.5,271.4775,27 / 27,,2681,2021-05-20 21:44:45:444
0.220273,0.237033,13.374419,0.478868,0.674717,9.771686,-0.025251,-0.155226,-0.330802,-1958.28,-1938.84,1858.38,135.3568,-4.0612,-2.4064,984.824,55.855846,37.48422,176.654,NaN,,1.1203,1.5,271.4775,27 / 27,,2691,2021-05-20 21:44:45:454
-0.265764,-0.028731,13.417516,0.509852,0.660397,9.771095,0.074931,-0.144841,-0.282543,-1958.34,-1939.08,1857.72,135.3568,-4.0612,-2.4064,984.824,55.855846,37.48422,176.654,NaN,,1.1203,1.5,271.4775,27 / 27,,2701,2021-05-20 21:44:45:464
-0.265764,-0.028731,13.417516,0.509852,0.660397,9.771095,0.164117,-0.157058,-0.199466,-1958.34,-1939.08,1857.72,135.3568,-4.0612,-2.4064,984.824,55.855846,37.48422,176.654,NaN,,1.1203,1.5,271.4775,27 / 27,,2711,2021-05-20 21:44:45:474
-0.689551,0.500403,13.216397,0.534537,0.679155,9.76849,0.164117,-0.157058,-0.199466,-1958.82,-1939.32,1857.18,134.9931,-3.8613,-2.987,984.8259,55.855846,37.48422,176.654,NaN,,1.1203,1.5,271.4775,27 / 27,,2721,2021-05-20 21:44:45:484
-0.708705,1.587404,12.210801,0.534537,0.679155,9.76849,0.221538,-0.190656,-0.124329,-1958.82,-1939.32,1857.18,134.9931,-3.8613,-2.987,984.8259,55.855846,37.48422,176.654,NaN,,1.1203,1.5,271.4775,27 / 27,,2732,2021-05-20 21:44:45:495
0.210696,1.235446,11.152532,0.568928,0.720625,9.763576,0.079207,-0.298168,-0.156094,-1959.06,-1939.0198,1857.18,134.9931,-3.8613,-2.987,984.8259,55.855846,37.48422,176.654,NaN,,1.1203,1.5,271.4775,27 / 27,,2742,2021-05-20 21:44:45:505
1.532336,-0.395055,11.538011,0.568928,0.720625,9.763576,-0.179189,-0.371472,-0.195801,-1959.06,-1939.0198,1857.18,134.9931,-3.8613,-2.987,984.8259,55.855846,37.48422,176.654,NaN,,1.1203,1.5,271.4775,27 / 27,,2752,2021-05-20 21:44:45:515
1.532336,-0.395055,11.538011,0.632106,0.702356,9.761021,-0.576863,-0.26396,-0.217792,-1959.06,-1938.9,1857.48,134.9709,-4.2141,-3.3349,984.8259,55.855846,37.48422,176.654,NaN,,1.1203,1.5,271.4775,27 / 27,,2761,2021-05-20 21:44:45:524
2.370332,-1.407834,13.987353,0.632106,0.702356,9.761021,-0.707588,0.08179,-0.237339,-1959.06,-1938.9,1857.48,134.9709,-4.2141,-3.3349,984.8259,55.855846,37.48422,176.654,NaN,,1.1203,1.5,271.4775,27 / 27,,2771,2021-05-20 21:44:45:534
2.114145,-2.276955,16.283463,0.6515,0.578557,9.767866,-0.395436,0.550934,-0.171366,-1959.84,-1938.96,1857.84,134.9709,-4.2141,-3.3349,984.8259,55.855846,37.48422,176.654,NaN,,1.1203,1.5,271.4775,27 / 27,,2781,2021-05-20 21:44:45:544
1.18756,-1.834014,14.964217,0.6515,0.578557,9.767866,0.081039,0.71709,-0.092564,-1959.84,-1938.96,1857.84,134.9709,-4.2141,-3.3349,984.8259,55.855846,37.48422,176.654,NaN,,1.1203,1.5,271.4775,27 / 27,,2791,2021-05-20 21:44:45:554
0.830813,-0.33041,10.644946,0.535839,0.526036,9.77786,0.442061,0.514893,-0.071795,-1959.96,-1938.42,1857.78,134.4013,-3.3822,-3.8159,984.8259,55.855846,37.48422,176.654,NaN,,1.1203,1.5,271.4775,27 / 27,,2801,2021-05-20 21:44:45:564
0.830813,-0.33041,10.644946,0.535839,0.526036,9.77786,0.570342,0.211293,-0.108447,-1959.96,-1938.42,1857.78,134.4013,-3.3822,-3.8159,984.8259,55.855846,37.48422,176.654,NaN,,1.1203,1.5,271.4775,27 / 27,,2811,2021-05-20 21:44:45:574
1.017567,0.550683,8.437425,0.45767,0.616822,9.776525,0.556292,-0.20776,-0.212905,-1958.94,-1938.12,1857.78,134.4013,-3.3822,-3.8159,984.8218,55.855846,37.48422,176.654,NaN,,1.1203,1.5,271.4775,27 / 27,,2821,2021-05-20 21:44:45:584
1.189955,1.015173,7.316904,0.45767,0.616822,9.776525,0.351653,-0.347648,-0.28743,-1958.94,-1938.12,1857.78,134.4013,-3.3822,-3.8159,984.8218,55.855846,37.48422,176.654,NaN,,1.1203,1.5,271.4775,27 / 27,,2831,2021-05-20 21:44:45:594
1.084607,0.715888,7.398309,0.502635,0.71239,9.767817,0.032781,-0.273734,-0.327137,-1958.58,-1938.3,1857.66,135.0196,-3.6062,-2.6802,984.8218,55.855846,37.48422,176.654,NaN,,1.1203,1.5,271.4775,27 / 27,,2842,2021-05-20 21:44:45:605
0.67758,-0.232245,8.320105,0.502635,0.71239,9.767817,-0.314191,-0.006785,-0.291096,-1958.58,-1938.3,1857.66,135.0196,-3.6062,-2.6802,984.8218,55.855846,37.48422,176.654,NaN,,1.1203,1.5,271.4775,27 / 27,,2851,2021-05-20 21:44:45:614
0.67758,-0.232245,8.320105,0.535539,0.697897,9.767115,-0.487065,0.160592,-0.239172,-1958.82,-1938.54,1857.78,135.0196,-3.6062,-2.6802,984.8218,55.855846,37.48422,176.654,NaN,,1.1203,1.5,271.4775,27 / 27,,2862,2021-05-20 21:44:45:625
0.454912,-0.905036,8.968953,0.535539,0.697897,9.767115,-0.626954,0.331023,-0.142655,-1958.82,-1938.54,1857.78,135.0196,-3.6062,-2.6802,984.8218,55.855846,37.48422,176.654,NaN,,1.1203,1.5,271.4775,27 / 27,,2871,2021-05-20 21:44:45:634
0.33041,-1.376708,9.536397,0.488064,0.590905,9.776656,-0.615347,0.377449,-0.065075,-1958.46,-1937.64,1858.08,135.0097,-4.0809,-3.1384,984.8218,55.855846,37.48422,176.654,NaN,,1.1203,1.5,271.4775,27 / 27,,2881,2021-05-20 21:44:45:644
0.359141,-1.443748,9.720756,0.488064,0.590905,9.776656,-0.537767,0.356679,0.011894,-1958.46,-1937.64,1858.08,135.0097,-4.0809,-3.1384,984.8218,55.855846,37.48422,176.654,NaN,,1.1203,1.5,271.4775,27 / 27,,2892,2021-05-20 21:44:45:655
0.359141,-1.443748,9.720756,0.415741,0.473064,9.786407,-0.416816,0.296815,0.053432,-1958.7,-1937.4,1858.08,135.0097,-4.0809,-3.1384,984.8218,55.855846,37.48422,176.654,NaN,,1.1203,1.5,271.4775,27 / 27,,2901,2021-05-20 21:44:45:664
1.010384,-0.881093,9.569917,0.415741,0.473064,9.786407,-0.275095,0.20213,0.039993,-1958.7,-1937.4,1858.08,135.0097,-4.0809,-3.1384,984.8218,55.855846,37.48422,176.654,NaN,,1.1203,1.5,271.4775,27 / 27,,2911,2021-05-20 21:44:45:674
1.362342,-0.138868,9.253872,0.366922,0.401046,9.791574,-0.013034,0.045138,-0.068741,-1958.64,-1937.58,1858.0198,134.7908,-2.765,-2.4325,984.8308,55.855846,37.48422,176.654,NaN,,1.1203,1.5,271.4775,27 / 27,,2921,2021-05-20 21:44:45:684
1.314457,0.478855,8.686429,0.366922,0.401046,9.791574,0.184275,-0.051379,-0.15304,-1958.64,-1937.58,1858.0198,134.7908,-2.765,-2.4325,984.8308,55.855846,37.48422,176.654,NaN,,1.1203,1.5,271.4775,27 / 27,,2931,2021-05-20 21:44:45:694
1.314457,0.478855,8.686429,0.360012,0.402169,9.791784,0.333327,-0.08742,-0.203742,-1958.1,-1937.28,1857.84,134.7908,-2.765,-2.4325,984.8308,55.855846,37.48422,176.654,NaN,,1.1203,1.5,271.4775,27 / 27,,2941,2021-05-20 21:44:45:704
1.022355,0.804476,7.786182,0.360012,0.402169,9.791784,0.333327,-0.08742,-0.203742,-1958.1,-1937.28,1857.84,134.7908,-2.765,-2.4325,984.8308,55.855846,37.48422,176.654,NaN,,1.1203,1.5,271.4775,27 / 27,,2951,2021-05-20 21:44:45:714
0.945739,1.163618,6.596227,0.375606,0.467227,9.78831,0.379752,-0.054433,-0.236729,-1957.86,-1937.46,1858.08,134.7673,-2.3504,-2.1056,984.8308,55.855846,37.48422,176.654,NaN,,1.1203,1.5,271.4775,27 / 27,,2961,2021-05-20 21:44:45:724
0.849968,1.273754,6.050333,0.375606,0.467227,9.78831,0.334548,-0.007396,-0.260552,-1957.86,-1937.46,1858.08,134.7673,-2.3504,-2.1056,984.8308,55.855846,37.48422,176.654,NaN,,1.1203,1.5,271.4775,27 / 27,,2971,2021-05-20 21:44:45:734
0.849968,1.273754,6.050333,0.376482,0.534713,9.784822,0.217873,0.078736,-0.280711,-1958.1,-1937.22,1858.32,134.7673,-2.3504,-2.1056,984.8308,55.855846,37.48422,176.654,NaN,,1.1203,1.5,271.4775,27 / 27,,2981,2021-05-20 21:44:45:744
0.622511,1.180378,5.99287,0.376482,0.534713,9.784822,0.086537,0.150818,-0.286209,-1958.1,-1937.22,1858.32,134.7673,-2.3504,-2.1056,984.8308,55.855846,37.48422,176.654,NaN,,1.1203,1.5,271.4775,27 / 27,,2991,2021-05-20 21:44:45:754
0.289707,1.115732,6.409474,0.350976,0.564122,9.784118,0.037057,0.186248,-0.267883,-1958.28,-1937.16,1858.0198,135.046,-3.1256,-2.2034,984.8308,55.855846,37.48422,176.654,NaN,,1.1203,1.5,271.4775,27 / 27,,3002,2021-05-20 21:44:45:765
-0.004789,0.984047,6.893117,0.331877,0.568952,9.784505,0.029727,0.192357,-0.234896,-1958.04,-1937.16,1858.32,135.046,-3.1256,-2.2034,984.8308,55.855846,37.48422,176.654,NaN,,1.1203,1.5,271.4775,27 / 27,,3012,2021-05-20 21:44:45:775
-0.004789,0.984047,6.893117,0.331877,0.568952,9.784505,0.042555,0.158759,-0.167701,-1958.04,-1937.16,1858.32,135.046,-3.1256,-2.2034,984.8274,55.855846,37.48422,176.654,NaN,,1.1203,1.5,271.4775,27 / 27,,3021,2021-05-20 21:44:45:784
-0.002394,0.962499,7.391126,0.294526,0.577886,9.785177,0.073709,0.122718,-0.126773,-1958.16,-1937.16,1857.96,135.046,-3.1256,-2.2034,984.8274,55.855846,37.48422,176.654,NaN,,1.1203,1.5,271.4775,27 / 27,,3031,2021-05-20 21:44:45:794
0.304073,1.163618,7.87477,0.294526,0.577886,9.785177,0.073709,0.122718,-0.126773,-1958.16,-1937.16,1857.96,135.046,-3.1256,-2.2034,984.8274,55.855846,37.48422,176.654,NaN,,1.1203,1.5,271.4775,27 / 27,,3041,2021-05-20 21:44:45:804
0.596174,1.407834,8.114198,0.268901,0.594132,9.784943,0.103641,0.10989,-0.116388,-1957.86,-1936.98,1857.72,135.3759,-3.3783,-1.724,984.8274,55.855846,37.48422,176.654,NaN,,1.1203,1.5,271.4775,27 / 27,,3052,2021-05-20 21:44:45:815
0.87391,1.623318,8.174054,0.268901,0.594132,9.784943,0.122578,0.092786,-0.130438,-1957.86,-1936.98,1857.72,135.3759,-3.3783,-1.724,984.8274,55.855846,37.48422,176.654,NaN,,1.1203,1.5,271.4775,27 / 27,,3061,2021-05-20 21:44:45:824
0.87391,1.623318,8.174054,0.249081,0.619903,9.783867,0.135406,0.050636,-0.165868,-1957.92,-1937.22,1858.0198,135.3759,-3.3783,-1.724,984.8274,55.855846,37.48422,176.654,NaN,,1.1203,1.5,271.4775,27 / 27,,3071,2021-05-20 21:44:45:834
0.682368,1.757398,8.609812,0.249081,0.619903,9.783867,0.169004,-6.6E-5,-0.206185,-1957.92,-1937.22,1858.0198,135.3759,-3.3783,-1.724,984.8274,55.855846,37.484196,176.7301,NaN,,1.3272,1.5,270.3466,26 / 27,,3082,2021-05-20 21:44:45:845
0.241822,1.616136,8.985713,0.244669,0.65433,9.781736,0.266131,-0.091696,-0.197022,-1958.16,-1937.1,1858.08,135.6043,-3.6242,-1.4583,984.8274,55.855846,37.484196,176.7301,NaN,,1.3272,1.5,270.3466,26 / 27,,3091,2021-05-20 21:44:45:854
-0.002394,1.410228,8.827691,0.244669,0.65433,9.781736,0.252692,-0.146063,-0.138379,-1958.16,-1937.1,1858.08,135.6043,-3.6242,-1.4583,984.8274,55.855846,37.484196,176.7301,NaN,,1.3272,1.5,270.3466,26 / 27,,3101,2021-05-20 21:44:45:864
0.093377,1.357554,9.050359,0.263289,0.707418,9.777557,0.173891,-0.168054,-0.088288,-1957.86,-1937.46,1858.44,135.6043,-3.6242,-1.4583,984.8274,55.855846,37.484196,176.7301,NaN,,1.3272,1.5,270.3466,26 / 27,,3112,2021-05-20 21:44:45:875
0.093377,1.357554,9.050359,0.263289,0.707418,9.777557,0.009568,-0.141176,-0.021093,-1957.86,-1937.46,1858.44,135.6043,-3.6242,-1.4583,984.8298,55.855846,37.484196,176.7301,NaN,,1.3272,1.5,270.3466,26 / 27,,3121,2021-05-20 21:44:45:884
0.531529,1.426988,10.326508,0.294422,0.730388,9.774981,-0.077786,-0.064818,-3.24E-4,-1957.2,-1938.18,1857.9,135.8001,-4.1367,-1.5425,984.8298,55.855846,37.484196,176.7301,NaN,,1.3272,1.5,270.3466,26 / 27,,3131,2021-05-20 21:44:45:894
0.948133,1.180378,11.547587,0.294422,0.730388,9.774981,-0.112605,0.001156,0.008839,-1957.2,-1938.18,1857.9,135.8001,-4.1367,-1.5425,984.8298,55.855846,37.484196,176.7301,NaN,,1.3272,1.5,270.3466,26 / 27,,3141,2021-05-20 21:44:45:904
0.864333,0.926584,12.780639,0.302266,0.714549,9.775911,-0.064958,0.068962,0.027165,-1956.9,-1938.3,1857.54,135.8001,-4.1367,-1.5425,984.8298,55.855846,37.484196,176.7301,NaN,,1.3272,1.5,270.3466,26 / 27,,3151,2021-05-20 21:44:45:914
0.739831,0.833208,13.400756,0.302266,0.714549,9.775911,0.029727,0.115998,0.046102,-1956.9,-1938.3,1857.54,135.8001,-4.1367,-1.5425,984.8298,55.855846,37.484196,176.7301,NaN,,1.3272,1.5,270.3466,26 / 27,,3161,2021-05-20 21:44:45:924
0.739831,0.833208,13.400756,0.28601,0.710373,9.776705,0.20871,0.111112,0.086419,-1957.68,-1938.12,1857.84,135.6922,-4.1785,-1.771,984.8298,55.855846,37.484196,176.7301,NaN,,1.3272,1.5,270.3466,26 / 27,,3171,2021-05-20 21:44:45:934
0.349564,0.950527,13.271465,0.28601,0.710373,9.776705,0.309503,0.087899,0.132234,-1957.68,-1938.12,1857.84,135.6922,-4.1785,-1.771,984.8298,55.855846,37.484196,176.7301,NaN,,1.3272,1.5,270.3466,26 / 27,,3181,2021-05-20 21:44:45:944
-0.040703,1.755004,12.373612,0.267421,0.756095,9.773801,0.307059,0.045138,0.168275,-1958.04,-1938.18,1858.5,135.6922,-4.1785,-1.771,984.8298,55.855846,37.484196,176.7301,NaN,,1.3272,1.5,270.3466,26 / 27,,3191,2021-05-20 21:44:45:954
0.002394,2.360755,11.080704,0.267421,0.756095,9.773801,0.15251,-0.023279,0.153614,-1958.04,-1938.18,1858.5,135.6922,-4.1785,-1.771,984.8298,55.855846,37.484196,176.7301,NaN,,1.3272,1.5,270.3466,26 / 27,,3201,2021-05-20 21:44:45:964
1.000807,1.403045,10.925076,0.264316,0.807399,9.769781,-0.112605,-0.129569,0.119406,-1957.56,-1937.82,1858.26,135.8878,-4.4219,-1.5673,984.8298,55.855846,37.484196,176.7301,NaN,,1.3272,1.5,270.3466,26 / 27,,3211,2021-05-20 21:44:45:974
1.000807,1.403045,10.925076,0.264316,0.807399,9.769781,-0.478513,-0.190045,0.061374,-1957.56,-1937.82,1858.26,135.8878,-4.4219,-1.5673,984.8313,55.855846,37.484196,176.7301,NaN,,1.3272,1.5,270.3466,26 / 27,,3221,2021-05-20 21:44:45:984
1.687964,0.505192,13.484556,0.297699,0.753335,9.773139,-0.603741,-0.046492,0.00212,-1957.62,-1937.76,1858.26,135.8878,-4.4219,-1.5673,984.8313,55.855846,37.484196,176.7301,NaN,,1.3272,1.5,270.3466,26 / 27,,3231,2021-05-20 21:44:45:994
1.762186,-0.555472,16.003332,0.297699,0.753335,9.773139,-0.43392,0.152039,-0.038808,-1957.62,-1937.76,1858.26,135.8878,-4.4219,-1.5673,984.8313,55.855846,37.484196,176.7301,NaN,,1.3272,1.5,270.3466,26 / 27,,3241,2021-05-20 21:44:46:004
1.017567,-1.2546,17.040054,0.29731,0.645635,9.780856,-0.006315,0.324914,-0.050415,-1958.04,-1938.3,1858.62,135.796,-4.4057,-1.7447,984.8313,55.855846,37.484196,176.7301,NaN,,1.3272,1.5,270.3466,26 / 27,,3252,2021-05-20 21:44:46:015
1.017567,-1.2546,17.040054,0.29731,0.645635,9.780856,-0.006315,0.324914,-0.050415,-1958.04,-1938.3,1858.62,135.796,-4.4057,-1.7447,984.8313,55.855846,37.484196,176.7301,NaN,,1.3272,1.5,270.3466,26 / 27,,3261,2021-05-20 21:44:46:024
-0.014366,-1.103761,14.913938,0.269066,0.632322,9.782543,0.525749,0.386001,-0.008265,-1957.74,-1937.64,1858.56,135.796,-4.4057,-1.7447,984.8313,55.855846,37.484196,176.7301,NaN,,1.3272,1.5,270.3466,26 / 27,,3271,2021-05-20 21:44:46:034
-0.739831,0.062251,9.996098,0.200976,0.748988,9.775941,0.944803,0.167922,0.003952,-1957.74,-1937.64,1858.56,135.796,-4.4057,-1.7447,984.8313,55.855846,37.484196,176.7301,NaN,,1.3272,1.5,270.3466,26 / 27,,3281,2021-05-20 21:44:46:044
-1.101366,0.986441,6.854809,0.200976,0.748988,9.775941,0.894712,-0.096583,-0.052247,-1957.26,-1937.1,1858.38,136.0622,-4.3803,-1.1777,984.8313,55.855846,37.484196,176.7301,NaN,,1.3272,1.5,270.3466,26 / 27,,3291,2021-05-20 21:44:46:054
-1.343188,1.22108,5.62894,0.197802,0.928927,9.76055,0.640592,-0.331155,-0.104782,-1957.26,-1937.1,1858.38,136.0622,-4.3803,-1.1777,984.8313,55.855846,37.484196,176.7301,NaN,,1.3272,1.5,270.3466,26 / 27,,3301,2021-05-20 21:44:46:064
-1.343188,1.22108,5.62894,0.197802,0.928927,9.76055,0.265521,-0.46188,-0.123108,-1957.32,-1938.24,1858.14,136.0622,-4.3803,-1.1777,984.8313,55.855846,37.484196,176.7301,NaN,,1.3272,1.5,270.3466,26 / 27,,3311,2021-05-20 21:44:46:074
-1.460508,0.787716,6.732701,0.272022,1.016743,9.750007,-0.101609,-0.371472,-0.07546,-1957.32,-1938.24,1858.14,136.0622,-4.3803,-1.1777,984.8276,55.855846,37.484196,176.7301,NaN,,1.3272,1.5,270.3466,26 / 27,,3321,2021-05-20 21:44:46:084
-1.398256,0.258582,8.640938,0.272022,1.016743,9.750007,-0.351453,-0.099637,0.014948,-1957.2,-1939.2,1857.9,136.4919,-5.9511,-1.5981,984.8276,55.855846,37.484196,176.7301,NaN,,1.3272,1.5,270.3466,26 / 27,,3331,2021-05-20 21:44:46:094
-1.194743,-0.323227,9.364009,0.315581,0.971778,9.753278,-0.493785,0.127605,0.088252,-1957.2,-1939.2,1857.9,136.4919,-5.9511,-1.5981,984.8276,55.855846,37.484196,176.7301,NaN,,1.3272,1.5,270.3466,26 / 27,,3341,2021-05-20 21:44:46:104
-0.972076,-0.57702,9.423865,0.315581,0.971778,9.753278,-0.495007,0.198465,0.145673,-1956.84,-1939.08,1858.0198,136.4919,-5.9511,-1.5981,984.8276,55.855846,37.484196,176.7301,NaN,,1.3272,1.5,270.3466,26 / 27,,3351,2021-05-20 21:44:46:114
-0.972076,-0.57702,9.423865,0.28378,0.873401,9.763556,-0.402155,0.116609,0.170719,-1956.84,-1939.08,1858.0198,136.4919,-5.9511,-1.5981,984.8276,55.855846,37.484196,176.7301,NaN,,1.3272,1.5,270.3466,26 / 27,,3361,2021-05-20 21:44:46:124
-0.668003,-0.624906,9.182044,0.28378,0.873401,9.763556,-0.284869,-0.021446,0.176216,-1957.2,-1939.08,1858.68,136.1389,-5.1097,-1.6648,984.8276,55.855846,37.484196,176.7301,NaN,,1.3272,1.5,270.3466,26 / 27,,3372,2021-05-20 21:44:46:135
-0.416604,-0.502798,9.035994,0.273728,0.802446,9.769931,-0.203624,-0.085587,0.180492,-1957.2,-1939.08,1858.68,136.1389,-5.1097,-1.6648,984.8276,55.855846,37.484196,176.7301,NaN,,1.3272,1.5,270.3466,26 / 27,,3381,2021-05-20 21:44:46:144
-0.265764,-0.102954,8.813326,0.273728,0.802446,9.769931,-0.162085,-0.058709,0.189655,-1957.98,-1939.2,1858.38,136.1389,-5.1097,-1.6648,984.8276,55.855846,37.484196,176.7301,NaN,,1.3272,1.5,270.3466,26 / 27,,3392,2021-05-20 21:44:46:155
-0.289707,0.162811,8.363202,0.289679,0.762633,9.772659,-0.160863,0.027423,0.211646,-1957.98,-1939.2,1858.38,136.1389,-5.1097,-1.6648,984.8276,55.855846,37.484196,176.7301,NaN,,1.3272,1.5,270.3466,26 / 27,,3401,2021-05-20 21:44:46:164
-0.289707,0.162811,8.363202,0.289679,0.762633,9.772659,-0.177968,0.108668,0.239746,-1957.86,-1938.9,1857.48,135.8528,-4.4602,-1.6979,984.8276,55.855846,37.484196,176.7301,NaN,,1.3272,1.5,270.3466,26 / 27,,3411,2021-05-20 21:44:46:174
-0.354353,0.418998,7.793365,0.281732,0.727525,9.775568,-0.223172,0.163035,0.2709,-1957.86,-1938.9,1857.48,135.8528,-4.4602,-1.6979,984.8254,55.855846,37.484196,176.7301,NaN,,1.3272,1.5,270.3466,26 / 27,,3422,2021-05-20 21:44:46:185
-0.368718,0.699128,7.460561,0.281732,0.727525,9.775568,-0.233556,0.168533,0.2709,-1957.8,-1938.12,1857.72,135.8528,-4.4602,-1.6979,984.8254,55.855846,37.484196,176.7301,NaN,,1.3272,1.5,270.3466,26 / 27,,3431,2021-05-20 21:44:46:194
-0.361535,0.835602,7.585063,0.252521,0.682517,9.779611,-0.211565,0.155705,0.254407,-1957.8,-1938.12,1857.72,135.8528,-4.4602,-1.6979,984.8254,55.855846,37.484196,176.7301,NaN,,1.3272,1.5,270.3466,26 / 27,,3441,2021-05-20 21:44:46:204
-0.34717,0.629694,7.80773,0.252521,0.682517,9.779611,-0.166972,0.121496,0.232416,-1957.5,-1937.94,1858.0198,135.7719,-3.9909,-1.4791,984.8254,55.855846,37.484196,176.7301,NaN,,1.3272,1.5,270.3466,26 / 27,,3451,2021-05-20 21:44:46:214
-0.34717,0.629694,7.80773,0.224983,0.640584,9.783119,-0.102831,0.070794,0.217144,-1957.5,-1937.94,1858.0198,135.7719,-3.9909,-1.4791,984.8254,55.855846,37.484196,176.7301,NaN,,1.3272,1.5,270.3466,26 / 27,,3461,2021-05-20 21:44:46:224
-0.402238,0.385478,8.174054,0.224983,0.640584,9.783119,-0.006925,5.45E-4,0.21409,-1957.26,-1938.24,1857.96,135.7719,-3.9909,-1.4791,984.8254,55.855846,37.484196,176.7301,NaN,,1.3272,1.5,270.3466,26 / 27,,3471,2021-05-20 21:44:46:234
-0.567443,0.251399,8.621783,0.214541,0.621703,9.784573,0.107917,-0.058709,0.239746,-1957.26,-1938.24,1857.96,135.7719,-3.9909,-1.4791,984.8254,55.855846,37.484196,176.7301,NaN,,1.3272,1.5,270.3466,26 / 27,,3481,2021-05-20 21:44:46:244
-0.538712,0.208302,8.741497,0.214541,0.621703,9.784573,0.223982,-0.08742,0.278231,-1957.8,-1938.54,1858.26,135.7342,-3.6348,-1.2561,984.8254,55.855846,37.484196,176.7301,NaN,,1.3272,1.5,270.3466,26 / 27,,3492,2021-05-20 21:44:46:255
-0.344776,0.450124,8.382356,0.227568,0.643856,9.782845,0.278349,-0.110022,0.318548,-1957.8,-1938.54,1858.26,135.7342,-3.6348,-1.2561,984.8254,55.855846,37.484196,176.7301,NaN,,1.3272,1.5,270.3466,26 / 27,,3501,2021-05-20 21:44:46:264
-0.344776,0.450124,8.382356,0.227568,0.643856,9.782845,0.278349,-0.110022,0.318548,-1957.5,-1938.18,1857.78,135.7342,-3.6348,-1.2561,984.8254,55.855846,37.484196,176.7301,NaN,,1.3272,1.5,270.3466,26 / 27,,3511,2021-05-20 21:44:46:274
-0.148445,0.668003,8.109409,0.250761,0.694699,9.778798,0.283236,-0.113076,0.330154,-1957.5,-1938.18,1857.78,135.7342,-3.6348,-1.2561,984.8218,55.855846,37.484196,176.7301,NaN,,1.3272,1.5,270.3466,26 / 27,,3521,2021-05-20 21:44:46:284
0.21309,1.218686,7.90829,0.250761,0.694699,9.778798,0.220317,-0.077035,0.328933,-1956.72,-1937.94,1857.72,135.8057,-4.0622,-1.4689,984.8218,55.855846,37.484196,176.7301,NaN,,1.3272,1.5,270.3466,26 / 27,,3531,2021-05-20 21:44:46:294
0.620117,1.702329,7.637737,0.270434,0.737001,9.775177,0.144569,-0.073981,0.280063,-1956.72,-1937.94,1857.72,135.8057,-4.0622,-1.4689,984.8218,55.855846,37.484196,176.7301,NaN,,1.3272,1.5,270.3466,26 / 27,,3541,2021-05-20 21:44:46:304
0.548289,1.766975,8.073495,0.270434,0.737001,9.775177,0.044387,-0.106357,0.193931,-1956.6,-1938.54,1858.0198,135.8057,-4.0622,-1.4689,984.8218,55.855846,37.484196,176.7301,NaN,,1.3272,1.5,270.3466,26 / 27,,3551,2021-05-20 21:44:46:314
0.548289,1.766975,8.073495,0.293224,0.747864,9.773695,-0.033193,-0.163778,0.109632,-1956.6,-1938.54,1858.0198,135.8057,-4.0622,-1.4689,984.8218,55.855846,37.484196,176.7301,NaN,,1.3272,1.5,270.3466,26 / 27,,3561,2021-05-20 21:44:46:324
0.292102,1.575433,9.134158,0.293224,0.747864,9.773695,-0.067401,-0.208982,0.041826,-1957.32,-1938.48,1857.84,135.8096,-4.3737,-1.7184,984.8218,55.855846,37.484196,176.7301,NaN,,1.3272,1.5,270.3466,26 / 27,,3571,2021-05-20 21:44:46:334
0.047885,1.118126,10.161303,0.332443,0.736435,9.773307,-0.058849,-0.224864,0.019835,-1957.32,-1938.48,1857.84,135.8096,-4.3737,-1.7184,984.8218,55.855846,37.484196,176.7301,NaN,,1.3272,1.5,270.3466,26 / 27,,3582,2021-05-20 21:44:46:345
0.014366,0.699128,10.795785,0.332443,0.736435,9.773307,-0.020364,-0.243801,0.020446,-1957.62,-1938.6,1857.84,135.8096,-4.3737,-1.7184,984.8218,55.855846,37.484196,176.7301,NaN,,1.3272,1.5,270.3466,26 / 27,,3592,2021-05-20 21:44:46:355
0.452518,0.282524,11.186052,0.379886,0.733127,9.771828,0.020564,-0.262738,0.033885,-1957.62,-1938.6,1857.84,135.8096,-4.3737,-1.7184,984.8218,55.855846,37.484196,176.7301,NaN,,1.3272,1.5,270.3466,26 / 27,,3601,2021-05-20 21:44:46:364
0.452518,0.282524,11.186052,0.379886,0.733127,9.771828,0.02545,-0.284118,0.022889,-1958.1,-1939.14,1858.08,135.5314,-4.2873,-2.2263,984.8218,55.855846,37.484196,176.7301,NaN,,1.3272,1.5,270.3466,26 / 27,,3611,2021-05-20 21:44:46:374
0.854756,0.222668,11.684061,0.434306,0.738285,9.769171,0.013844,-0.270679,-0.017428,-1958.1,-1939.14,1858.08,135.5314,-4.2873,-2.2263,984.8188,55.855846,37.484196,176.7301,NaN,,1.3272,1.5,270.3466,26 / 27,,3621,2021-05-20 21:44:46:384
0.876305,0.301679,12.024048,0.434306,0.738285,9.769171,0.028505,-0.266403,-0.069962,-1958.88,-1939.08,1858.32,135.5314,-4.2873,-2.2263,984.8188,55.855846,37.484196,176.7301,NaN,,1.3272,1.5,270.3466,26 / 27,,3631,2021-05-20 21:44:46:394
0.718282,0.351958,12.162916,0.485265,0.743044,9.766411,0.038279,-0.259684,-0.107836,-1958.88,-1939.08,1858.32,135.5314,-4.2873,-2.2263,984.8188,55.855846,37.484196,176.7301,NaN,,1.3272,1.5,270.3466,26 / 27,,3642,2021-05-20 21:44:46:405
0.402238,0.720677,12.359246,0.485265,0.743044,9.766411,0.040722,-0.226697,-0.120664,-1958.7,-1938.78,1857.84,135.2489,-4.3454,-2.8445,984.8188,55.855846,37.484196,176.7301,NaN,,1.3272,1.5,270.3466,26 / 27,,3651,2021-05-20 21:44:46:414
0.402238,0.720677,12.359246,0.530031,0.751428,9.763442,0.071876,-0.199208,-0.108447,-1958.7,-1938.78,1857.84,135.2489,-4.3454,-2.8445,984.8188,55.855846,37.484196,176.7301,NaN,,1.3272,1.5,270.3466,26 / 27,,3661,2021-05-20 21:44:46:424
0.01676,1.656838,11.875603,0.530031,0.751428,9.763442,0.070044,-0.237693,-0.135325,-1958.4,-1939.08,1857.72,135.2489,-4.3454,-2.8445,984.8188,55.855846,37.484196,176.7301,NaN,,1.3272,1.5,270.3466,26 / 27,,3672,2021-05-20 21:44:46:435
0.014366,1.776552,10.867614,0.569352,0.767128,9.760007,-0.036858,-0.359255,-0.187859,-1958.4,-1939.08,1857.72,135.2489,-4.3454,-2.8445,984.8188,55.855846,37.484196,176.7301,NaN,,1.3272,1.5,270.3466,26 / 27,,3681,2021-05-20 21:44:46:444
0.986441,0.361536,10.46777,0.569352,0.767128,9.760007,-0.34229,-0.457604,-0.245892,-1958.34,-1939.2,1857.78,135.0881,-4.4866,-3.3386,984.8188,55.855846,37.484196,176.7301,NaN,,1.3272,1.5,270.3466,26 / 27,,3691,2021-05-20 21:44:46:454
1.709512,-1.240234,11.851661,0.64299,0.745944,9.757075,-0.662384,-0.328101,-0.237339,-1958.34,-1939.2,1857.78,135.0881,-4.4866,-3.3386,984.8188,55.855846,37.484196,176.7301,NaN,,1.3272,1.5,270.3466,26 / 27,,3702,2021-05-20 21:44:46:465
1.611347,-2.461314,14.451842,0.64299,0.745944,9.757075,-0.865191,-0.007396,-0.193357,-1959.36,-1938.66,1857.72,135.0881,-4.4866,-3.3386,984.8188,55.855846,37.484196,176.7301,NaN,,1.3272,1.5,270.3466,26 / 27,,3711,2021-05-20 21:44:46:474
1.611347,-2.461314,14.451842,0.694052,0.616551,9.762609,-0.865191,-0.007396,-0.193357,-1959.36,-1938.66,1857.72,135.0881,-4.4866,-3.3386,984.8225,55.855846,37.484196,176.7301,NaN,,1.3272,1.5,270.3466,26 / 27,,3721,2021-05-20 21:44:46:484
1.283331,-2.830033,16.041641,0.694052,0.616551,9.762609,-0.762566,0.552156,-0.037587,-1960.2,-1937.88,1858.0198,134.3773,-3.6046,-4.0665,984.8225,55.855846,37.484196,176.7301,NaN,,1.3272,1.5,270.3466,26 / 27,,3732,2021-05-20 21:44:46:495
0.893065,-1.757398,14.116644,0.600725,0.46696,9.777088,-0.414372,0.775733,0.069926,-1960.2,-1937.88,1858.0198,134.3773,-3.6046,-4.0665,984.8225,55.855846,37.484196,176.7301,NaN,,1.3272,1.5,270.3466,26 / 27,,3741,2021-05-20 21:44:46:504
1.031933,-0.735042,11.466182,0.527318,0.444945,9.782349,-0.020975,0.64684,0.099247,-1960.0198,-1937.16,1857.6,134.3773,-3.6046,-4.0665,984.8225,55.855846,37.484196,176.7301,NaN,,1.3272,1.5,270.3466,26 / 27,,3751,2021-05-20 21:44:46:514
1.031933,0.754197,9.057542,0.527318,0.444945,9.782349,0.287512,0.155705,0.01678,-1960.0198,-1937.16,1857.6,134.3773,-3.6046,-4.0665,984.8225,55.855846,37.484196,176.7301,NaN,,1.3272,1.5,270.3466,26 / 27,,3761,2021-05-20 21:44:46:524
1.726272,0.754197,9.057542,0.487657,0.490222,9.782242,0.403576,-0.394074,-0.175642,-1959.18,-1937.34,1857.48,134.4122,-2.6005,-3.0855,984.8225,55.855846,37.484196,176.7301,NaN,,1.3272,1.5,270.3466,26 / 27,,3771,2021-05-20 21:44:46:534
2.018374,1.276149,8.74868,0.487657,0.490222,9.782242,0.254525,-0.548012,-0.39983,-1959.18,-1937.34,1857.48,134.4122,-2.6005,-3.0855,984.8225,55.855846,37.484196,176.7301,NaN,,1.3272,1.5,270.3466,26 / 27,,3782,2021-05-20 21:44:46:545
1.673598,0.876305,9.220352,0.586574,0.560748,9.773018,-0.010591,-0.296336,-0.453586,-1958.64,-1937.5198,1857.42,134.4122,-2.6005,-3.0855,984.8225,55.855846,37.484196,176.7301,NaN,,1.3272,1.5,270.3466,26 / 27,,3791,2021-05-20 21:44:46:554
0.778139,0.203513,9.57231,0.586574,0.560748,9.773018,-0.253715,0.070794,-0.396775,-1958.64,-1937.5198,1857.42,134.4122,-2.6005,-3.0855,984.8225,55.855846,37.484196,176.7301,NaN,,1.3272,1.5,270.3466,26 / 27,,3801,2021-05-20 21:44:46:564
0.778139,0.203513,9.57231,0.63099,0.558248,9.770394,-0.367947,0.273602,-0.297204,-1958.88,-1937.82,1857.12,134.5442,-3.278,-3.4348,984.8225,55.855846,37.484196,176.7301,NaN,,1.3272,1.5,270.3466,26 / 27,,3811,2021-05-20 21:44:46:574
0.402238,-0.378295,9.495694,0.63099,0.558248,9.770394,-0.364892,0.332856,-0.198244,-1958.88,-1937.82,1857.12,134.5442,-3.278,-3.4348,984.8274,55.855846,37.484196,176.7301,NaN,,1.3272,1.5,270.3466,26 / 27,,3821,2021-05-20 21:44:46:584
0.442941,-0.550683,9.296969,0.575673,0.490309,9.777452,-0.287313,0.281543,-0.135325,-1958.94,-1938.0,1857.48,134.5442,-3.278,-3.4348,984.8274,55.855846,37.484196,176.7301,NaN,,1.3272,1.5,270.3466,26 / 27,,3831,2021-05-20 21:44:46:594
0.866728,-0.538712,9.088667,0.575673,0.490309,9.777452,-0.199348,0.21618,-0.119442,-1958.94,-1938.0,1857.48,134.5442,-3.278,-3.4348,984.8274,55.855846,37.484196,176.7301,NaN,,1.3272,1.5,270.3466,26 / 27,,3842,2021-05-20 21:44:46:605
1.091789,-0.311256,8.988108,0.522002,0.436493,9.783014,-0.103442,0.186859,-0.137158,-1958.82,-1937.46,1858.14,134.3934,-2.8658,-3.3695,984.8274,55.855846,37.484196,176.7301,NaN,,1.3272,1.5,270.3466,26 / 27,,3851,2021-05-20 21:44:46:614
1.091789,-0.311256,8.988108,0.522002,0.436493,9.783014,-0.103442,0.186859,-0.137158,-1958.82,-1937.46,1858.14,134.3934,-2.8658,-3.3695,984.8274,55.855846,37.484196,176.7301,NaN,,1.3272,1.5,270.3466,26 / 27,,3861,2021-05-20 21:44:46:624
1.098972,0.079011,8.43503,0.485659,0.419089,9.785646,-0.008758,0.164257,-0.173199,-1958.76,-1937.5198,1857.9,134.3934,-2.8658,-3.3695,984.8274,55.855846,37.484196,176.7301,NaN,,1.3272,1.5,270.3466,26 / 27,,3871,2021-05-20 21:44:46:634
0.816448,0.337593,7.822096,0.472643,0.422579,9.786134,0.069433,0.094618,-0.256887,-1958.04,-1937.28,1857.9,134.3934,-2.8658,-3.3695,984.8274,55.855846,37.484196,176.7301,NaN,,1.3272,1.5,270.3466,26 / 27,,3881,2021-05-20 21:44:46:644
0.519558,0.622511,7.376761,0.472643,0.422579,9.786134,0.132352,0.040251,-0.302702,-1958.04,-1937.28,1857.9,134.3934,-2.8658,-3.3695,984.8274,55.855846,37.484196,176.7301,NaN,,1.3272,1.5,270.3466,26 / 27,,3891,2021-05-20 21:44:46:654
0.134079,0.658426,6.926637,0.461382,0.448466,9.78552,0.137239,0.081179,-0.331413,-1957.98,-1936.8,1858.38,134.5162,-2.4697,-2.7651,984.8274,55.855846,37.484196,176.7301,NaN,,1.3272,1.5,270.3466,26 / 27,,3902,2021-05-20 21:44:46:665
0.134079,0.658426,6.926637,0.461382,0.448466,9.78552,0.137239,0.081179,-0.331413,-1957.98,-1936.8,1858.38,134.5162,-2.4697,-2.7651,984.8274,55.855846,37.484196,176.7301,NaN,,1.3272,1.5,270.3466,26 / 27,,3911,2021-05-20 21:44:46:674
-0.225062,0.7111,6.622565,0.444809,0.478418,9.784868,0.104863,0.135546,-0.298426,-1958.94,-1936.56,1858.38,134.5162,-2.4697,-2.7651,984.8274,55.855846,37.484196,176.7301,NaN,,1.3272,1.5,270.3466,26 / 27,,3921,2021-05-20 21:44:46:684
-0.517163,0.5435,6.505245,0.428036,0.488593,9.785113,0.069433,0.182583,-0.235507,-1959.12,-1936.56,1858.26,134.5162,-2.4697,-2.7651,984.8274,55.855846,37.484196,176.7301,NaN,,1.3272,1.5,270.3466,26 / 27,,3932,2021-05-20 21:44:46:695
-0.481249,0.555472,6.737489,0.428036,0.488593,9.785113,0.041333,0.204574,-0.147542,-1959.12,-1936.56,1858.26,134.5162,-2.4697,-2.7651,984.8274,55.855846,37.484196,176.7301,NaN,,1.3272,1.5,270.3466,26 / 27,,3941,2021-05-20 21:44:46:704
-0.481249,0.555472,6.737489,0.38803,0.49969,9.786222,0.01812,0.211293,-0.073628,-1958.82,-1936.26,1858.44,134.767,-2.8558,-2.5047,984.8274,55.855846,37.484196,176.7301,NaN,,1.3272,1.5,270.3466,26 / 27,,3952,2021-05-20 21:44:46:715
-0.181965,0.689551,7.075082,0.38803,0.49969,9.786222,0.008346,0.206406,-0.020482,-1958.82,-1936.26,1858.44,134.767,-2.8558,-2.5047,984.8274,55.855846,37.484196,176.7301,NaN,,1.3272,1.5,270.3466,26 / 27,,3961,2021-05-20 21:44:46:724
0.301679,0.952921,7.285778,0.346277,0.502332,9.787652,0.008957,0.17342,0.004563,-1957.86,-1936.38,1858.44,134.767,-2.8558,-2.5047,984.8274,55.855846,37.484196,176.7301,NaN,,1.3272,1.5,270.3466,26 / 27,,3972,2021-05-20 21:44:46:735
0.7111,1.290514,7.59464,0.346277,0.502332,9.787652,0.007735,0.123329,-0.013152,-1957.86,-1936.38,1858.44,134.767,-2.8558,-2.5047,984.8274,55.855846,37.484196,176.7301,NaN,,1.3272,1.5,270.3466,26 / 27,,3981,2021-05-20 21:44:46:744
0.806871,1.613741,8.039975,0.319008,0.505014,9.788441,0.018731,0.086677,-0.044306,-1957.14,-1936.32,1858.32,135.0504,-2.9362,-2.0262,984.8274,55.855846,37.484196,176.7301,NaN,,1.3272,1.5,270.3466,26 / 27,,3991,2021-05-20 21:44:46:754
0.806871,1.613741,8.039975,0.319008,0.505014,9.788441,0.038279,0.063464,-0.073017,-1957.14,-1936.32,1858.32,135.0504,-2.9362,-2.0262,984.8274,55.855846,37.484196,176.7301,NaN,,1.3272,1.5,270.3466,26 / 27,,4002,2021-05-20 21:44:46:765
0.715888,1.776552,8.097438,0.304789,0.513096,9.788474,0.031559,0.057966,-0.10356,-1956.96,-1936.14,1858.38,135.0504,-2.9362,-2.0262,984.8274,55.855846,37.484196,176.7301,NaN,,1.3272,1.5,270.3466,26 / 27,,4011,2021-05-20 21:44:46:774
0.656031,1.922603,8.140535,0.304789,0.513096,9.788474,0.017509,0.063464,-0.113334,-1956.96,-1936.14,1858.38,135.0504,-2.9362,-2.0262,984.8293,55.855846,37.484196,176.7301,NaN,,1.3272,1.5,270.3466,26 / 27,,4021,2021-05-20 21:44:46:784
0.656031,1.922603,8.140535,0.304789,0.513096,9.788474,0.017509,0.063464,-0.113334,-1956.96,-1936.14,1858.38,135.0504,-2.9362,-2.0262,984.8293,55.855846,37.484196,176.7301,NaN,,1.3272,1.5,270.3466,26 / 27,,4031,2021-05-20 21:44:46:794
0.356747,1.63529,8.327288,0.292588,0.519938,9.788485,-0.072288,0.017649,-0.098673,-1957.62,-1936.08,1858.08,135.1765,-2.9992,-1.7835,984.8293,55.855846,37.484196,176.7301,NaN,,1.3272,1.5,270.3466,26 / 27,,4041,2021-05-20 21:44:46:804
0.500403,1.177983,9.794978,0.292588,0.519938,9.788485,-0.207289,-0.004953,-0.053469,-1957.62,-1936.08,1858.08,135.1765,-2.9992,-1.7835,984.8293,55.855846,37.484196,176.7301,NaN,,1.3272,1.5,270.3466,26 / 27,,4051,2021-05-20 21:44:46:814
0.500403,1.177983,9.794978,0.291021,0.484707,9.790339,-0.251882,-0.001288,-0.009487,-1958.04,-1936.08,1858.14,135.1765,-2.9992,-1.7835,984.8293,55.855846,37.484196,176.7301,NaN,,1.3272,1.5,270.3466,26 / 27,,4062,2021-05-20 21:44:46:825
0.536318,0.928979,10.853248,0.291021,0.484707,9.790339,-0.238443,-0.014116,0.028998,-1958.04,-1936.08,1858.14,135.1765,-2.9992,-1.7835,984.8293,55.855846,37.484173,176.7059,NaN,,1.3833,1.5,270.938,26 / 27,,4071,2021-05-20 21:44:46:834
0.758985,1.118126,12.921901,0.293054,0.438478,9.792459,-0.157809,-0.028166,0.041826,-1957.92,-1936.38,1858.2,135.0254,-2.5627,-1.7142,984.8293,55.855846,37.484173,176.7059,NaN,,1.3833,1.5,270.938,26 / 27,,4082,2021-05-20 21:44:46:845
0.90743,1.391074,13.333716,0.293054,0.438478,9.792459,0.146402,-0.033053,0.0235,-1957.92,-1936.38,1858.2,135.0254,-2.5627,-1.7142,984.8293,55.855846,37.484173,176.7059,NaN,,1.3833,1.5,270.938,26 / 27,,4091,2021-05-20 21:44:46:854
0.90743,1.391074,13.333716,0.300043,0.438211,9.792258,0.288123,-0.033664,-0.002767,-1957.32,-1936.14,1857.9,135.0254,-2.5627,-1.7142,984.8293,55.855846,37.484173,176.7059,NaN,,1.3833,1.5,270.938,26 / 27,,4101,2021-05-20 21:44:46:864
0.967287,1.405439,12.464595,0.300043,0.438211,9.792258,0.315611,-0.057487,-0.021093,-1957.32,-1936.14,1857.9,135.0254,-2.5627,-1.7142,984.8293,55.855846,37.484173,176.7059,NaN,,1.3833,1.5,270.938,26 / 27,,4111,2021-05-20 21:44:46:874
-0.308861,0.672791,11.071127,0.308956,0.496725,9.789187,0.23009,-0.098415,0.130401,-1957.38,-1935.6,1857.9,135.0198,-2.5611,-1.755,984.8274,55.855846,37.484173,176.7059,NaN,,1.3833,1.5,270.938,26 / 27,,4121,2021-05-20 21:44:46:884
0.203513,2.169213,11.717581,0.308956,0.496725,9.789187,0.192217,-0.154004,0.22142,-1957.38,-1935.6,1857.9,135.0198,-2.5611,-1.755,984.8274,55.855846,37.484173,176.7059,NaN,,1.3833,1.5,270.938,26 / 27,,4131,2021-05-20 21:44:46:894
0.538712,2.130905,11.43745,0.334828,0.539317,9.786083,0.162284,-0.103913,0.204927,-1957.2,-1936.14,1858.08,135.0198,-2.5611,-1.755,984.8274,55.855846,37.484173,176.7059,NaN,,1.3833,1.5,270.938,26 / 27,,4141,2021-05-20 21:44:46:904
0.538712,2.130905,11.43745,0.334828,0.539317,9.786083,-0.056405,-0.011062,0.21409,-1957.2,-1936.14,1858.08,135.0198,-2.5611,-1.755,984.8274,55.855846,37.484173,176.7059,NaN,,1.3833,1.5,270.938,26 / 27,,4151,2021-05-20 21:44:46:914
0.562655,1.877111,10.786208,0.351661,0.556514,9.784529,-0.263489,-0.017781,0.212257,-1957.32,-1936.0198,1857.72,135.1715,-3.1526,-1.9596,984.8274,55.855846,37.484173,176.7059,NaN,,1.3833,1.5,270.938,26 / 27,,4162,2021-05-20 21:44:46:925
0.770957,1.213897,11.945037,0.351661,0.556514,9.784529,-0.355729,-6.6E-5,0.216533,-1957.32,-1936.0198,1857.72,135.1715,-3.1526,-1.9596,984.8274,55.855846,37.484173,176.7059,NaN,,1.3833,1.5,270.938,26 / 27,,4171,2021-05-20 21:44:46:934
1.154041,0.110137,13.218791,0.35641,0.501331,9.78734,-0.364892,0.057355,0.215923,-1958.22,-1936.32,1857.6,135.1715,-3.1526,-1.9596,984.8274,55.855846,37.484173,176.7059,NaN,,1.3833,1.5,270.938,26 / 27,,4182,2021-05-20 21:44:46:945
1.422199,-0.56026,13.882006,0.35641,0.501331,9.78734,-0.25738,0.194189,0.193931,-1958.22,-1936.32,1857.6,135.1715,-3.1526,-1.9596,984.8274,55.855846,37.484173,176.7059,NaN,,1.3833,1.5,270.938,26 / 27,,4191,2021-05-20 21:44:46:954
1.422199,-0.56026,13.882006,0.335435,0.438748,9.791087,-0.081451,0.234506,0.148727,-1957.92,-1936.5,1858.0198,135.0061,-2.9303,-2.0855,984.8274,55.855846,37.484173,176.7059,NaN,,1.3833,1.5,270.938,26 / 27,,4201,2021-05-20 21:44:46:964
1.201926,-0.732648,13.843697,0.335435,0.438748,9.791087,0.268575,0.23023,0.086419,-1957.92,-1936.5,1858.0198,135.0061,-2.9303,-2.0855,984.8274,55.855846,37.484173,176.7059,NaN,,1.3833,1.5,270.938,26 / 27,,4211,2021-05-20 21:44:46:974
0.641666,-0.450124,12.270658,0.291146,0.452453,9.79188,0.567288,0.075681,0.007617,-1957.14,-1936.32,1857.6,135.0061,-2.9303,-2.0855,984.8274,55.855846,37.484173,176.7059,NaN,,1.3833,1.5,270.938,26 / 27,,4222,2021-05-20 21:44:46:985
-0.023943,0.155628,9.754275,0.279659,0.502794,9.789759,0.658307,-0.065429,-0.048582,-1957.14,-1936.38,1857.54,135.0061,-2.9303,-2.0855,984.8274,55.855846,37.484173,176.7059,NaN,,1.3833,1.5,270.938,26 / 27,,4231,2021-05-20 21:44:46:994
-0.023943,0.155628,9.754275,0.279659,0.502794,9.789759,0.552627,-0.232195,-0.130438,-1957.14,-1936.38,1857.54,135.0061,-2.9303,-2.0855,984.8274,55.855846,37.484173,176.7059,NaN,,1.3833,1.5,270.938,26 / 27,,4241,2021-05-20 21:44:47:004
-0.682368,0.428575,8.126169,0.304956,0.627184,9.781821,0.270407,-0.251742,-0.170144,-1957.0198,-1936.38,1857.6,135.2351,-2.9389,-1.6363,984.8274,55.855846,37.484173,176.7059,NaN,,1.3833,1.5,270.938,26 / 27,,4252,2021-05-20 21:44:47:015
-0.933767,0.304073,7.898713,0.304956,0.627184,9.781821,-0.020975,-0.207149,-0.172588,-1957.0198,-1936.38,1857.6,135.2351,-2.9389,-1.6363,984.8274,55.855846,37.484173,176.7059,NaN,,1.3833,1.5,270.938,26 / 27,,4261,2021-05-20 21:44:47:024
-1.268966,-0.428575,8.789383,0.350228,0.679214,9.77683,-0.020975,-0.207149,-0.172588,-1957.62,-1936.56,1858.32,135.2351,-2.9389,-1.6363,984.8274,55.855846,37.484173,176.7059,NaN,,1.3833,1.5,270.938,26 / 27,,4271,2021-05-20 21:44:47:034
-1.233051,-0.976864,10.0368,0.363212,0.662469,9.777505,-0.265321,-0.080089,-0.126773,-1957.8,-1936.98,1858.32,135.2351,-2.9389,-1.6363,984.8274,55.855846,37.484173,176.7059,NaN,,1.3833,1.5,270.938,26 / 27,,4282,2021-05-20 21:44:47:045
-1.233051,-0.976864,10.0368,0.363212,0.662469,9.777505,-0.322132,0.119053,-0.043084,-1957.8,-1936.98,1858.32,135.2351,-2.9389,-1.6363,984.8274,55.855846,37.484173,176.7059,NaN,,1.3833,1.5,270.938,26 / 27,,4291,2021-05-20 21:44:47:054
-1.067846,-1.256994,10.599455,0.343772,0.601059,9.782174,-0.253104,0.26505,0.029609,-1957.56,-1937.64,1858.38,135.3998,-3.8735,-2.1274,984.8274,55.855846,37.484173,176.7059,NaN,,1.3833,1.5,270.938,26 / 27,,4301,2021-05-20 21:44:47:064
-0.864333,-1.297697,9.220352,0.343772,0.601059,9.782174,-0.210344,0.25833,0.087641,-1957.56,-1937.64,1858.38,135.3998,-3.8735,-2.1274,984.8274,55.855846,37.484173,176.7059,NaN,,1.3833,1.5,270.938,26 / 27,,4311,2021-05-20 21:44:47:074
-0.490826,-0.852362,8.439818,0.29024,0.555394,9.786608,-0.205457,0.126994,0.10841,-1957.26,-1937.82,1858.2,135.3998,-3.8735,-2.1274,984.8267,55.855846,37.484173,176.7059,NaN,,1.3833,1.5,270.938,26 / 27,,4321,2021-05-20 21:44:47:084
0.143657,-0.445335,8.068707,0.29024,0.555394,9.786608,-0.173081,-0.027555,0.08703,-1957.26,-1937.82,1858.2,135.3998,-3.8735,-2.1274,984.8267,55.855846,37.484173,176.7059,NaN,,1.3833,1.5,270.938,26 / 27,,4331,2021-05-20 21:44:47:094
0.143657,-0.445335,8.068707,0.279917,0.515626,9.789084,-0.160863,-0.181493,0.039993,-1957.62,-1937.28,1858.62,135.3339,-3.2466,-1.6987,984.8267,55.855846,37.484173,176.7059,NaN,,1.3833,1.5,270.938,26 / 27,,4341,2021-05-20 21:44:47:104
0.605752,-0.028731,8.664881,0.279917,0.515626,9.789084,-0.123601,-0.229751,-0.024758,-1957.62,-1937.28,1858.62,135.3339,-3.2466,-1.6987,984.8267,55.855846,37.484173,176.7059,NaN,,1.3833,1.5,270.938,26 / 27,,4351,2021-05-20 21:44:47:114
0.316044,-0.007183,9.217958,0.319066,0.485784,9.789412,-0.074121,-0.129569,-0.04736,-1957.32,-1936.62,1858.32,135.3339,-3.2466,-1.6987,984.8267,55.855846,37.484173,176.7059,NaN,,1.3833,1.5,270.938,26 / 27,,4361,2021-05-20 21:44:47:124
-0.055068,-0.090982,9.076695,0.319066,0.485784,9.789412,-0.042356,0.028645,-0.010708,-1957.32,-1936.62,1858.32,135.3339,-3.2466,-1.6987,984.8267,55.855846,37.484173,176.7059,NaN,,1.3833,1.5,270.938,26 / 27,,4371,2021-05-20 21:44:47:134
-0.055068,-0.090982,9.076695,0.329375,0.472506,9.789721,0.014455,0.202741,0.075424,-1957.14,-1936.86,1858.08,135.0988,-2.8394,-1.8668,984.8267,55.855846,37.484173,176.7059,NaN,,1.3833,1.5,270.938,26 / 27,,4381,2021-05-20 21:44:47:144
-0.294496,0.023943,8.595447,0.329375,0.472506,9.789721,0.014455,0.202741,0.075424,-1957.14,-1936.86,1858.08,135.0988,-2.8394,-1.8668,984.8267,55.855846,37.484173,176.7059,NaN,,1.3833,1.5,270.938,26 / 27,,4391,2021-05-20 21:44:47:154
-0.375901,0.162811,7.692805,0.2863,0.474947,9.790956,0.077985,0.301701,0.171329,-1957.86,-1937.34,1858.32,135.0988,-2.8394,-1.8668,984.8267,55.855846,37.484173,176.7059,NaN,,1.3833,1.5,270.938,26 / 27,,4401,2021-05-20 21:44:47:164
-0.495615,0.268159,6.905089,0.2863,0.474947,9.790956,0.103641,0.269936,0.22142,-1957.86,-1937.34,1858.32,135.0988,-2.8394,-1.8668,984.8267,55.855846,37.484173,176.7059,NaN,,1.3833,1.5,270.938,26 / 27,,4411,2021-05-20 21:44:47:174
-0.007183,0.110137,6.466936,0.23517,0.492229,9.791466,0.129298,0.170976,0.254407,-1957.92,-1936.86,1858.26,135.1482,-2.776,-1.6749,984.8296,55.855846,37.484173,176.7059,NaN,,1.3833,1.5,270.938,26 / 27,,4421,2021-05-20 21:44:47:184
-0.007183,0.110137,6.466936,0.23517,0.492229,9.791466,0.189162,-0.014116,0.266014,-1957.92,-1936.86,1858.26,135.1482,-2.776,-1.6749,984.8296,55.855846,37.484173,176.7059,NaN,,1.3833,1.5,270.938,26 / 27,,4432,2021-05-20 21:44:47:195
-0.110137,0.29689,6.629747,0.240835,0.527692,9.78948,0.240475,-0.223032,0.258072,-1957.8,-1936.68,1858.26,135.1482,-2.776,-1.6749,984.8296,55.855846,37.484173,176.7059,NaN,,1.3833,1.5,270.938,26 / 27,,4441,2021-05-20 21:44:47:204
-0.169993,0.335198,6.897906,0.240835,0.527692,9.78948,0.276516,-0.340318,0.247077,-1957.8,-1936.68,1858.26,135.1482,-2.776,-1.6749,984.8296,55.855846,37.484173,176.7059,NaN,,1.3833,1.5,270.938,26 / 27,,4452,2021-05-20 21:44:47:215
-0.447729,0.588992,7.520417,0.305243,0.578636,9.784804,0.300951,-0.406902,0.268457,-1957.68,-1936.98,1859.04,135.4044,-3.0846,-1.4093,984.8296,55.855846,37.484173,176.7059,NaN,,1.3833,1.5,270.938,26 / 27,,4461,2021-05-20 21:44:47:224
-0.165205,0.622511,7.551543,0.305243,0.578636,9.784804,0.30767,-0.389798,0.314272,-1957.68,-1936.98,1859.04,135.4044,-3.0846,-1.4093,984.8296,55.855846,37.484173,176.7059,NaN,,1.3833,1.5,270.938,26 / 27,,4472,2021-05-20 21:44:47:235
-0.165205,0.622511,7.551543,0.384647,0.634555,9.778537,0.228869,-0.359255,0.363752,-1957.44,-1937.58,1859.04,135.4044,-3.0846,-1.4093,984.8296,55.855846,37.484173,176.7059,NaN,,1.3833,1.5,270.938,26 / 27,,4481,2021-05-20 21:44:47:244
0.074223,0.72786,7.800547,0.384647,0.634555,9.778537,0.170836,-0.321992,0.390019,-1957.44,-1937.58,1859.04,135.4044,-3.0846,-1.4093,984.8296,55.855846,37.484173,176.7059,NaN,,1.3833,1.5,270.938,26 / 27,,4491,2021-05-20 21:44:47:254
0.454912,1.166012,7.89153,0.452675,0.665042,9.773597,0.035224,-0.26396,0.391852,-1957.98,-1938.18,1857.96,135.275,-3.71,-2.2526,984.8296,55.855846,37.484173,176.7059,NaN,,1.3833,1.5,270.938,26 / 27,,4502,2021-05-20 21:44:47:265
0.811659,1.223474,8.159689,0.452675,0.665042,9.773597,-0.148035,-0.194932,0.344204,-1957.98,-1938.18,1857.96,135.275,-3.71,-2.2526,984.8296,55.855846,37.484173,176.7059,NaN,,1.3833,1.5,270.938,26 / 27,,4511,2021-05-20 21:44:47:274
0.811659,1.223474,8.159689,0.500005,0.647426,9.772472,-0.301973,-0.146063,0.285561,-1958.76,-1938.12,1857.6,135.275,-3.71,-2.2526,984.8296,55.855846,37.484173,176.7059,NaN,,1.3833,1.5,270.938,26 / 27,,4521,2021-05-20 21:44:47:284
0.821236,1.005595,8.571504,0.500005,0.647426,9.772472,-0.521885,-0.099026,0.212868,-1958.76,-1938.12,1857.6,135.275,-3.71,-2.2526,984.8296,55.855846,37.484173,176.7059,NaN,,1.3833,1.5,270.938,26 / 27,,4531,2021-05-20 21:44:47:294
0.359141,0.720677,9.115005,0.527406,0.570443,9.775829,-0.664216,-0.106967,0.196986,-1958.76,-1937.7,1857.9,134.976,-3.7854,-2.929,984.8296,55.855846,37.484173,176.7059,NaN,,1.3833,1.5,270.938,26 / 27,,4541,2021-05-20 21:44:47:304
-0.184359,0.624906,9.914692,0.527406,0.570443,9.775829,-0.736298,-0.146063,0.215923,-1958.76,-1937.7,1857.9,134.976,-3.7854,-2.929,984.8296,55.855846,37.484173,176.7059,NaN,,1.3833,1.5,270.938,26 / 27,,4551,2021-05-20 21:44:47:314
-0.462095,0.775745,11.008876,0.551205,0.438184,9.781338,-0.701479,-0.234027,0.262348,-1959.12,-1937.46,1858.26,134.976,-3.7854,-2.929,984.8296,55.855846,37.484173,176.7059,NaN,,1.3833,1.5,270.938,26 / 27,,4562,2021-05-20 21:44:47:325
-0.462095,0.775745,11.008876,0.551205,0.438184,9.781338,-0.625732,-0.361087,0.273955,-1959.12,-1937.46,1858.26,134.976,-3.7854,-2.929,984.8296,55.855846,37.484173,176.7059,NaN,,1.3833,1.5,270.938,26 / 27,,4571,2021-05-20 21:44:47:334
-0.287313,0.895459,11.485336,0.60069,0.300762,9.783614,-0.550595,-0.480206,0.265403,-1958.5198,-1937.88,1858.38,134.3475,-2.561,-3.2254,984.8296,55.855846,37.484173,176.7059,NaN,,1.3833,1.5,270.938,26 / 27,,4581,2021-05-20 21:44:47:344
0.011971,1.094184,12.086299,0.60069,0.300762,9.783614,-0.479124,-0.593216,0.229362,-1958.5198,-1937.88,1858.38,134.3475,-2.561,-3.2254,984.8296,55.855846,37.484173,176.7059,NaN,,1.3833,1.5,270.938,26 / 27,,4591,2021-05-20 21:44:47:354
0.818842,0.905036,12.713599,0.697455,0.192099,9.779931,-0.406431,-0.69462,0.176827,-1958.22,-1937.58,1857.9,134.3475,-2.561,-3.2254,984.8296,55.855846,37.484173,176.7059,NaN,,1.3833,1.5,270.938,26 / 27,,4602,2021-05-20 21:44:47:365
1.290514,0.852362,13.944257,0.697455,0.192099,9.779931,-0.406431,-0.69462,0.176827,-1958.22,-1937.58,1857.9,134.3475,-2.561,-3.2254,984.8296,55.855846,37.484173,176.7059,NaN,,1.3833,1.5,270.938,26 / 27,,4611,2021-05-20 21:44:47:374
1.956123,0.986441,14.933092,0.831743,0.113669,9.770653,-0.275095,-0.702561,0.129791,-1959.36,-1936.68,1857.48,133.3626,-1.1224,-4.0791,984.8252,55.855846,37.484173,176.7059,NaN,,1.3833,1.5,270.938,26 / 27,,4621,2021-05-20 21:44:47:384
1.956123,0.986441,14.933092,0.831743,0.113669,9.770653,-0.077175,-0.587107,0.0516,-1959.36,-1936.68,1857.48,133.3626,-1.1224,-4.0791,984.8252,55.855846,37.484173,176.7059,NaN,,1.3833,1.5,270.938,26 / 27,,4631,2021-05-20 21:44:47:394
2.030345,1.173195,15.043228,0.953401,0.086405,9.759813,0.092035,-0.51136,-0.009487,-1959.96,-1935.9,1857.66,133.3626,-1.1224,-4.0791,984.8252,55.855846,37.484173,176.7059,NaN,,1.3833,1.5,270.938,26 / 27,,4641,2021-05-20 21:44:47:404
1.987248,1.60177,14.063971,0.953401,0.086405,9.759813,0.200769,-0.430115,-0.055912,-1959.96,-1935.9,1857.66,133.3626,-1.1224,-4.0791,984.8252,55.855846,37.484173,176.7059,NaN,,1.3833,1.5,270.938,26 / 27,,4651,2021-05-20 21:44:47:414
2.470892,1.146858,12.404737,1.042061,0.119258,9.750399,0.151289,-0.387355,-0.13899,-1960.92,-1935.42,1857.66,132.4357,-0.5048,-5.5793,984.8252,55.855846,37.484173,176.7059,NaN,,1.3833,1.5,270.938,26 / 27,,4661,2021-05-20 21:44:47:424
2.95693,-0.045491,12.198831,1.042061,0.119258,9.750399,-0.165139,-0.340318,-0.281322,-1960.92,-1935.42,1857.66,132.4357,-0.5048,-5.5793,984.8252,55.855846,37.484173,176.7059,NaN,,1.3833,1.5,270.938,26 / 27,,4672,2021-05-20 21:44:47:435
2.95693,-1.345582,13.642578,1.11181,0.119516,9.742688,-0.488287,-0.11613,-0.374173,-1961.76,-1935.24,1856.76,132.4357,-0.5048,-5.5793,984.8252,55.855846,37.484173,176.7059,NaN,,1.3833,1.5,270.938,26 / 27,,4682,2021-05-20 21:44:47:445
2.827639,-1.345582,13.642578,1.11181,0.119516,9.742688,-0.554261,0.193578,-0.383947,-1961.76,-1935.24,1856.76,132.4357,-0.5048,-5.5793,984.8252,55.855846,37.484173,176.7059,NaN,,1.3833,1.5,270.938,26 / 27,,4691,2021-05-20 21:44:47:454
2.075836,-2.327235,15.495747,1.121304,0.030121,9.742287,-0.295865,0.480685,-0.319195,-1961.28,-1935.24,1856.16,132.1585,-0.6983,-6.5103,984.8252,55.855846,37.484173,176.7059,NaN,,1.3833,1.5,270.938,26 / 27,,4701,2021-05-20 21:44:47:464
1.134886,-2.566662,15.629826,1.121304,0.030121,9.742287,0.27224,0.624849,-0.192746,-1961.28,-1935.24,1856.16,132.1585,-0.6983,-6.5103,984.8252,55.855846,37.484173,176.7059,NaN,,1.3833,1.5,270.938,26 / 27,,4711,2021-05-20 21:44:47:474
0.641666,-1.8819,13.76708,1.026979,-0.005459,9.752727,0.800028,0.580256,-0.109058,-1961.16,-1934.76,1856.7,132.1585,-0.6983,-6.5103,984.8076,55.855846,37.484173,176.7059,NaN,,1.3833,1.5,270.938,26 / 27,,4722,2021-05-20 21:44:47:485
0.641666,-1.8819,13.76708,1.026979,-0.005459,9.752727,1.134782,0.373784,-0.069962,-1961.16,-1934.76,1856.7,132.1585,-0.6983,-6.5103,984.8076,55.855846,37.484173,176.7059,NaN,,1.3833,1.5,270.938,26 / 27,,4731,2021-05-20 21:44:47:494
0.842785,-0.790111,9.227535,0.920844,0.150148,9.762166,1.173877,0.047582,-0.108447,-1961.04,-1934.46,1857.24,132.0295,0.0319,-6.0112,984.8076,55.855846,37.484173,176.7059,NaN,,1.3833,1.5,270.938,26 / 27,,4741,2021-05-20 21:44:47:504
1.300091,-0.081405,6.3568,0.920844,0.150148,9.762166,0.920368,-0.262127,-0.192135,-1961.04,-1934.46,1857.24,132.0295,0.0319,-6.0112,984.8076,55.855846,37.484173,176.7059,NaN,,1.3833,1.5,270.938,26 / 27,,4752,2021-05-20 21:44:47:515
2.030345,-0.031126,5.016006,0.918303,0.369393,9.75657,0.437785,-0.414233,-0.295983,-1960.8,-1935.3,1857.18,132.0295,0.0319,-6.0112,984.8076,55.855846,37.484173,176.7059,NaN,,1.3833,1.5,270.938,26 / 27,,4763,2021-05-20 21:44:47:526
2.157242,-0.198725,6.153287,0.955202,0.432907,9.750414,-0.097333,-0.301223,-0.365621,-1960.8,-1935.3,1857.18,132.0295,0.0319,-6.0112,984.8076,55.855846,37.484173,176.7059,NaN,,1.3833,1.5,270.938,26 / 27,,4772,2021-05-20 21:44:47:535
1.673598,-0.569837,8.339259,0.955202,0.432907,9.750414,-0.547541,0.030477,-0.389445,-1960.8,-1936.2,1856.88,133.2643,-2.5301,-5.5951,984.8076,55.855846,37.484173,176.7059,NaN,,1.3833,1.5,270.938,26 / 27,,4781,2021-05-20 21:44:47:544
1.673598,-0.569837,8.339259,1.002536,0.410658,9.746623,-0.719805,0.32919,-0.330802,-1960.8,-1936.2,1856.88,133.2643,-2.5301,-5.5951,984.8076,55.855846,37.484173,176.7059,NaN,,1.3833,1.5,270.938,26 / 27,,4791,2021-05-20 21:44:47:554
1.091789,-1.249811,9.512454,1.002536,0.410658,9.746623,-0.699647,0.429983,-0.222679,-1960.44,-1936.86,1857.3,133.2643,-2.5301,-5.5951,984.8076,55.855846,37.484173,176.7059,NaN,,1.3833,1.5,270.938,26 / 27,,4801,2021-05-20 21:44:47:564
0.634483,-1.489239,9.665688,0.941396,0.28004,9.757343,-0.560369,0.336521,-0.107225,-1960.44,-1936.86,1857.3,133.2643,-2.5301,-5.5951,984.8076,55.855846,37.484173,176.7059,NaN,,1.3833,1.5,270.938,26 / 27,,4812,2021-05-20 21:44:47:575
0.751802,-1.094184,9.471751,0.941396,0.28004,9.757343,-0.373445,0.208239,-0.037587,-1960.62,-1936.62,1857.42,132.9583,-1.6364,-5.5109,984.8076,55.855846,37.484173,176.7059,NaN,,1.3833,1.5,270.938,26 / 27,,4821,2021-05-20 21:44:47:584
1.391074,-0.495615,9.416683,0.879598,0.175487,9.765547,-0.178579,0.13799,-0.022315,-1960.62,-1936.62,1857.42,132.9583,-1.6364,-5.5109,984.8076,55.855846,37.484173,176.7059,NaN,,1.3833,1.5,270.938,26 / 27,,4831,2021-05-20 21:44:47:594
1.391074,-0.495615,9.416683,0.879598,0.175487,9.765547,-0.178579,0.13799,-0.022315,-1960.92,-1935.06,1857.48,132.9583,-1.6364,-5.5109,984.8076,55.855846,37.484173,176.7059,NaN,,1.3833,1.5,270.938,26 / 27,,4841,2021-05-20 21:44:47:604
1.673598,0.064645,8.607418,0.852658,0.143491,9.768458,0.028505,0.106835,-0.063854,-1960.92,-1935.06,1857.48,132.9583,-1.6364,-5.5109,984.8076,55.855846,37.484173,176.7059,NaN,,1.3833,1.5,270.938,26 / 27,,4852,2021-05-20 21:44:47:615
1.649655,0.445335,7.498869,0.852658,0.143491,9.768458,0.113415,0.070794,-0.110279,-1960.14,-1934.46,1857.12,132.8107,-0.8384,-4.9885,984.8076,55.855846,37.484173,176.7059,NaN,,1.3833,1.5,270.938,26 / 27,,4861,2021-05-20 21:44:47:624
1.673598,0.782928,6.665661,0.8385,0.16288,9.76938,0.129298,0.042695,-0.158538,-1960.14,-1934.46,1857.12,132.8107,-0.8384,-4.9885,984.8076,55.855846,37.484173,176.7059,NaN,,1.3833,1.5,270.938,26 / 27,,4871,2021-05-20 21:44:47:634
1.460508,1.019961,6.368771,0.8385,0.16288,9.76938,0.079817,0.054912,-0.217181,-1959.96,-1934.94,1857.12,132.8107,-0.8384,-4.9885,984.8076,55.855846,37.484173,176.7059,NaN,,1.3833,1.5,270.938,26 / 27,,4881,2021-05-20 21:44:47:644
1.460508,1.019961,6.368771,0.828027,0.181714,9.76994,0.001627,0.105003,-0.269715,-1959.96,-1934.94,1857.12,132.8107,-0.8384,-4.9885,984.8076,55.855846,37.484173,176.7059,NaN,,1.3833,1.5,270.938,26 / 27,,4891,2021-05-20 21:44:47:654
0.984047,0.888276,6.498062,0.815738,0.180692,9.770993,-0.115659,0.25833,-0.261774,-1959.9,-1934.94,1857.42,132.9774,-1.0617,-4.8444,984.8076,55.855846,37.484173,176.7059,NaN,,1.3833,1.5,270.938,26 / 27,,4902,2021-05-20 21:44:47:665
0.270553,0.691945,6.8165,0.815738,0.180692,9.770993,-0.115659,0.25833,-0.261774,-1959.9,-1934.94,1857.42,132.9774,-1.0617,-4.8444,984.8076,55.855846,37.484173,176.7059,NaN,,1.3833,1.5,270.938,26 / 27,,4911,2021-05-20 21:44:47:674
0.071828,0.574626,7.137334,0.769125,0.164592,9.775058,-0.10894,0.285208,-0.198244,-1960.0198,-1934.46,1856.88,132.9774,-1.0617,-4.8444,984.8076,55.855846,37.484173,176.7059,NaN,,1.3833,1.5,270.938,26 / 27,,4921,2021-05-20 21:44:47:684
0.03352,0.517163,7.515629,0.769125,0.164592,9.775058,-0.002038,0.209461,-0.107225,-1960.0198,-1934.46,1856.88,132.9774,-1.0617,-4.8444,984.8076,55.855846,37.484173,176.7059,NaN,,1.3833,1.5,270.938,26 / 27,,4932,2021-05-20 21:44:47:695
0.03352,0.517163,7.515629,0.723697,0.159709,9.778606,0.114026,0.108057,-0.035754,-1960.38,-1934.88,1857.18,133.0771,-0.9617,-4.4989,984.8076,55.855846,37.484173,176.7059,NaN,,1.3833,1.5,270.938,26 / 27,,4941,2021-05-20 21:44:47:704
0.019154,0.646454,7.609006,0.714534,0.172924,9.779056,0.227036,-0.014727,0.055876,-1960.38,-1935.18,1857.48,133.0771,-0.9617,-4.4989,984.8076,55.855846,37.484173,176.7059,NaN,,1.3833,1.5,270.938,26 / 27,,4951,2021-05-20 21:44:47:714
0.292102,1.096578,7.666468,0.714534,0.172924,9.779056,0.282625,-0.078868,0.153003,-1960.38,-1935.18,1857.48,133.0771,-0.9617,-4.4989,984.8076,55.855846,37.484173,176.7059,NaN,,1.3833,1.5,270.938,26 / 27,,4961,2021-05-20 21:44:47:724
0.917007,1.697541,7.800547,0.723483,0.221475,9.777418,0.27957,-0.069094,0.181103,-1960.08,-1935.66,1857.96,133.0771,-0.9617,-4.4989,984.8076,55.855846,37.484173,176.7059,NaN,,1.3833,1.5,270.938,26 / 27,,4971,2021-05-20 21:44:47:734
0.917007,1.697541,7.800547,0.723483,0.221475,9.777418,0.27957,-0.069094,0.181103,-1960.08,-1935.66,1857.96,133.0771,-0.9617,-4.4989,984.8076,55.855846,37.484173,176.7059,NaN,,1.3833,1.5,270.938,26 / 27,,4981,2021-05-20 21:44:47:744
1.575433,2.171607,7.707171,0.738774,0.273657,9.774953,0.223982,-0.06665,0.156669,-1960.0198,-1935.48,1857.96,133.3277,-1.2941,-4.2319,984.8076,55.855846,37.484173,176.7059,NaN,,1.3833,1.5,270.938,26 / 27,,4991,2021-05-20 21:44:47:754
1.917814,1.968094,8.535589,0.738774,0.273657,9.774953,0.029727,0.003599,0.134677,-1960.0198,-1935.48,1857.96,133.3277,-1.2941,-4.2319,984.8076,55.855846,37.484173,176.7059,NaN,,1.3833,1.5,270.938,26 / 27,,5001,2021-05-20 21:44:47:764
1.812466,1.893871,9.845258,0.745114,0.29159,9.773953,-0.054573,0.070184,0.187823,-1959.84,-1935.78,1857.36,133.3277,-1.2941,-4.2319,984.8076,55.855846,37.484173,176.7059,NaN,,1.3833,1.5,270.938,26 / 27,,5011,2021-05-20 21:44:47:774
1.553884,1.762186,10.824516,0.745114,0.29159,9.773953,-0.021586,0.142266,0.251353,-1959.84,-1935.78,1857.36,133.3277,-1.2941,-4.2319,984.8086,55.855846,37.484173,176.7059,NaN,,1.3833,1.5,270.938,26 / 27,,5022,2021-05-20 21:44:47:785
1.553884,1.762186,10.824516,0.733348,0.283024,9.775095,0.084704,0.219846,0.310607,-1959.84,-1936.26,1856.94,133.4601,-1.7039,-4.3595,984.8086,55.855846,37.484173,176.7059,NaN,,1.3833,1.5,270.938,26 / 27,,5032,2021-05-20 21:44:47:795
1.723878,1.709512,11.499701,0.733348,0.283024,9.775095,0.244751,0.267493,0.32038,-1959.84,-1936.26,1856.94,133.4601,-1.7039,-4.3595,984.8086,55.855846,37.484173,176.7059,NaN,,1.3833,1.5,270.938,26 / 27,,5041,2021-05-20 21:44:47:804
1.886689,1.934574,11.391959,0.692893,0.30293,9.77745,0.244751,0.267493,0.32038,-1960.44,-1935.66,1857.3,133.4601,-1.7039,-4.3595,984.8086,55.855846,37.484173,176.7059,NaN,,1.3833,1.5,270.938,26 / 27,,5051,2021-05-20 21:44:47:814
1.958517,2.130905,10.374393,0.692893,0.30293,9.77745,0.444504,0.24428,0.152393,-1960.44,-1935.66,1857.3,133.4601,-1.7039,-4.3595,984.8086,55.855846,37.484173,176.7059,NaN,,1.3833,1.5,270.938,26 / 27,,5061,2021-05-20 21:44:47:824
1.84838,2.238647,9.481328,0.641314,0.378481,9.778336,0.349209,0.179528,0.010672,-1959.66,-1935.48,1857.42,133.6028,-1.7702,-4.0536,984.8086,55.855846,37.48415,176.7953,NaN,,1.3917,1.5,271.6291,26 / 27,,5072,2021-05-20 21:44:47:835
1.84838,2.238647,9.481328,0.641314,0.378481,9.778336,0.349209,0.179528,0.010672,-1959.66,-1935.48,1857.42,133.6028,-1.7702,-4.0536,984.8086,55.855846,37.48415,176.7953,NaN,,1.3917,1.5,271.6291,26 / 27,,5081,2021-05-20 21:44:47:844
1.465296,1.958517,9.158101,0.606446,0.450732,9.777497,-0.032582,0.054301,-0.206796,-1958.5198,-1936.14,1857.42,133.6028,-1.7702,-4.0536,984.8086,55.855846,37.48415,176.7953,NaN,,1.3917,1.5,271.6291,26 / 27,,5092,2021-05-20 21:44:47:855
0.967287,1.419805,9.759064,0.606446,0.450732,9.777497,-0.032582,0.054301,-0.206796,-1958.5198,-1936.14,1857.42,133.6028,-1.7702,-4.0536,984.8086,55.855846,37.48415,176.7953,NaN,,1.3917,1.5,271.6291,26 / 27,,5101,2021-05-20 21:44:47:864
0.399844,0.569837,10.963385,0.593665,0.455065,9.778081,-0.208511,0.019482,-0.243448,-1958.94,-1936.26,1857.18,134.2055,-2.6344,-3.5492,984.8086,55.855846,37.48415,176.7953,NaN,,1.3917,1.5,271.6291,26 / 27,,5111,2021-05-20 21:44:47:874
-0.007183,0.217879,11.954614,0.593665,0.455065,9.778081,-0.325797,0.008486,-0.186027,-1958.94,-1936.26,1857.18,134.2055,-2.6344,-3.5492,984.8086,55.855846,37.48415,176.7953,NaN,,1.3917,1.5,271.6291,26 / 27,,5121,2021-05-20 21:44:47:884
