ACCELEROMETER X (m/s²),ACCELEROMETER Y (m/s²),ACCELEROMETER Z (m/s²),GYROSCOPE X (rad/s),GYROSCOPE Y (rad/s),GYROSCOPE Z (rad/s),MAGNETIC FIELD X (μT),MAGNETIC FIELD Y (μT),MAGNETIC FIELD Z (μT),ORIENTATION Z (azimuth °),ORIENTATION X (pitch °),ORIENTATION Y (roll °),LOCATION Latitude : ,LOCATION Longitude : ,LOCATION Altitude ( m),LOCATION Speed ( m/s),Time since start in ms 
0.459701,1.003201,9.811738,-0.068012,0.030477,-0.014985,-1960.2,-1939.86,1859.46,135.7422,-5.6177,-2.8237,55.85583,37.484573,176.486,0.0235,10
0.390267,0.885882,9.792584,-0.047242,0.006043,-0.018039,-1959.18,-1939.8,1858.8,135.7422,-5.6177,-2.8237,55.85583,37.484573,176.486,0.0235,20
0.469278,0.909824,9.794978,-0.022808,-0.009229,-0.017428,-1959.18,-1939.8,1858.8,135.7422,-5.6177,-2.8237,55.85583,37.484573,176.486,0.0235,30
0.469278,0.909824,9.794978,-0.022197,-0.012894,-0.016206,-1958.88,-1939.62,1858.5,135.743,-5.5412,-2.7918,55.85583,37.484573,176.486,0.0235,41
0.418998,0.900247,9.708784,-0.028306,-0.010451,-0.018039,-1958.88,-1939.62,1858.5,135.743,-5.5412,-2.7918,55.85583,37.484573,176.486,0.0235,50
0.426181,0.92419,9.725544,-0.032582,-0.004342,-0.01865,-1959.66,-1939.14,1859.16,135.743,-5.5412,-2.7918,55.85583,37.484573,176.486,0.0235,60
0.500403,0.914613,9.670476,-0.033193,-0.006175,-0.01865,-1959.66,-1939.14,1859.16,135.743,-5.5412,-2.7918,55.85583,37.484573,176.486,0.0235,70
0.500403,0.914613,9.670476,-0.031971,-0.019003,-0.024148,-1959.84,-1939.5,1858.86,135.7078,-5.4959,-2.7721,55.85583,37.484573,176.486,0.0235,80
0.548289,0.969681,9.57231,-0.028917,-0.040994,-0.029034,-1959.84,-1939.5,1858.86,135.7078,-5.4959,-2.7721,55.85583,37.484573,176.486,0.0235,90
0.493221,0.996018,9.591465,-0.026473,-0.047713,-0.027202,-1959.9,-1939.68,1858.44,135.7078,-5.4959,-2.7721,55.85583,37.484573,176.486,0.0235,100
0.498009,1.003201,9.555551,-0.03869,-0.022668,-0.019261,-1959.9,-1939.68,1858.44,135.7078,-5.4959,-2.7721,55.85583,37.484573,176.486,0.0235,110
0.466884,0.972076,9.498088,-0.067401,0.001767,-0.007654,-1960.38,-1939.32,1858.86,135.6812,-5.4513,-2.7932,55.85583,37.484573,176.486,0.0235,121
0.498009,0.962499,9.668081,-0.101609,0.021314,-0.009487,-1960.38,-1939.32,1858.86,135.6812,-5.4513,-2.7932,55.85583,37.484573,176.486,0.0235,131
0.498009,0.962499,9.668081,-0.106496,0.031699,-0.010098,-1960.2,-1939.8,1858.68,135.6812,-5.4513,-2.7932,55.85583,37.484573,176.486,0.0235,140
0.442941,0.881093,9.850046,-0.086338,0.021925,-0.009487,-1960.2,-1939.8,1858.68,135.6812,-5.4513,-2.7932,55.85583,37.484573,176.486,0.0235,150
0.409421,0.852362,9.98652,-0.086338,0.021925,-0.009487,-1959.54,-1939.92,1858.2,135.6736,-5.438,-2.8258,55.85583,37.484573,176.486,0.0235,160
0.41421,0.881093,9.950606,-0.051519,0.008486,-0.013763,-1959.54,-1939.92,1858.2,135.6736,-5.438,-2.8258,55.85583,37.484573,176.486,0.0235,170
0.41421,0.881093,9.950606,-0.027695,-0.01717,-0.022315,-1959.3,-1939.14,1857.78,135.6736,-5.438,-2.8258,55.85583,37.484573,176.486,0.0235,180
0.383084,0.859545,9.881172,-0.006315,-0.022668,-0.016817,-1959.3,-1939.14,1857.78,135.6736,-5.438,-2.8258,55.85583,37.484573,176.486,0.0235,190
0.385478,0.931373,9.73991,-0.011201,-0.019003,-0.011319,-1959.42,-1938.3,1857.84,135.6474,-5.3264,-2.7654,55.85583,37.484573,176.486,0.0235,200
0.430969,0.972076,9.653716,-0.027695,-0.008618,-0.005822,-1959.42,-1938.3,1857.84,135.6474,-5.3264,-2.7654,55.85583,37.484573,176.486,0.0235,210
0.423787,0.981653,9.653716,-0.044799,-0.020835,-0.011319,-1959.6,-1938.48,1858.56,135.6474,-5.3264,-2.7654,55.85583,37.484573,176.486,0.0235,220
0.423787,0.981653,9.653716,-0.04541,-0.036107,-0.014374,-1959.6,-1938.48,1858.56,135.6474,-5.3264,-2.7654,55.85583,37.484573,176.486,0.0235,230
0.421392,0.94095,9.730332,-0.043577,-0.036718,-0.019871,-1960.26,-1939.26,1858.56,135.6652,-5.2987,-2.7065,55.85583,37.484573,176.486,0.0235,240
0.440547,0.897853,9.821315,-0.03869,-0.029998,-0.016206,-1960.26,-1939.26,1858.56,135.6652,-5.2987,-2.7065,55.85583,37.484573,176.486,0.0235,250
0.474066,0.861939,9.857229,-0.031971,-0.019003,-0.013152,-1960.26,-1939.14,1858.62,135.6652,-5.2987,-2.7065,55.85583,37.484573,176.486,0.0235,260
0.474066,0.861939,9.857229,-0.019143,-0.016559,-0.016206,-1960.26,-1939.14,1858.62,135.6652,-5.2987,-2.7065,55.85583,37.484573,176.486,0.0235,270
0.5435,0.814053,9.873989,-0.008147,-0.014727,-0.019261,-1960.08,-1938.96,1859.5198,135.671,-5.2839,-2.6838,55.85583,37.484573,176.486,0.0235,280
0.605752,0.74462,9.814133,-0.011201,-0.011062,-0.020482,-1960.08,-1938.96,1859.5198,135.671,-5.2839,-2.6838,55.85583,37.484573,176.486,0.0235,290
0.663214,0.74462,9.828498,-0.020975,-0.00984,-0.028424,-1960.14,-1938.78,1859.7,135.671,-5.2839,-2.6838,55.85583,37.484573,176.486,0.0235,301
0.608146,0.778139,9.682447,-0.022808,-0.005564,-0.034532,-1960.14,-1938.78,1859.7,135.671,-5.2839,-2.6838,55.85583,37.484573,176.486,0.0235,310
0.608146,0.778139,9.682447,-0.022808,-0.020835,-0.041252,-1959.48,-1938.84,1859.64,135.6449,-5.2216,-2.7187,55.85583,37.484573,176.486,0.0235,320
0.615329,0.794899,9.646533,-0.025862,-0.028166,-0.045528,-1959.48,-1938.84,1859.64,135.6449,-5.2216,-2.7187,55.85583,37.484573,176.486,0.0235,331
0.555472,0.826025,9.624985,-0.02403,-0.018392,-0.049193,-1960.0198,-1939.5,1858.92,135.6449,-5.2216,-2.7187,55.85583,37.484573,176.486,0.0235,340
0.488432,0.89067,9.522031,-0.025251,-0.012894,-0.043695,-1960.0198,-1939.5,1858.92,135.6449,-5.2216,-2.7187,55.85583,37.484573,176.486,0.0235,351
0.481249,0.917007,9.373586,-0.033803,-0.02389,-0.035754,-1960.44,-1939.56,1857.66,135.4917,-5.0472,-2.9,55.85583,37.484573,176.486,0.0235,360
0.481249,0.917007,9.373586,-0.046632,-0.036718,-0.035754,-1960.44,-1939.56,1857.66,135.4917,-5.0472,-2.9,55.85583,37.484573,176.486,0.0235,370
0.440547,0.964893,9.431048,-0.058238,-0.03794,-0.035754,-1959.96,-1939.38,1857.66,135.4917,-5.0472,-2.9,55.85583,37.484573,176.486,0.0235,380
0.428575,0.964893,9.531608,-0.057627,-0.041605,-0.033921,-1959.96,-1939.38,1857.66,135.4917,-5.0472,-2.9,55.85583,37.484573,176.486,0.0235,391
0.385478,0.969681,9.557945,-0.057627,-0.041605,-0.033921,-1960.56,-1939.44,1857.96,135.3704,-4.9666,-3.0343,55.85583,37.484573,176.486,0.0235,400
0.368718,0.95771,9.591465,-0.057627,-0.044048,-0.029645,-1960.56,-1939.44,1857.96,135.3704,-4.9666,-3.0343,55.85583,37.484573,176.486,0.0235,410
0.368718,0.95771,9.591465,-0.068012,-0.050768,-0.029034,-1961.22,-1939.32,1858.32,135.3704,-4.9666,-3.0343,55.85583,37.484573,176.486,0.0235,420
0.299284,0.885882,9.797373,-0.064347,-0.047103,-0.030256,-1961.22,-1939.32,1858.32,135.3704,-4.9666,-3.0343,55.85583,37.484573,176.486,0.0235,430
0.284919,0.92419,9.864412,-0.058849,-0.040994,-0.022926,-1960.92,-1938.96,1858.86,135.3703,-4.9966,-3.0596,55.85583,37.484573,176.486,0.0235,440
0.289707,0.866728,9.828498,-0.057016,-0.054433,-0.02598,-1960.92,-1938.96,1858.86,135.3703,-4.9966,-3.0596,55.85583,37.484573,176.486,0.0235,450
0.323227,0.909824,9.90272,-0.053351,-0.061152,-0.025369,-1960.32,-1938.9,1859.04,135.3703,-4.9966,-3.0596,55.85583,37.484573,176.486,0.0235,460
0.323227,0.909824,9.90272,-0.053351,-0.061152,-0.025369,-1960.32,-1938.9,1859.04,135.3703,-4.9966,-3.0596,55.85583,37.484573,176.486,0.0235,471
0.339987,0.900247,9.914692,-0.041745,-0.064818,-0.021093,-1959.96,-1939.08,1858.92,135.4651,-5.0243,-2.91,55.85583,37.484573,176.486,0.0235,480
0.373507,0.897853,9.921875,-0.041745,-0.056266,-0.016206,-1959.96,-1939.08,1858.92,135.4651,-5.0243,-2.91,55.85583,37.484573,176.486,0.0235,490
0.457306,0.895459,9.850046,-0.040523,-0.051379,-0.011319,-1960.08,-1939.26,1859.1,135.4651,-5.0243,-2.91,55.85583,37.484573,176.486,0.0235,501
0.493221,0.902642,9.747093,-0.036247,-0.0526,-0.011319,-1960.08,-1939.26,1859.1,135.4651,-5.0243,-2.91,55.85583,37.484573,176.486,0.0235,510
0.493221,0.902642,9.747093,-0.037469,-0.056266,-0.011319,-1960.38,-1939.74,1858.74,135.5563,-5.0323,-2.7522,55.85583,37.484573,176.486,0.0235,520
0.545895,0.90743,9.653716,-0.032582,-0.056266,-0.007043,-1960.38,-1939.74,1858.74,135.5563,-5.0323,-2.7522,55.85583,37.484573,176.486,0.0235,531
0.591386,0.897853,9.548368,-0.030138,-0.053211,-0.000935,-1960.32,-1939.5,1859.04,135.5563,-5.0323,-2.7522,55.85583,37.484573,176.486,0.0235,540
0.64406,0.979258,9.727939,-0.019754,-0.077646,-0.011319,-1960.32,-1939.5,1859.04,135.5563,-5.0323,-2.7522,55.85583,37.484573,176.486,0.0235,550
0.541106,0.948133,9.557945,0.020564,-0.07337,-0.016206,-1960.14,-1939.08,1858.98,135.5605,-5.0494,-2.7283,55.85583,37.484573,176.486,0.0235,560
0.541106,0.948133,9.557945,0.003459,-0.041605,-0.017428,-1960.14,-1939.08,1858.98,135.5605,-5.0494,-2.7283,55.85583,37.484573,176.486,0.0235,571
0.629694,0.909824,9.251478,-0.006925,-0.075202,-0.024148,-1960.68,-1938.84,1858.86,135.5605,-5.0494,-2.7283,55.85583,37.484573,176.486,0.0235,580
0.639271,1.048692,9.483723,0.024229,-0.129569,-0.04675,-1960.68,-1938.84,1858.86,135.5605,-5.0494,-2.7283,55.85583,37.484573,176.486,0.0235,590
0.622511,1.017567,9.457385,0.035835,-0.151561,-0.053469,-1960.86,-1938.42,1858.44,135.4881,-5.156,-2.907,55.85583,37.484573,176.486,0.0235,600
0.672791,0.823631,9.316123,0.023618,-0.147284,-0.067519,-1960.86,-1938.42,1858.44,135.4881,-5.156,-2.907,55.85583,37.484573,176.486,0.0235,611
0.672791,0.823631,9.316123,-0.023419,-0.154004,-0.052858,-1960.74,-1939.08,1858.26,135.4881,-5.156,-2.907,55.85583,37.484573,176.486,0.0235,620
0.72786,0.950527,9.47654,-0.04541,-0.133235,-0.051026,-1960.74,-1939.08,1858.26,135.4881,-5.156,-2.907,55.85583,37.484573,176.486,0.0235,630
0.706311,1.012778,9.58907,-0.056405,-0.114909,-0.049804,-1960.86,-1939.32,1858.92,135.3998,-5.3067,-3.245,55.85583,37.484573,176.486,0.0235,640
0.639271,0.962499,9.62259,-0.067401,-0.099026,-0.049804,-1960.86,-1939.32,1858.92,135.3998,-5.3067,-3.245,55.85583,37.484573,176.486,0.0235,650
0.639271,0.962499,9.62259,-0.053962,-0.084365,-0.051026,-1960.62,-1939.32,1858.68,135.3998,-5.3067,-3.245,55.85583,37.484573,176.486,0.0235,661
0.684763,0.984047,9.672871,-0.026473,-0.086809,-0.047971,-1960.62,-1939.32,1858.68,135.3998,-5.3067,-3.245,55.85583,37.484573,176.486,0.0235,670
0.656031,1.029538,9.725544,0.004681,-0.088641,-0.041863,-1960.5,-1938.96,1858.68,135.2455,-5.2167,-3.5341,55.85583,37.484573,176.486,0.0235,680
0.715888,1.144463,9.665688,0.043776,-0.102691,-0.043084,-1960.5,-1938.96,1858.68,135.2455,-5.2167,-3.5341,55.85583,37.484573,176.486,0.0235,691
0.74462,1.2546,9.641745,0.073098,-0.100248,-0.044306,-1960.62,-1938,1858.86,135.2455,-5.2167,-3.5341,55.85583,37.484573,176.486,0.0235,700
0.74462,1.2546,9.641745,0.077374,-0.097194,-0.051026,-1960.62,-1938,1858.86,135.2455,-5.2167,-3.5341,55.85583,37.484573,176.486,0.0235,710
0.732648,1.367131,9.478934,0.077374,-0.097194,-0.051026,-1960.68,-1938.06,1858.38,135.1129,-5.1782,-3.7298,55.85583,37.484573,176.486,0.0235,720
0.797294,1.450931,9.284998,-0.053962,-0.043437,-0.034532,-1960.68,-1938.06,1858.38,135.1129,-5.1782,-3.7298,55.85583,37.484573,176.486,0.0235,730
0.830813,1.558673,9.311335,-0.124822,-0.019003,-0.024758,-1960.38,-1938.42,1858.14,135.1129,-5.1782,-3.7298,55.85583,37.484573,176.486,0.0235,740
0.849968,1.580221,9.517242,-0.162696,-0.013505,-0.029034,-1960.38,-1938.42,1858.14,135.1129,-5.1782,-3.7298,55.85583,37.484573,176.486,0.0235,750
0.849968,1.580221,9.517242,-0.162696,-0.013505,-0.029034,-1960.8,-1938.66,1858.74,135.0803,-5.2901,-3.9209,55.85583,37.484573,176.486,0.0235,760
0.92419,1.573039,9.615408,-0.145592,-0.05199,-0.025369,-1960.8,-1938.66,1858.74,135.0803,-5.2901,-3.9209,55.85583,37.484573,176.486,0.0235,771
1.113338,1.642473,9.584282,-0.1517,-0.061763,-0.012541,-1961.4,-1937.88,1858.26,135.0803,-5.2901,-3.9209,55.85583,37.484573,176.486,0.0235,781
1.312063,1.750215,9.4095,-0.166972,-0.088031,-0.012541,-1961.4,-1937.88,1858.26,135.0803,-5.2901,-3.9209,55.85583,37.484573,176.486,0.0235,790
1.467691,1.850774,9.311335,-0.177357,-0.107578,-0.007654,-1961.58,-1937.82,1858.2,134.9128,-4.9758,-3.9728,55.85583,37.484573,176.486,0.0235,801
1.467691,1.850774,9.311335,-0.194461,-0.125904,-0.005822,-1961.58,-1937.82,1858.2,134.9128,-4.9758,-3.9728,55.85583,37.484573,176.486,0.0235,810
1.623318,1.963305,9.270632,-0.209122,-0.127737,-0.005822,-1961.82,-1938.3,1858.38,134.9128,-4.9758,-3.9728,55.85583,37.484573,176.486,0.0235,820
1.783735,1.98246,9.462174,-0.225004,-0.086198,-0.007654,-1961.82,-1938.3,1858.38,134.9128,-4.9758,-3.9728,55.85583,37.484573,176.486,0.0235,831
1.606559,1.929786,9.431048,-0.239054,-0.081922,-0.001545,-1962,-1938.06,1857.78,134.6845,-4.6135,-4.1791,55.85583,37.484573,176.486,0.0235,840
1.606559,1.929786,9.431048,-0.251271,-0.057487,-0.002767,-1962,-1938.06,1857.78,134.6845,-4.6135,-4.1791,55.85583,37.484573,176.486,0.0235,850
1.347977,2.008797,9.694419,-0.249439,-0.048324,-0.012541,-1962,-1938.12,1858.14,134.6845,-4.6135,-4.1791,55.85583,37.484573,176.486,0.0235,860
0.818842,1.735849,9.672871,-0.249439,-0.048324,-0.012541,-1962,-1938.12,1858.14,134.6845,-4.6135,-4.1791,55.85583,37.484573,176.486,0.0235,870
0.368718,1.66881,9.70639,-0.223783,0.009097,0.049767,-1962.12,-1937.28,1858.86,134.3776,-4.1135,-4.414,55.85583,37.484573,176.486,0.0235,880
0.56026,1.556279,9.383162,-0.230502,-0.003731,0.055265,-1962.12,-1937.28,1858.86,134.3776,-4.1135,-4.414,55.85583,37.484573,176.486,0.0235,890
0.56026,1.556279,9.383162,-0.230502,-0.003731,0.055265,-1961.82,-1936.68,1858.86,134.3776,-4.1135,-4.414,55.85583,37.484573,176.486,0.0235,900
0.565049,1.556279,9.454991,-0.212787,-0.041605,0.050378,-1961.82,-1936.68,1858.86,134.3776,-4.1135,-4.414,55.85583,37.484573,176.486,0.0235,910
0.672791,1.692752,9.344854,-0.162696,-0.070315,0.035106,-1961.34,-1936.68,1858.56,134.1699,-3.6027,-4.4728,55.85583,37.484573,176.486,0.0235,920
0.758985,1.855563,8.832479,-0.102831,-0.136289,0.000287,-1961.34,-1936.68,1858.56,134.1699,-3.6027,-4.4728,55.85583,37.484573,176.486,0.0235,930
1.034327,1.94894,8.425453,-0.064958,-0.178439,-0.007043,-1961.46,-1936.32,1858.74,134.1699,-3.6027,-4.4728,55.85583,37.484573,176.486,0.0235,940
1.206715,1.920209,8.202786,-0.052129,-0.245023,-0.0046,-1961.46,-1936.32,1858.74,134.1699,-3.6027,-4.4728,55.85583,37.484573,176.486,0.0235,951
1.206715,1.920209,8.202786,-0.062514,-0.306109,0.003341,-1961.82,-1936.08,1858.32,133.9287,-3.2597,-4.6593,55.85583,37.484573,176.486,0.0235,960
1.340794,1.872323,8.497281,-0.118103,-0.304888,0.047324,-1961.82,-1936.08,1858.32,133.9287,-3.2597,-4.6593,55.85583,37.484573,176.486,0.0235,971
1.520365,1.845986,8.818114,-0.182244,-0.210204,0.085197,-1962.3,-1936.32,1857.9,133.9287,-3.2597,-4.6593,55.85583,37.484573,176.5513,0.0016,980
1.438959,1.89866,9.012051,-0.232335,-0.132013,0.121849,-1962.3,-1936.32,1857.9,133.9287,-3.2597,-4.6593,55.85583,37.484573,176.5513,0.0016,990
1.417411,1.89866,8.968953,-0.262878,-0.055044,0.135288,-1962.84,-1936.44,1857.84,133.5962,-3.1164,-5.278,55.85583,37.484573,176.5513,0.0016,1001
1.417411,1.89866,8.968953,-0.30686,0.019482,0.13651,-1962.84,-1936.44,1857.84,133.5962,-3.1164,-5.278,55.85583,37.484573,176.5513,0.0016,1011
1.367131,1.980065,9.141341,-0.311747,0.07446,0.121849,-1963.14,-1935.72,1858.08,133.5962,-3.1164,-5.278,55.85583,37.484573,176.5513,0.0016,1021
1.436565,2.073442,9.052753,-0.32824,0.110501,0.088863,-1963.14,-1935.72,1858.08,133.5962,-3.1164,-5.278,55.85583,37.484573,176.5513,0.0016,1030
1.606559,2.202733,9.184438,-0.339847,0.122107,0.046713,-1962.42,-1936.2,1857.96,133.2892,-2.5896,-5.5569,55.85583,37.484573,176.5513,0.0016,1040
1.63529,2.19555,9.380769,-0.31358,0.133103,-0.047971,-1962.42,-1936.2,1857.96,133.2892,-2.5896,-5.5569,55.85583,37.484573,176.5513,0.0016,1050
1.63529,2.19555,9.380769,-0.290978,0.164257,-0.099895,-1962.48,-1936.0198,1857.66,133.2892,-2.5896,-5.5569,55.85583,37.484573,176.5513,0.0016,1061
1.726272,2.190762,9.960183,-0.218896,0.182583,-0.132882,-1962.48,-1936.0198,1857.66,133.2892,-2.5896,-5.5569,55.85583,37.484573,176.5513,0.0016,1070
1.620924,2.11175,10.271439,-0.150479,0.192357,-0.147542,-1962.72,-1935.48,1857.84,133.0746,-1.8785,-5.3258,55.85583,37.484573,176.5513,0.0016,1080
1.740638,2.097385,10.534809,-0.105275,0.190524,-0.147542,-1962.72,-1935.48,1857.84,133.0746,-1.8785,-5.3258,55.85583,37.484573,176.5513,0.0016,1091
1.630501,1.793312,10.743111,-0.055184,0.178918,-0.148153,-1962.54,-1935.66,1857.66,133.0746,-1.8785,-5.3258,55.85583,37.484573,176.5513,0.0016,1100
1.630501,1.793312,10.743111,-0.01731,0.150207,-0.13166,-1962.54,-1935.66,1857.66,133.0746,-1.8785,-5.3258,55.85583,37.484573,176.5513,0.0016,1111
1.735849,1.776552,10.91071,0.010179,0.135546,-0.135325,-1962.48,-1935.06,1858.0198,133.0917,-1.4832,-4.9245,55.85583,37.484573,176.5513,0.0016,1120
1.771763,1.795706,10.901134,0.041333,0.11722,-0.15304,-1962.48,-1935.06,1858.0198,133.0917,-1.4832,-4.9245,55.85583,37.484573,176.5513,0.0016,1130
1.733455,1.752609,10.877191,0.082261,0.089731,-0.16709,-1962.3,-1934.88,1858.08,133.0917,-1.4832,-4.9245,55.85583,37.484573,176.5513,0.0016,1140
1.60177,1.81486,10.719169,0.165339,0.056744,-0.184194,-1962.3,-1934.88,1858.08,133.0917,-1.4832,-4.9245,55.85583,37.484573,176.5513,0.0016,1150
1.60177,1.81486,10.719169,0.227647,0.065907,-0.185416,-1962.3,-1935.18,1857.24,133.2426,-1.52,-4.5978,55.85583,37.484573,176.5513,0.0016,1160
1.50121,1.984854,10.295382,0.266742,0.086677,-0.161592,-1962.3,-1935.18,1857.24,133.2426,-1.52,-4.5978,55.85583,37.484573,176.5513,0.0016,1170
1.398257,2.183579,9.933846,0.278349,0.144098,-0.127384,-1961.76,-1935.72,1858.14,133.2426,-1.52,-4.5978,55.85583,37.484573,176.5513,0.0016,1180
1.328823,2.346389,9.445415,0.254525,0.15937,-0.080958,-1961.76,-1935.72,1858.14,133.2426,-1.52,-4.5978,55.85583,37.484573,176.5513,0.0016,1190
1.503605,2.451738,9.395134,0.199547,0.213737,-0.041252,-1961.46,-1935.6,1858.5,133.5331,-1.9934,-4.4334,55.85583,37.484573,176.5513,0.0016,1200
1.503605,2.451738,9.395134,0.178167,0.243669,-0.021704,-1961.46,-1935.6,1858.5,133.5331,-1.9934,-4.4334,55.85583,37.484573,176.5513,0.0016,1211
1.295303,2.581028,9.471751,0.143958,0.240615,0.015559,-1961.5198,-1936.0198,1858.26,133.5331,-1.9934,-4.4334,55.85583,37.484573,176.5513,0.0016,1220
1.295303,2.581028,9.471751,0.143958,0.240615,0.015559,-1961.5198,-1936.0198,1858.26,133.5331,-1.9934,-4.4334,55.85583,37.484573,176.5513,0.0016,1230
1.180378,2.672011,9.229929,0.086537,0.208239,0.03083,-1960.98,-1936.38,1858.14,133.5331,-1.9934,-4.4334,55.85583,37.484573,176.5513,0.0016,1241
1.180378,2.672011,9.229929,-0.04541,0.105003,0.041826,-1960.98,-1936.38,1858.14,133.5331,-1.9934,-4.4334,55.85583,37.484573,176.5513,0.0016,1250
1.082212,2.413429,10.221159,-0.133374,0.027423,0.049156,-1961.5198,-1935.96,1858.56,134.0273,-2.671,-3.8933,55.85583,37.484573,176.5513,0.0016,1260
1.082212,2.413429,10.221159,-0.34901,-0.15095,-0.022315,-1961.5198,-1935.96,1858.56,134.0273,-2.671,-3.8933,55.85583,37.484573,176.5513,0.0016,1271
1.625713,1.513182,12.376006,-0.435142,-0.079478,-0.108447,-1961.4,-1936.38,1858.5,134.0273,-2.671,-3.8933,55.85583,37.484573,176.5513,0.0016,1280
1.247417,0.079011,13.501316,-0.443083,-0.039161,-0.113945,-1960.74,-1935.6,1858.26,134.0273,-2.671,-3.8933,55.85583,37.484573,176.5513,0.0016,1290
0.663214,-0.486038,13.791023,-0.374666,0.041473,-0.095619,-1960.74,-1935.6,1858.26,134.0273,-2.671,-3.8933,55.85583,37.484573,176.5513,0.0016,1300
0.351958,-0.730254,13.642578,-0.273263,0.039029,-0.085234,-1960.98,-1935.18,1858.08,133.7391,-2.0425,-3.9654,55.85583,37.484573,176.5513,0.0016,1310
0.196331,-1.182772,13.178088,-0.170637,0.014595,-0.044306,-1960.98,-1935.18,1858.08,133.7391,-2.0425,-3.9654,55.85583,37.484573,176.5513,0.0016,1320
0.196331,-1.182772,13.178088,-0.170637,0.014595,-0.044306,-1961.5198,-1935.12,1857.78,133.7391,-2.0425,-3.9654,55.85583,37.484573,176.5513,0.0016,1330
0.349564,-1.388679,12.924295,-0.014256,0.064686,0.093139,-1961.5198,-1935.12,1857.78,133.7391,-2.0425,-3.9654,55.85583,37.484573,176.5513,0.0016,1340
0.507586,-1.283331,12.857256,0.106085,0.152039,0.14384,-1961.28,-1934.58,1857.72,133.4339,-1.2815,-3.9348,55.85583,37.484573,176.5513,0.0016,1350
0.466884,-0.931373,12.395161,0.283846,0.231452,0.186601,-1961.28,-1934.58,1857.72,133.4339,-1.2815,-3.9348,55.85583,37.484573,176.5513,0.0016,1361
0.596174,-0.047885,11.55477,0.474436,0.279099,0.184768,-1960.62,-1934.88,1858.26,133.4339,-1.2815,-3.9348,55.85583,37.484573,176.5513,0.0016,1370
0.596174,-0.047885,11.55477,0.474436,0.279099,0.184768,-1960.62,-1934.88,1858.26,133.4339,-1.2815,-3.9348,55.85583,37.484573,176.5513,0.0016,1380
-0.227456,-0.014366,9.816526,0.586225,0.136157,0.22814,-1960.56,-1934.64,1858.32,133.5462,-1.3281,-3.7175,55.85583,37.484573,176.5513,0.0016,1391
-0.596174,0.52674,8.638543,0.533079,0.067129,0.212868,-1960.56,-1934.64,1858.32,133.5462,-1.3281,-3.7175,55.85583,37.484573,176.5513,0.0016,1401
-0.790111,0.809265,7.951387,0.533079,0.067129,0.212868,-1961.34,-1934.5198,1858.38,133.5462,-1.3281,-3.7175,55.85583,37.484573,176.5513,0.0016,1410
-0.883487,0.531529,7.613794,0.369979,0.015206,0.191488,-1961.34,-1934.5198,1858.38,133.5462,-1.3281,-3.7175,55.85583,37.484573,176.5513,0.0016,1420
-0.778139,0.167599,8.30574,0.062102,-0.015338,0.172551,-1960.92,-1935.12,1858.86,134.2025,-2.464,-3.3025,55.85583,37.484573,176.5513,0.0016,1430
-0.778139,0.167599,8.30574,-0.226837,0.057966,0.157279,-1960.92,-1935.12,1858.86,134.2025,-2.464,-3.3025,55.85583,37.484573,176.5513,0.0016,1440
-0.612934,-0.069434,9.186832,-0.385051,0.162424,0.105967,-1960.74,-1935.48,1858.62,134.2025,-2.464,-3.3025,55.85583,37.484573,176.5513,0.0016,1450
-0.402238,-0.442941,9.732727,-0.451024,0.227176,0.027165,-1960.74,-1935.48,1858.62,134.2025,-2.464,-3.3025,55.85583,37.484573,176.5513,0.0016,1461
-0.59378,-1.115732,10.063137,-0.414983,0.249778,-0.005211,-1961.04,-1935.84,1858.68,134.3164,-2.6525,-3.2529,55.85583,37.484573,176.5513,0.0016,1470
-0.735042,-1.546701,10.096657,-0.355119,0.203352,0.005785,-1961.04,-1935.84,1858.68,134.3164,-2.6525,-3.2529,55.85583,37.484573,176.5513,0.0016,1480
-0.735042,-1.546701,10.096657,-0.247606,0.141044,0.007007,-1960.26,-1936.0198,1858.74,134.3164,-2.6525,-3.2529,55.85583,37.484573,176.5513,0.0016,1490
-0.105348,-1.060664,10.252285,-0.135818,0.106225,-0.01865,-1960.26,-1936.0198,1858.74,134.3164,-2.6525,-3.2529,55.85583,37.484573,176.5513,0.0016,1501
-0.34717,-1.036721,9.696813,-0.033193,0.043916,0.019835,-1959.9,-1935.96,1858.44,134.1626,-1.7103,-2.7438,55.85583,37.484573,176.5513,0.0016,1511
-0.754197,-0.998413,8.997684,0.073709,-0.003731,0.129791,-1959.9,-1935.96,1858.44,134.1626,-1.7103,-2.7438,55.85583,37.484573,176.5513,0.0016,1520
-0.754197,-0.998413,8.997684,0.120745,-0.033053,0.276398,-1960.14,-1935.66,1858.74,134.1626,-1.7103,-2.7438,55.85583,37.484573,176.5513,0.0016,1530
-0.809265,-0.763774,8.231517,0.155565,-0.097194,0.396128,-1960.14,-1935.66,1858.74,134.1626,-1.7103,-2.7438,55.85583,37.484573,176.5513,0.0016,1541
-0.41421,-0.253793,7.819702,0.205045,-0.159502,0.477373,-1959.96,-1935.24,1858.62,134.1312,-1.4793,-2.5581,55.85583,37.484573,176.5513,0.0016,1550
0.043097,0.366324,7.374367,0.205045,-0.159502,0.477373,-1959.96,-1935.24,1858.62,134.1312,-1.4793,-2.5581,55.85583,37.484573,176.5513,0.0016,1560
0.318439,0.555472,6.888329,0.070655,-0.068483,0.526242,-1959.84,-1935.3,1858.14,134.1312,-1.4793,-2.5581,55.85583,37.484573,176.5513,0.0016,1570
0.124502,0.608146,7.00086,0.005903,0.05369,0.579998,-1959.84,-1935.3,1858.14,134.1312,-1.4793,-2.5581,55.85583,37.484573,176.5513,0.0016,1581
0.124502,0.608146,7.00086,0.005903,0.05369,0.579998,-1959.3,-1935.36,1857.96,134.1723,-1.7905,-2.7981,55.85583,37.484573,176.5513,0.0016,1590
0.03352,0.792505,6.70397,-0.025251,0.112333,0.601989,-1959.3,-1935.36,1857.96,134.1723,-1.7905,-2.7981,55.85583,37.484573,176.5513,0.0016,1600
0.119714,1.048692,6.352011,0.020564,-0.008007,0.576944,-1959.84,-1935.3,1858.62,134.1723,-1.7905,-2.7981,55.85583,37.484573,176.5513,0.0016,1611
0.268159,1.30488,6.050333,0.020564,-0.008007,0.576944,-1959.84,-1935.3,1858.62,134.1723,-1.7905,-2.7981,55.85583,37.484573,176.5513,0.0016,1620
0.531529,1.374314,5.825271,0.03217,-0.140565,0.504862,-1960.74,-1936.08,1858.68,134.1644,-1.7621,-2.7576,55.85583,37.484573,176.5513,0.0016,1630
0.531529,1.374314,5.825271,-0.003871,-0.323214,0.408956,-1960.74,-1936.08,1858.68,134.1644,-1.7621,-2.7576,55.85583,37.484573,176.5513,0.0016,1640
0.59378,1.460508,6.474119,-0.066179,-0.415454,0.306941,-1960.44,-1936.26,1858.08,134.1644,-1.7621,-2.7576,55.85583,37.484573,176.5513,0.0016,1650
0.914613,1.278543,7.410281,-0.100388,-0.407513,0.22142,-1960.44,-1936.26,1858.08,134.1644,-1.7621,-2.7576,55.85583,37.484573,176.5513,0.0016,1660
0.131685,1.280937,8.607418,-0.130931,-0.358644,0.156669,-1960.44,-1936.68,1858.5,134.0087,-1.7298,-3.1421,55.85583,37.484573,176.5513,0.0016,1670
0.131685,1.280937,8.607418,-0.121768,-0.266403,0.156669,-1960.44,-1936.68,1858.5,134.0087,-1.7298,-3.1421,55.85583,37.484573,176.5513,0.0016,1680
0.189148,1.149252,9.143736,-0.093057,-0.254797,0.138954,-1960.38,-1936.86,1858.68,134.0087,-1.7298,-3.1421,55.85583,37.484573,176.5513,0.0016,1691
-0.031126,0.931373,9.809344,-0.033193,-0.246856,0.152393,-1960.38,-1936.86,1858.68,134.0087,-1.7298,-3.1421,55.85583,37.484573,176.5513,0.0016,1700
0.153234,0.900247,10.063137,0.030948,-0.27129,0.176827,-1960.74,-1936.62,1858.2,133.5237,-1.4746,-3.9836,55.85583,37.484573,176.5513,0.0016,1710
0.5435,1.05827,10.431855,0.076152,-0.336042,0.203094,-1960.74,-1936.62,1858.2,133.5237,-1.4746,-3.9836,55.85583,37.484573,176.5513,0.0016,1720
0.5435,1.05827,10.431855,0.068211,-0.373305,0.200651,-1961.58,-1936.62,1857.72,133.5237,-1.4746,-3.9836,55.85583,37.484573,176.5513,0.0016,1731
1.312063,1.350371,10.96099,0.027283,-0.414233,0.146895,-1961.58,-1936.62,1857.72,133.5237,-1.4746,-3.9836,55.85583,37.484573,176.5513,0.0016,1740
1.697541,1.60177,12.012076,0.015677,-0.394685,0.071758,-1961.76,-1936.56,1857.42,133.2404,-1.4814,-4.6344,55.85583,37.484573,176.5513,0.0016,1751
1.532336,1.570644,12.653743,0.048052,-0.281064,0.019224,-1961.76,-1936.56,1857.42,133.2404,-1.4814,-4.6344,55.85583,37.484573,176.5513,0.0016,1760
1.28812,1.438959,13.214003,0.094478,-0.282286,-0.03331,-1961.7,-1936.68,1857.72,133.2404,-1.4814,-4.6344,55.85583,37.484573,176.5513,0.0016,1770
1.036721,1.201926,13.666521,0.156176,-0.300612,-0.049193,-1961.7,-1936.68,1857.72,133.2404,-1.4814,-4.6344,55.85583,37.484573,176.5513,0.0016,1781
1.036721,1.201926,13.666521,0.277738,-0.284729,-0.017428,-1962.3,-1936.56,1857.84,132.9351,-1.5698,-5.4663,55.85583,37.484573,176.5513,0.0016,1790
1.1708,1.134886,13.53723,0.289344,-0.244412,0.006396,-1962.3,-1936.56,1857.84,132.9351,-1.5698,-5.4663,55.85583,37.484573,176.5513,0.0016,1800
1.347977,1.089395,13.467795,0.258801,-0.183326,0.018613,-1962.3,-1936.56,1857.84,132.9351,-1.5698,-5.4663,55.85583,37.484573,176.5513,0.0016,1810
1.35516,1.146858,13.644972,0.221538,-0.091696,0.032052,-1962.3,-1936.56,1857.84,132.9351,-1.5698,-5.4663,55.85583,37.484573,176.5513,0.0016,1820
1.276149,1.403045,13.64976,0.237421,-0.069705,0.043659,-1962.18,-1936.56,1858.14,132.8892,-2.0989,-6.1047,55.85583,37.484573,176.5513,0.0016,1830
1.276149,1.403045,13.64976,0.25086,-0.11552,0.043659,-1962.18,-1936.56,1858.14,132.8892,-2.0989,-6.1047,55.85583,37.484573,176.5513,0.0016,1841
1.230657,1.604164,13.166117,0.211154,-0.197375,0.011894,-1962.66,-1936.98,1857.84,132.8892,-2.0989,-6.1047,55.85583,37.484573,176.5513,0.0016,1850
1.84838,1.563461,12.754302,0.114026,-0.227919,-0.060799,-1962.66,-1936.98,1857.84,132.8892,-2.0989,-6.1047,55.85583,37.484573,176.5513,0.0016,1860
2.523566,0.849968,12.670503,-0.006315,-0.167443,-0.149375,-1963.14,-1937.4,1857.24,132.9843,-2.6515,-6.3692,55.85583,37.484573,176.5513,0.0016,1870
2.779753,-0.136474,13.020066,-0.12299,-0.022057,-0.211683,-1963.14,-1937.4,1857.24,132.9843,-2.6515,-6.3692,55.85583,37.484573,176.5513,0.0016,1881
2.779753,-0.136474,13.020066,-0.10222,0.1667,-0.228176,-1963.44,-1937.46,1857.24,132.9843,-2.6515,-6.3692,55.85583,37.484573,176.5513,0.0016,1892
2.662434,-1.134886,13.508498,-0.10222,0.1667,-0.228176,-1963.44,-1937.46,1857.24,132.9843,-2.6515,-6.3692,55.85583,37.484573,176.5513,0.0016,1900
2.24583,-1.599376,12.744725,0.126243,0.343851,-0.192746,-1963.14,-1936.92,1857.9,132.907,-2.8321,-6.7316,55.85583,37.484573,176.5513,0.0016,1910
2.274561,-1.240234,10.743111,0.368757,0.407992,-0.132271,-1963.14,-1936.92,1857.9,132.907,-2.8321,-6.7316,55.85583,37.484573,176.5513,0.0016,1921
2.274561,-1.240234,10.743111,0.578284,0.346906,-0.108447,-1962.54,-1936.68,1858.2,132.907,-2.8321,-6.7316,55.85583,37.484573,176.5513,0.0016,1930
2.540326,-0.375901,8.990502,0.727335,0.185026,-0.176864,-1962.54,-1936.68,1858.2,132.907,-2.8321,-6.7316,55.85583,37.484573,176.5513,0.0016,1940
2.379909,0.466884,7.755056,0.730389,0.083623,-0.275213,-1962.96,-1937.04,1857.78,133.3086,-3.1815,-6.0635,55.85583,37.484573,176.5513,0.0016,1950
2.166819,0.878699,6.493274,0.605772,-0.012894,-0.371119,-1962.96,-1937.04,1857.78,133.3086,-3.1815,-6.0635,55.85583,37.484573,176.5513,0.0016,1960
2.11175,0.639271,6.253846,0.25819,-0.068483,-0.479242,-1963.08,-1937.34,1857.36,133.3086,-3.1815,-6.0635,55.85583,37.484573,176.5513,0.0016,1971
2.11175,0.639271,6.253846,-0.097333,-0.021446,-0.540329,-1963.08,-1937.34,1857.36,133.3086,-3.1815,-6.0635,55.85583,37.484573,176.5513,0.0016,1980
2.164425,0.057463,7.130151,-0.404599,0.087899,-0.578202,-1962.54,-1938.18,1857.66,134.0094,-4.7339,-5.7879,55.85583,37.484573,176.5513,0.0016,1990
2.080625,-0.648848,8.3225,-0.615347,0.214348,-0.588587,-1962.54,-1938.18,1857.66,134.0094,-4.7339,-5.7879,55.85583,37.484573,176.5513,0.0016,2000
1.956123,-1.031932,9.103033,-0.677655,0.267493,-0.580035,-1962.84,-1938.66,1858.2,134.0094,-4.7339,-5.7879,55.85583,37.484573,176.5513,0.0016,2011
1.834015,-1.278543,9.598648,-0.679488,0.354236,-0.565985,-1962.84,-1938.66,1858.2,134.0094,-4.7339,-5.7879,55.85583,37.484573,176.5513,0.0016,2020
1.834015,-1.278543,9.598648,-0.679488,0.354236,-0.565985,-1962.78,-1938.3,1857.72,133.9563,-4.3602,-5.5956,55.85583,37.484573,176.5513,0.0016,2030
1.877111,-1.312063,9.651321,-0.556093,0.433648,-0.538496,-1962.78,-1938.3,1857.72,133.9563,-4.3602,-5.5956,55.85583,37.484573,176.5513,0.0016,2040
1.9657,-0.859545,9.368797,-0.485844,0.428761,-0.556211,-1962.3,-1937.58,1857.42,133.9563,-4.3602,-5.5956,55.85583,37.484573,176.5513,0.0016,2050
1.850774,-0.26337,8.655303,-0.485844,0.428761,-0.556211,-1962.3,-1937.58,1857.42,133.9563,-4.3602,-5.5956,55.85583,37.484573,176.5513,0.0016,2060
1.850774,-0.26337,8.655303,-0.27815,0.280932,-0.657615,-1962,-1936.56,1857.42,133.7977,-2.9654,-4.7305,55.85583,37.484573,176.5513,0.0016,2070
1.558673,0.272947,7.829279,-0.131542,0.081179,-0.742525,-1962,-1936.56,1857.42,133.7977,-2.9654,-4.7305,55.85583,37.484573,176.5513,0.0016,2080
1.206715,0.423787,7.515629,-0.033803,-0.076424,-0.796281,-1962,-1936.32,1857.42,133.7977,-2.9654,-4.7305,55.85583,37.484573,176.5513,0.0016,2091
0.845179,0.198725,7.702382,0.024229,-0.132013,-0.789562,-1962,-1936.32,1857.42,133.7977,-2.9654,-4.7305,55.85583,37.484573,176.5513,0.0016,2100
0.514769,0.074223,7.95857,0.057215,-0.078257,-0.705262,-1961.88,-1935.66,1857.54,133.8194,-2.418,-4.137,55.85583,37.484573,176.5513,0.0016,2110
0.217879,0.275342,7.774211,0.118913,0.018871,-0.572094,-1961.88,-1935.66,1857.54,133.8194,-2.418,-4.137,55.85583,37.484573,176.5513,0.0016,2120
0.217879,0.275342,7.774211,0.203823,0.112944,-0.438314,-1961.64,-1935.18,1857.66,133.8194,-2.418,-4.137,55.85583,37.484573,176.5513,0.0016,2130
0.059857,0.85715,7.312115,0.275905,0.236339,-0.305145,-1961.64,-1935.18,1857.66,133.8194,-2.418,-4.137,55.85583,37.484573,176.5513,0.0016,2141
0.361536,1.2546,6.919454,0.344322,0.274823,-0.197633,-1961.5198,-1935.54,1857.78,133.8803,-2.6647,-4.2267,55.85583,37.484573,176.5513,0.0016,2150
0.751802,2.015979,6.591439,0.431676,0.243058,-0.192135,-1961.5198,-1935.54,1857.78,133.8803,-2.6647,-4.2267,55.85583,37.484573,176.5513,0.0016,2160
1.213897,2.217099,6.294549,0.487875,0.126994,-0.255055,-1961.4,-1935.3,1857.48,133.8803,-2.6647,-4.2267,55.85583,37.484573,176.5513,0.0016,2171
1.213897,2.217099,6.294549,0.47688,0.03231,-0.323471,-1961.4,-1935.3,1857.48,133.8803,-2.6647,-4.2267,55.85583,37.484573,176.5513,0.0016,2180
1.443748,2.569057,6.368771,0.407241,-0.026333,-0.438314,-1961.22,-1934.94,1857.78,134.4403,-3.4944,-3.7022,55.85583,37.484573,176.5513,0.0016,2190
1.27136,2.786936,7.077477,0.337603,-0.064818,-0.559876,-1961.22,-1934.94,1857.78,134.4403,-3.4944,-3.7022,55.85583,37.484573,176.5513,0.0016,2200
0.921796,2.535537,7.616188,0.292399,-0.058098,-0.640511,-1961.22,-1935.6,1857.66,134.4403,-3.4944,-3.7022,55.85583,37.484573,176.5513,0.0016,2210
0.5435,1.977671,7.968147,0.228258,-0.003731,-0.666778,-1961.22,-1935.6,1857.66,134.4403,-3.4944,-3.7022,55.85583,37.484573,176.5513,0.0016,2221
0.5435,1.977671,7.968147,0.134185,0.067129,-0.627071,-1961.16,-1936.14,1857.36,134.8704,-4.5221,-3.6613,55.85583,37.484573,176.5513,0.0016,2230
0.402238,1.707118,8.339259,0.041333,0.148374,-0.54827,-1961.16,-1936.14,1857.36,134.8704,-4.5221,-3.6613,55.85583,37.484573,176.5513,0.0016,2242
0.423787,1.640078,8.7822,-0.062514,0.24428,-0.456029,-1960.74,-1936.32,1857.9,134.8704,-4.5221,-3.6613,55.85583,37.484573,176.5513,0.0016,2250
0.569837,1.525153,9.210775,-0.130931,0.332856,-0.37906,-1960.74,-1936.32,1857.9,134.8704,-4.5221,-3.6613,55.85583,37.484573,176.5513,0.0016,2260
0.603357,1.496422,9.464568,-0.171859,0.373173,-0.308811,-1960.32,-1936.8,1857.9,135.1815,-4.9564,-3.4025,55.85583,37.484573,176.5513,0.0016,2270
0.603357,1.496422,9.464568,-0.210344,0.312697,-0.255665,-1960.32,-1936.8,1857.9,135.1815,-4.9564,-3.4025,55.85583,37.484573,176.5513,0.0016,2280
0.507586,1.56825,10.077502,-0.195072,0.222289,-0.215959,-1960.62,-1936.26,1857.36,135.1815,-4.9564,-3.4025,55.85583,37.484573,176.5513,0.0016,2291
0.320833,1.690358,10.76466,-0.140705,0.106225,-0.189081,-1960.62,-1936.26,1857.36,135.1815,-4.9564,-3.4025,55.85583,37.484573,176.5513,0.0016,2300
0.24661,1.683175,11.229149,-0.084505,-0.018392,-0.144488,-1960.56,-1935.78,1857.24,135.4155,-4.6617,-2.6017,55.85583,37.484573,176.5513,0.0016,2310
0.227456,1.9657,11.552376,-0.047242,-0.098415,-0.107836,-1960.56,-1935.78,1857.24,135.4155,-4.6617,-2.6017,55.85583,37.484573,176.5513,0.0016,2320
0.227456,1.9657,11.552376,-0.069234,-0.182715,-0.088899,-1959.9,-1935.6,1857.72,135.4155,-4.6617,-2.6017,55.85583,37.484573,176.5513,0.0016,2331
0.498009,1.908237,11.585896,-0.15109,-0.198597,-0.079125,-1959.9,-1935.6,1857.72,135.4155,-4.6617,-2.6017,55.85583,37.484573,176.5513,0.0016,2340
0.720677,1.51797,12.107848,-0.25005,-0.135067,-0.055302,-1959.66,-1935.6,1858.32,135.4128,-4.4333,-2.4503,55.85583,37.484573,176.5513,0.0016,2350
0.5435,1.268966,13.130203,-0.30686,0.035975,-0.000935,-1959.66,-1935.6,1858.32,135.4128,-4.4333,-2.4503,55.85583,37.484573,176.5513,0.0016,2361
0.5435,1.268966,13.130203,-0.30686,0.035975,-0.000935,-1959.12,-1935.48,1858.5,135.4128,-4.4333,-2.4503,55.85583,37.484573,176.5513,0.0016,2370
-0.009577,1.216292,13.656943,-0.294032,0.21618,0.131623,-1959.12,-1935.48,1858.5,135.4128,-4.4333,-2.4503,55.85583,37.484573,176.5513,0.0016,2380
-0.366324,0.979258,13.237946,-0.294032,0.21618,0.131623,-1959.18,-1934.94,1858.14,135.1138,-4.0487,-2.7661,55.85583,37.484573,176.5513,0.0016,2390
-0.162811,0.505192,13.008095,-0.322743,0.172809,0.190266,-1959.18,-1934.94,1858.14,135.1138,-4.0487,-2.7661,55.85583,37.484573,176.5513,0.0016,2400
0.498009,-0.423787,13.47019,-0.397879,0.091564,0.240357,-1959.3,-1935.06,1858.32,135.1138,-4.0487,-2.7661,55.85583,37.484573,176.5513,0.0016,2410
0.498009,-0.423787,13.47019,-0.435753,0.110501,0.269068,-1959.3,-1935.06,1858.32,135.1138,-4.0487,-2.7661,55.85583,37.484573,176.5513,0.0016,2420
1.031933,-1.314457,14.767887,-0.35634,0.209461,0.282507,-1959.24,-1935,1858.32,134.991,-3.3304,-2.411,55.85583,37.484573,176.5513,0.0016,2430
0.964893,-1.573039,15.15576,-0.129709,0.345684,0.282507,-1959.24,-1935,1858.32,134.991,-3.3304,-2.411,55.85583,37.484573,176.5513,0.0016,2441
0.284919,-1.364737,13.592299,0.227647,0.423875,0.267235,-1959.18,-1934.82,1857.78,134.991,-3.3304,-2.411,55.85583,37.484573,176.5513,0.0016,2450
-0.450124,-0.737437,10.446221,0.660139,0.302312,0.231194,-1959.18,-1934.82,1857.78,134.991,-3.3304,-2.411,55.85583,37.484573,176.5513,0.0016,2460
-0.450124,-0.737437,10.446221,0.828127,0.051858,0.178049,-1958.94,-1934.16,1857.96,134.9166,-2.6518,-1.936,55.85583,37.484573,176.5513,0.0016,2470
-0.981653,-0.062251,8.561927,0.84401,-0.167443,0.142008,-1958.94,-1934.16,1857.96,134.9166,-2.6518,-1.936,55.85583,37.484573,176.5513,0.0016,2480
-0.950527,0.339987,7.235499,0.608827,-0.319548,0.096804,-1959,-1934.82,1858.2,134.9166,-2.6518,-1.936,55.85583,37.484573,176.5513,0.0016,2491
-0.85715,0.301679,7.027197,0.244751,-0.34154,0.062595,-1959,-1934.82,1858.2,134.9166,-2.6518,-1.936,55.85583,37.484573,176.5513,0.0016,2500
-0.536318,-0.038308,8.013638,-0.135818,-0.230973,0.059541,-1959.3,-1935.84,1858.08,135.6901,-4.1971,-1.7037,55.85583,37.484573,176.5513,0.0016,2510
0.043097,-0.407027,9.555551,-0.453468,0.012151,0.062595,-1959.3,-1935.84,1858.08,135.6901,-4.1971,-1.7037,55.85583,37.484573,176.5513,0.0016,2520
0.043097,-0.407027,9.555551,-0.555482,0.20213,0.035717,-1959,-1936.38,1857.42,135.6901,-4.1971,-1.7037,55.85583,37.484573,176.5513,0.0016,2531
0.301679,-0.663214,9.943423,-0.555482,0.298647,-0.025369,-1959,-1936.38,1857.42,135.6901,-4.1971,-1.7037,55.85583,37.484573,176.5513,0.0016,2540
0.201119,-1.003201,9.818921,-0.555482,0.298647,-0.025369,-1959.12,-1936.5,1857.66,135.4952,-4.3479,-2.2358,55.85583,37.484573,176.5513,0.0016,2550
-0.093377,-1.2546,9.378374,-0.486455,0.313308,-0.04003,-1959.12,-1936.5,1857.66,135.4952,-4.3479,-2.2358,55.85583,37.484573,176.5513,0.0016,2561
-0.342381,-1.249811,8.930645,-0.40582,0.263828,-0.012541,-1959.36,-1935.66,1857.66,135.4952,-4.3479,-2.2358,55.85583,37.484573,176.5513,0.0016,2571
-0.342381,-1.249811,8.930645,-0.267154,0.139211,0.054654,-1959.36,-1935.66,1857.66,135.4952,-4.3479,-2.2358,55.85583,37.484573,176.5513,0.0016,2580
-0.423787,-1.058269,8.590658,-0.098555,0.007875,0.126736,-1959.18,-1935.3,1857.12,135.2832,-3.1233,-1.6067,55.85583,37.484573,176.5513,0.0016,2591
-0.426181,-0.59378,8.073495,0.063324,-0.086198,0.184768,-1959.18,-1935.3,1857.12,135.2832,-3.1233,-1.6067,55.85583,37.484573,176.5513,0.0016,2600
-0.407027,-0.186753,7.223527,0.183665,-0.135067,0.264792,-1959.24,-1934.82,1857.24,135.2832,-3.1233,-1.6067,55.85583,37.484573,176.5513,0.0016,2610
-0.407027,-0.186753,7.223527,0.219706,-0.149117,0.34848,-1959.24,-1934.82,1857.24,135.2832,-3.1233,-1.6067,55.85583,37.484573,176.5513,0.0016,2620
-0.474066,0.090982,6.332857,0.209321,-0.157058,0.419341,-1959.24,-1934.5198,1857.78,135.1872,-2.7127,-1.4458,55.85583,37.484573,176.5513,0.0016,2631
-0.38069,0.423787,5.77978,0.165949,-0.203484,0.457825,-1959.24,-1934.5198,1857.78,135.1872,-2.7127,-1.4458,55.85583,37.484573,176.5513,0.0016,2640
-0.241822,0.782928,5.621757,0.115248,-0.24991,0.474929,-1959.12,-1935.18,1857.96,135.1872,-2.7127,-1.4458,55.85583,37.484573,176.5513,0.0016,2650
-0.059857,1.077424,5.913859,0.083483,-0.264571,0.474929,-1959.12,-1935.18,1857.96,135.1872,-2.7127,-1.4458,55.85583,37.484573,176.5513,0.0016,2661
-0.059857,1.077424,5.913859,0.062713,-0.266403,0.457214,-1958.7,-1935.6,1857.84,135.1944,-3.1211,-1.823,55.85583,37.484573,176.5513,0.0016,2670
-0.004789,1.309668,6.292155,0.037057,-0.267014,0.437667,-1958.88,-1935.42,1857.66,135.1944,-3.1211,-1.823,55.85583,37.484573,176.5513,0.0016,2680
0.031126,1.403045,6.581862,-0.004482,-0.273123,0.411399,-1958.88,-1935.42,1857.66,135.1944,-3.1211,-1.823,55.85583,37.484573,176.5513,0.0016,2690
0.169994,1.405439,7.23071,-0.028917,-0.268236,0.369861,-1959.3,-1935.24,1857.12,135.1944,-3.1211,-1.823,55.85583,37.484573,176.5513,0.0016,2700
0.328016,1.280937,8.056735,-0.034414,-0.266403,0.317937,-1959.3,-1935.24,1857.12,135.1944,-3.1211,-1.823,55.85583,37.484573,176.5513,0.0016,2710
0.328016,1.280937,8.056735,-0.034414,-0.266403,0.317937,-1959.84,-1935.54,1857.42,134.7861,-3.2509,-2.7847,55.85583,37.484573,176.5513,0.0016,2721
0.531529,1.28812,8.791777,-0.03808,-0.27129,0.24219,-1959.84,-1935.54,1857.42,134.7861,-3.2509,-2.7847,55.85583,37.484573,176.5513,0.0016,2730
0.641666,1.30488,9.598648,-0.042356,-0.234027,0.17194,-1959.96,-1935.66,1857.36,134.7861,-3.2509,-2.7847,55.85583,37.484573,176.5513,0.0016,2740
0.591386,1.20432,10.38397,-0.04541,-0.19371,0.107189,-1959.96,-1935.66,1857.36,134.7861,-3.2509,-2.7847,55.85583,37.484573,176.5513,0.0016,2750
0.41421,1.084607,11.183658,-0.034414,-0.138732,0.057708,-1960.2,-1935.42,1857.6,134.4589,-3.1491,-3.3846,55.85583,37.484573,176.5513,0.0016,2761
0.41421,1.084607,11.183658,0.02545,-0.083755,0.018613,-1960.2,-1935.42,1857.6,134.4589,-3.1491,-3.3846,55.85583,37.484573,176.5513,0.0016,2770
0.043097,1.02475,11.607444,0.136017,-0.088031,-0.000935,-1960.0198,-1935.48,1858.0198,134.4589,-3.1491,-3.3846,55.85583,37.484573,176.5513,0.0016,2780
-0.146051,1.027144,11.480548,0.219706,-0.160113,-0.008876,-1960.0198,-1935.48,1858.0198,134.4589,-3.1491,-3.3846,55.85583,37.484573,176.5513,0.0016,2791
-0.01676,0.998413,11.535616,0.263077,-0.238914,-0.003378,-1960.26,-1935.9,1857.42,134.4017,-3.267,-3.6496,55.85583,37.484573,176.5513,0.0016,2800
0.325621,0.845179,12.024048,0.250249,-0.305499,0.007617,-1960.26,-1935.9,1857.42,134.4017,-3.267,-3.6496,55.85583,37.484573,176.5513,0.0016,2810
0.325621,0.845179,12.024048,0.214819,-0.325657,0.015559,-1960.74,-1936.0198,1857.48,134.4017,-3.267,-3.6496,55.85583,37.484573,176.5513,0.0016,2820
0.828419,0.742225,12.905141,0.172058,-0.252964,0.029609,-1960.74,-1936.0198,1857.48,134.4017,-3.267,-3.6496,55.85583,37.484573,176.5513,0.0016,2830
1.127703,0.763774,13.501316,0.163506,-0.143008,0.027165,-1961.34,-1936.08,1857.6,134.3263,-3.8032,-4.2613,55.85583,37.484573,176.5513,0.0016,2840
1.091789,0.668003,13.623424,0.208099,-0.068483,0.001509,-1961.34,-1936.08,1857.6,134.3263,-3.8032,-4.2613,55.85583,37.484573,176.5513,0.0016,2850
0.52674,1.149252,12.979363,0.333937,-0.05199,-0.017428,-1961.46,-1936.74,1856.94,134.3263,-3.8032,-4.2613,55.85583,37.484573,176.5513,0.0016,2860
0.52674,1.149252,12.979363,0.428622,-0.133235,-0.015595,-1961.46,-1936.74,1856.94,134.3263,-3.8032,-4.2613,55.85583,37.484573,176.5513,0.0016,2870
0.107742,2.106962,11.899546,0.472604,-0.306109,-0.033921,-1960.92,-1936.68,1856.7,134.4447,-4.3618,-4.5051,55.85583,37.484573,176.5513,0.0016,2881
0.311256,2.406246,11.11183,0.382807,-0.503419,-0.063854,-1960.92,-1936.68,1856.7,134.4447,-4.3618,-4.5051,55.85583,37.484573,176.5513,0.0016,2890
1.434171,1.989642,10.314536,0.211154,-0.610931,-0.107836,-1960.92,-1936.86,1857.3,134.4447,-4.3618,-4.5051,55.85583,37.484573,176.5513,0.0016,2900
2.863553,-0.239427,12.680079,-0.273873,-0.537016,-0.224511,-1960.92,-1936.86,1857.3,134.4447,-4.3618,-4.5051,55.85583,37.484573,176.5513,0.0016,2910
2.863553,-0.239427,12.680079,-0.597632,-0.178439,-0.234896,-1961.46,-1937.58,1856.94,134.3309,-5.1555,-5.4554,55.85583,37.484573,176.5513,0.0016,2920
3.023969,-2.157241,14.901966,-0.66666,0.235728,-0.192746,-1961.46,-1937.58,1856.94,134.3309,-5.1555,-5.4554,55.85583,37.484573,176.5513,0.0016,2931
2.590605,-3.203539,15.727991,-0.419259,0.614464,-0.106003,-1962.06,-1937.04,1856.34,134.3309,-5.1555,-5.4554,55.85583,37.484573,176.5513,0.0016,2940
1.60177,-3.198751,13.309773,-0.014867,0.79467,0.042437,-1962.06,-1937.04,1856.34,134.3309,-5.1555,-5.4554,55.85583,37.484573,176.5513,0.0016,2950
1.189955,-1.805283,10.35045,0.3712,0.676773,0.170719,-1962.36,-1936.68,1856.76,134.0427,-4.0912,-5.1626,55.85583,37.484573,176.5513,0.0016,2960
1.189955,-1.805283,10.35045,0.619212,0.29376,0.148727,-1962.36,-1936.68,1856.76,134.0427,-4.0912,-5.1626,55.85583,37.484573,176.5513,0.0016,2970
1.434171,-0.399844,7.623371,0.701678,-0.143008,0.046102,-1962,-1936.98,1856.7,134.0427,-4.0912,-5.1626,55.85583,37.484573,176.5388,0.1905,2980
2.006402,0.064645,5.652883,0.395635,-0.536406,-0.132271,-1962,-1936.98,1856.7,134.0427,-4.0912,-5.1626,55.85583,37.484573,176.5388,0.1905,2990
2.468497,0.129291,5.97611,-0.069234,-0.547401,-0.265439,-1961.58,-1937.58,1856.7,134.8055,-5.0708,-4.2863,55.85583,37.484573,176.5388,0.1905,3000
2.207522,-0.368718,8.078284,-0.609849,-0.287783,-0.35768,-1961.58,-1937.58,1856.7,134.8055,-5.0708,-4.2863,55.85583,37.484573,176.5388,0.1905,3010
2.207522,-0.368718,8.078284,-0.833426,-0.020835,-0.325304,-1961.7,-1938.06,1857,134.8055,-5.0708,-4.2863,55.85583,37.484573,176.5388,0.1905,3020
1.680781,-1.120521,9.871595,-0.860915,0.197854,-0.234285,-1961.7,-1938.06,1857,134.8055,-5.0708,-4.2863,55.85583,37.484573,176.5388,0.1905,3031
1.407834,-1.324034,11.042396,-0.860915,0.197854,-0.234285,-1962.18,-1937.76,1856.58,134.2598,-4.6309,-5.1535,55.85583,37.484573,176.5388,0.1905,3040
1.379102,-0.948133,11.30816,-0.673379,0.381725,-0.126773,-1962.18,-1937.76,1856.58,134.2598,-4.6309,-5.1535,55.85583,37.484573,176.5388,0.1905,3051
1.426988,-0.366324,10.084685,-0.430255,0.451363,-0.060189,-1962.72,-1936.74,1856.64,134.2598,-4.6309,-5.1535,55.85583,37.484573,176.5388,0.1905,3060
1.426988,-0.366324,10.084685,-0.198126,0.429983,-0.025369,-1962.72,-1936.74,1856.64,134.2598,-4.6309,-5.1535,55.85583,37.484573,176.5388,0.1905,3070
1.546702,0.426181,8.825297,0.005292,0.327358,-0.042473,-1962.18,-1935.96,1856.7,133.9987,-3.1523,-4.4008,55.85583,37.484573,176.5388,0.1905,3080
1.819649,1.2546,7.716748,0.208099,0.141655,-0.137768,-1962.18,-1935.96,1856.7,133.9987,-3.1523,-4.4008,55.85583,37.484573,176.5388,0.1905,3090
1.843592,1.690358,7.046351,0.339435,0.002377,-0.253222,-1961.5198,-1935.6,1856.52,133.9987,-3.1523,-4.4008,55.85583,37.484573,176.5388,0.1905,3101
1.843592,1.690358,7.046351,0.390137,-0.064818,-0.389445,-1961.5198,-1935.6,1856.52,133.9987,-3.1523,-4.4008,55.85583,37.484573,176.5388,0.1905,3110
1.467691,1.802889,6.431022,0.346766,-0.016559,-0.48474,-1961.4,-1935.72,1856.94,134.2503,-3.305,-3.9939,55.85583,37.484573,176.5388,0.1905,3120
0.766168,1.592193,6.220326,0.276516,0.072016,-0.510396,-1961.4,-1935.72,1856.94,134.2503,-3.305,-3.9939,55.85583,37.484573,176.5388,0.1905,3131
0.198725,1.316851,6.342434,0.241086,0.165479,-0.490238,-1961.28,-1936.44,1856.7,134.2503,-3.305,-3.9939,55.85583,37.484573,176.5388,0.1905,3140
-0.227456,1.28812,6.352011,0.25086,0.221067,-0.435871,-1961.28,-1936.44,1856.7,134.2503,-3.305,-3.9939,55.85583,37.484573,176.5388,0.1905,3150
-0.227456,1.28812,6.352011,0.288733,0.241226,-0.373562,-1961.34,-1936.5,1856.58,134.5907,-4.1538,-3.9694,55.85583,37.484573,176.5388,0.1905,3160
-0.402238,1.261783,6.184412,0.331494,0.229619,-0.305756,-1961.34,-1936.5,1856.58,134.5907,-4.1538,-3.9694,55.85583,37.484573,176.5388,0.1905,3170
-0.239427,1.489239,5.815694,0.315001,0.192357,-0.259331,-1961.28,-1936.14,1856.7,134.5907,-4.1538,-3.9694,55.85583,37.484573,176.5388,0.1905,3180
-0.047885,1.620924,5.918648,0.241086,0.155094,-0.230009,-1961.28,-1936.14,1856.7,134.5907,-4.1538,-3.9694,55.85583,37.484573,176.5388,0.1905,3191
0.172388,1.704724,6.483696,0.153732,0.126994,-0.227566,-1961.04,-1936.8,1857,135.1276,-4.8673,-3.4156,55.85583,37.484573,176.5388,0.1905,3200
0.172388,1.704724,6.483696,0.059659,0.09584,-0.230009,-1961.04,-1936.8,1857,135.1276,-4.8673,-3.4156,55.85583,37.484573,176.5388,0.1905,3210
0.335198,1.671204,7.204373,-0.025251,0.096451,-0.234285,-1960.56,-1937.28,1856.82,135.1276,-4.8673,-3.4156,55.85583,37.484573,176.5388,0.1905,3221
0.612934,1.582616,8.130958,-0.086949,0.111722,-0.236118,-1960.56,-1937.28,1856.82,135.1276,-4.8673,-3.4156,55.85583,37.484573,176.5388,0.1905,3230
0.672791,1.350371,8.91149,-0.120546,0.121496,-0.23062,-1959.9,-1937.16,1857,135.4878,-5.3375,-3.0518,55.85583,37.484573,176.5388,0.1905,3240
0.588992,1.072635,9.926663,-0.141927,0.13127,-0.208629,-1959.9,-1937.16,1857,135.4878,-5.3375,-3.0518,55.85583,37.484573,176.5388,0.1905,3251
0.588992,1.072635,9.926663,-0.088781,0.065297,-0.146321,-1959.54,-1937.04,1857.54,135.4878,-5.3375,-3.0518,55.85583,37.484573,176.5388,0.1905,3260
0.548289,1.005595,10.609032,0.05355,-0.095972,-0.106614,-1959.54,-1937.04,1857.54,135.4878,-5.3375,-3.0518,55.85583,37.484573,176.5388,0.1905,3270
0.639271,1.127703,11.669696,0.156176,-0.086198,-0.076071,-1959.42,-1936.32,1857.54,135.5736,-5.1718,-2.7404,55.85583,37.484573,176.5388,0.1905,3281
0.39745,1.077424,12.244322,0.223982,-0.029388,0.042437,-1959.42,-1936.32,1857.54,135.5736,-5.1718,-2.7404,55.85583,37.484573,176.5388,0.1905,3290
0.39745,1.077424,12.244322,0.248416,0.034753,0.142008,-1959.9,-1936.32,1857.72,135.5736,-5.1718,-2.7404,55.85583,37.484573,176.5388,0.1905,3300
0.488432,1.345583,12.055174,0.173891,0.086677,0.213479,-1959.9,-1936.32,1857.72,135.5736,-5.1718,-2.7404,55.85583,37.484573,176.5388,0.1905,3310
0.742225,1.575433,11.973768,0.055994,0.136157,0.259294,-1960.26,-1937.34,1857.78,135.6062,-5.3295,-2.7962,55.85583,37.484573,176.5388,0.1905,3320
1.182772,1.766975,12.708811,-0.005093,0.196022,0.255018,-1960.26,-1937.34,1857.78,135.6062,-5.3295,-2.7962,55.85583,37.484573,176.5388,0.1905,3331
0.996018,1.89866,13.542018,-0.005093,0.196022,0.255018,-1959.66,-1937.88,1857.48,135.6062,-5.3295,-2.7962,55.85583,37.484573,176.5388,0.1905,3340
0.996018,1.89866,13.542018,0.018731,0.246724,0.216533,-1959.66,-1937.88,1857.48,135.6062,-5.3295,-2.7962,55.85583,37.484573,176.5388,0.1905,3350
0.399844,2.013585,13.695251,0.115859,0.219235,0.194542,-1959.42,-1937.22,1857.12,135.8114,-5.6355,-2.6344,55.85583,37.484573,176.5388,0.1905,3360
-0.074223,2.142876,13.214003,0.157397,0.171587,0.19271,-1959.72,-1936.86,1857.42,135.8114,-5.6355,-2.6344,55.85583,37.484573,176.5388,0.1905,3370
-0.162811,1.527547,12.208407,0.060881,0.00421,0.146284,-1959.72,-1936.86,1857.42,135.8114,-5.6355,-2.6344,55.85583,37.484573,176.5388,0.1905,3380
-0.045491,-0.119714,13.458219,-0.126044,-0.056876,0.096804,-1959.48,-1937.28,1857.36,135.8114,-5.6355,-2.6344,55.85583,37.484573,176.5388,0.1905,3390
-0.045491,-0.119714,13.458219,-0.251882,-0.001899,0.097415,-1959.48,-1937.28,1857.36,135.8114,-5.6355,-2.6344,55.85583,37.484573,176.5388,0.1905,3400
-0.270553,-1.716695,15.026468,-0.197515,0.200298,0.156058,-1959.24,-1938.06,1857.18,136.0729,-5.8119,-2.2571,55.85583,37.484573,176.5388,0.1905,3411
-0.720677,-2.597788,15.902773,0.070044,0.374394,0.253185,-1959.24,-1938.06,1857.18,136.0729,-5.8119,-2.2571,55.85583,37.484573,176.5388,0.1905,3420
-1.494027,-2.363149,14.356071,0.475658,0.454418,0.3833,-1958.7,-1937.58,1857.48,136.0729,-5.8119,-2.2571,55.85583,37.484573,176.5388,0.1905,3430
-1.81486,-1.053481,10.881979,0.848897,0.329801,0.543957,-1958.7,-1937.58,1857.48,136.0729,-5.8119,-2.2571,55.85583,37.484573,176.5388,0.1905,3441
-1.81486,-1.053481,10.881979,0.892268,0.143487,0.528686,-1958.22,-1937.5198,1856.82,136.1005,-5.4715,-1.9666,55.85583,37.484573,176.5388,0.1905,3450
-1.61853,0.249005,8.506859,0.892268,0.143487,0.528686,-1958.22,-1937.5198,1856.82,136.1005,-5.4715,-1.9666,55.85583,37.484573,176.5388,0.1905,3460
-1.352765,0.756591,6.969734,0.480545,-0.121017,0.490201,-1957.98,-1938.36,1856.94,136.1005,-5.4715,-1.9666,55.85583,37.484573,176.5388,0.1905,3471
-0.588992,0.826025,6.560313,0.098143,-0.14423,0.468821,-1958.04,-1938.78,1857.54,136.1005,-5.4715,-1.9666,55.85583,37.484573,176.5388,0.1905,3480
0.371113,0.670397,8.269825,-0.242719,0.003599,0.444997,-1958.04,-1938.78,1857.54,136.1005,-5.4715,-1.9666,55.85583,37.484573,176.5388,0.1905,3490
0.371113,0.670397,8.269825,-0.435142,0.214348,0.399182,-1957.98,-1939.74,1857.78,137.0768,-7.4458,-1.5201,55.85583,37.484573,176.5388,0.1905,3501
0.804476,0.490826,9.354432,-0.479735,0.386001,0.352756,-1957.98,-1939.74,1857.78,137.0768,-7.4458,-1.5201,55.85583,37.484573,176.5388,0.1905,3510
0.713494,0.21309,9.4095,-0.433309,0.359734,0.32038,-1958.34,-1939.56,1858.14,137.0768,-7.4458,-1.5201,55.85583,37.484573,176.5388,0.1905,3520
0.581809,-0.028731,9.04557,-0.365503,0.255276,0.309385,-1958.34,-1939.56,1858.14,137.0768,-7.4458,-1.5201,55.85583,37.484573,176.5388,0.1905,3530
0.483644,-0.131685,8.851634,-0.365503,0.255276,0.309385,-1958.94,-1939.26,1858.74,136.8923,-6.9622,-1.4896,55.85583,37.484573,176.5388,0.1905,3541
0.483644,-0.131685,8.851634,-0.286091,0.15265,0.338706,-1958.94,-1939.26,1858.74,136.8923,-6.9622,-1.4896,55.85583,37.484573,176.5388,0.1905,3550
0.574626,-0.112531,8.729526,-0.230502,0.118442,0.382078,-1958.64,-1939.5,1857.66,136.8923,-6.9622,-1.4896,55.85583,37.484573,176.5388,0.1905,3560
0.636877,-0.167599,8.456578,-0.229891,0.179528,0.44683,-1958.64,-1939.5,1857.66,136.8923,-6.9622,-1.4896,55.85583,37.484573,176.5388,0.1905,3570
0.450124,0.0838,8.037581,-0.209122,0.251611,0.504251,-1958.04,-1939.74,1856.46,136.8518,-6.1023,-0.9885,55.85583,37.484573,176.5388,0.1905,3580
0.249005,0.323227,7.21395,-0.133985,0.234506,0.54579,-1958.04,-1939.74,1856.46,136.8518,-6.1023,-0.9885,55.85583,37.484573,176.5388,0.1905,3590
0.249005,0.323227,7.21395,-0.020364,0.134324,0.558618,-1958.04,-1939.44,1856.88,136.8518,-6.1023,-0.9885,55.85583,37.484573,176.5388,0.1905,3601
0.371113,0.557866,6.344828,0.106085,-0.071537,0.541514,-1958.04,-1939.44,1856.88,136.8518,-6.1023,-0.9885,55.85583,37.484573,176.5388,0.1905,3610
0.622511,0.797294,5.825271,0.154954,-0.197986,0.515857,-1957.44,-1939.38,1857.12,136.8451,-5.6225,-0.6448,55.85583,37.484573,176.5388,0.1905,3620
0.85715,1.173195,5.485284,0.128076,-0.244412,0.473708,-1957.56,-1939.62,1857.24,136.8451,-5.6225,-0.6448,55.85583,37.484573,176.5388,0.1905,3631
0.85715,1.173195,5.485284,0.01079,-0.230362,0.408345,-1957.56,-1939.62,1857.24,136.8451,-5.6225,-0.6448,55.85583,37.484573,176.5388,0.1905,3640
0.770957,1.592193,5.597815,-0.071066,-0.197375,0.378413,-1957.86,-1939.8,1857.42,136.8451,-5.6225,-0.6448,55.85583,37.484573,176.5388,0.1905,3650
0.493221,1.661627,6.091035,-0.115049,-0.158891,0.370471,-1957.86,-1939.8,1857.42,136.8451,-5.6225,-0.6448,55.85583,37.484573,176.5388,0.1905,3661
0.294496,1.845986,6.462148,-0.115049,-0.165,0.364363,-1958.4,-1939.74,1857.54,136.66,-5.84,-1.1762,55.85583,37.484573,176.5388,0.1905,3670
0.26337,2.054288,6.629747,-0.095501,-0.218145,0.333209,-1958.4,-1939.74,1857.54,136.66,-5.84,-1.1762,55.85583,37.484573,176.5388,0.1905,3680
0.471672,2.181184,6.78777,-0.081451,-0.312218,0.277009,-1958.58,-1939.86,1857.48,136.66,-5.84,-1.1762,55.85583,37.484573,176.5388,0.1905,3691
0.471672,2.181184,6.78777,-0.104664,-0.383078,0.195764,-1958.58,-1939.86,1857.48,136.66,-5.84,-1.1762,55.85583,37.484573,176.5388,0.1905,3700
0.720677,2.322447,7.245076,-0.104664,-0.383078,0.195764,-1958.58,-1940.28,1857.36,136.3056,-5.6214,-1.6908,55.85583,37.484573,176.5388,0.1905,3710
0.993624,2.377515,8.063917,-0.173081,-0.413622,0.101691,-1958.58,-1940.28,1857.36,136.3056,-5.6214,-1.6908,55.85583,37.484573,176.5388,0.1905,3720
0.945739,2.152453,9.265843,-0.29953,-0.349481,-0.022315,-1958.7,-1940.34,1857.42,136.3056,-5.6214,-1.6908,55.85583,37.484573,176.5388,0.1905,3730
0.945739,2.152453,9.265843,-0.39177,-0.22853,-0.087067,-1958.7,-1940.34,1857.42,136.3056,-5.6214,-1.6908,55.85583,37.484573,176.5388,0.1905,3740
0.505192,1.659233,10.537204,-0.465074,-0.086809,-0.112723,-1959.06,-1939.26,1857.66,135.7574,-5.3212,-2.5592,55.85583,37.484573,176.5388,0.1905,3751
0.165205,1.312063,11.67209,-0.457744,-0.006785,-0.099284,-1959.06,-1939.26,1857.66,135.7574,-5.3212,-2.5592,55.85583,37.484573,176.5388,0.1905,3760
0.174782,1.04151,12.383189,-0.393603,0.02498,-0.066908,-1959.3,-1938.84,1857.18,135.7574,-5.3212,-2.5592,55.85583,37.484573,176.5388,0.1905,3770
0.567443,0.818842,12.806976,-0.328851,0.019482,-0.066297,-1959.3,-1938.84,1857.18,135.7574,-5.3212,-2.5592,55.85583,37.484573,176.5388,0.1905,3780
0.567443,0.818842,12.806976,-0.248828,-0.025722,-0.102338,-1959.48,-1939.38,1857.06,135.2653,-4.4065,-2.8594,55.85583,37.484573,176.5388,0.1905,3790
0.833208,0.550683,13.218791,-0.16575,-0.073981,-0.15976,-1959.48,-1939.38,1857.06,135.2653,-4.4065,-2.8594,55.85583,37.484573,176.5388,0.1905,3801
0.859545,0.256187,13.846091,-0.061292,-0.097194,-0.21657,-1960.0198,-1939.5,1857,135.2653,-4.4065,-2.8594,55.85583,37.484573,176.5388,0.1905,3810
0.481249,0.028731,14.44466,0.140293,-0.100248,-0.209851,-1960.0198,-1939.5,1857,135.2653,-4.4065,-2.8594,55.85583,37.484573,176.5388,0.1905,3821
0.196331,-0.007183,14.269877,0.321109,-0.121628,-0.143877,-1959.6,-1939.38,1857.18,135.0094,-3.8188,-2.8848,55.85583,37.484573,176.5388,0.1905,3830
0.196331,-0.007183,14.269877,0.529414,-0.155226,-0.073628,-1959.6,-1939.38,1857.18,135.0094,-3.8188,-2.8848,55.85583,37.484573,176.5388,0.1905,3840
-0.043097,1.192349,13.510893,0.609438,-0.19371,-0.056523,-1958.88,-1938.96,1856.58,135.0094,-3.8188,-2.8848,55.85583,37.484573,176.5388,0.1905,3850
-0.002394,2.511594,12.158128,0.542853,-0.264571,-0.104171,-1958.88,-1938.96,1856.58,135.0094,-3.8188,-2.8848,55.85583,37.484573,176.5388,0.1905,3860
0.608146,2.365544,11.087887,0.335159,-0.322603,-0.149375,-1959.24,-1938.78,1856.46,135.1031,-4.3012,-3.1201,55.85583,37.484573,176.5388,0.1905,3870
1.606559,1.824437,10.884374,0.005292,-0.312829,-0.2239,-1959.24,-1938.78,1856.46,135.1031,-4.3012,-3.1201,55.85583,37.484573,176.5388,0.1905,3880
1.606559,1.824437,10.884374,0.005292,-0.312829,-0.2239,-1959.9,-1939.32,1856.94,135.1031,-4.3012,-3.1201,55.85583,37.484573,176.5388,0.1905,3890
2.454132,0.730254,12.675291,-0.429033,-0.067872,-0.374784,-1959.9,-1939.32,1856.94,135.1031,-4.3012,-3.1201,55.85583,37.484573,176.5388,0.1905,3900
2.377515,-1.400651,14.253118,-0.571365,0.269326,-0.395554,-1960.26,-1939.2,1856.46,135.2053,-5.3208,-3.7015,55.85583,37.484573,176.5388,0.1905,3910
1.678387,-2.370332,14.645779,-0.475459,0.58331,-0.335689,-1960.26,-1939.2,1856.46,135.2053,-5.3208,-3.7015,55.85583,37.484573,176.5388,0.1905,3921
1.122915,-1.757398,12.699234,-0.13032,0.739081,-0.217792,-1960.92,-1938.66,1856.76,135.2053,-5.3208,-3.7015,55.85583,37.484573,176.5388,0.1905,3930
1.122915,-1.757398,12.699234,0.204434,0.600415,-0.168923,-1960.92,-1938.66,1856.76,135.2053,-5.3208,-3.7015,55.85583,37.484573,176.5388,0.1905,3941
1.245023,-0.603357,9.462174,0.424346,0.235117,-0.248335,-1960.44,-1938.6,1857.48,135.155,-4.4336,-3.089,55.85583,37.484573,176.5388,0.1905,3950
1.592193,-0.220273,8.320105,0.445726,-0.008007,-0.358902,-1960.44,-1938.6,1857.48,135.155,-4.4336,-3.089,55.85583,37.484573,176.5388,0.1905,3961
1.81486,0.10056,7.434223,0.304005,-0.110022,-0.503677,-1959.6,-1938.48,1858.14,135.155,-4.4336,-3.089,55.855835,37.484566,176.5331,0.2716,3970
1.546702,-0.071828,7.271413,-0.014867,-0.004342,-0.588587,-1959.6,-1938.48,1858.14,135.155,-4.4336,-3.089,55.855835,37.484566,176.5331,0.2716,3980
1.546702,-0.071828,7.271413,-0.014867,-0.004342,-0.588587,-1959.6,-1938.48,1858.14,135.155,-4.4336,-3.089,55.855835,37.484566,176.5331,0.2716,3990
1.546702,-0.071828,7.271413,-0.014867,-0.004342,-0.588587,-1959.6,-1938.48,1858.14,135.155,-4.4336,-3.089,55.855835,37.484566,176.5331,0.2716,4000
1.455719,-0.141262,7.398309,-0.181633,0.093396,-0.602637,-1959.18,-1938.54,1858.08,135.8756,-5.2851,-2.2846,55.855835,37.484566,176.5331,0.2716,4010
0.265765,-1.137281,9.356826,-0.818765,0.751298,-0.419988,-1959.18,-1938.54,1858.08,135.8756,-5.2851,-2.2846,55.855835,37.484566,176.5331,0.2716,4020
-0.055068,-0.921796,9.761458,-0.753403,0.781231,-0.282543,-1959.24,-1938.78,1857.66,135.8756,-5.2851,-2.2846,55.855835,37.484566,176.5331,0.2716,4030
-0.055068,-0.921796,9.761458,-0.468129,0.623627,-0.153651,-1959.24,-1938.78,1857.66,135.8756,-5.2851,-2.2846,55.855835,37.484566,176.5331,0.2716,4040
-0.148445,-0.521952,9.507666,-0.468129,0.623627,-0.153651,-1958.58,-1937.94,1857.6,135.8999,-3.882,-1.0664,55.855835,37.484566,176.5331,0.2716,4051
-0.021548,-0.105348,8.667274,-0.125433,0.330412,-0.106003,-1958.58,-1937.94,1857.6,135.8999,-3.882,-1.0664,55.855835,37.484566,176.5331,0.2716,4061
0.141262,0.486038,7.690411,0.124411,0.105003,-0.111501,-1957.56,-1936.62,1857.66,135.8999,-3.882,-1.0664,55.855835,37.484566,176.5331,0.2716,4070
-0.014366,0.730254,6.715941,0.326607,-0.155837,-0.156094,-1957.56,-1936.62,1857.66,135.8999,-3.882,-1.0664,55.855835,37.484566,176.5331,0.2716,4080
-0.014366,0.730254,6.715941,0.343711,-0.226697,-0.178696,-1956.96,-1936.26,1857.78,136.1134,-2.8866,0.2103,55.855835,37.484566,176.5331,0.2716,4091
-0.052674,1.017567,6.00963,0.245362,-0.176606,-0.203131,-1956.96,-1936.26,1857.78,136.1134,-2.8866,0.2103,55.855835,37.484566,176.5331,0.2716,4101
-0.138868,1.211503,5.952167,0.125632,-0.019003,-0.228787,-1956.84,-1936.74,1857.84,136.1134,-2.8866,0.2103,55.855835,37.484566,176.5331,0.2716,4110
-0.320833,1.347977,6.016813,0.051107,0.119053,-0.245892,-1956.84,-1936.74,1857.84,136.1134,-2.8866,0.2103,55.855835,37.484566,176.5331,0.2716,4120
-0.416604,1.37192,6.122161,-0.005093,0.218624,-0.254444,-1956.72,-1936.98,1858.32,136.2396,-3.5373,-0.1218,55.855835,37.484566,176.5331,0.2716,4130
-0.615329,1.357554,6.577073,-0.034414,0.310864,-0.231231,-1956.72,-1936.98,1858.32,136.2396,-3.5373,-0.1218,55.855835,37.484566,176.5331,0.2716,4140
-0.615329,1.357554,6.577073,-0.034414,0.310864,-0.231231,-1956.6,-1937.16,1858.14,136.2396,-3.5373,-0.1218,55.855835,37.484566,176.5331,0.2716,4150
-0.612934,1.374314,6.895512,-0.007536,0.318806,-0.195801,-1956.6,-1937.16,1858.14,136.2396,-3.5373,-0.1218,55.855835,37.484566,176.5331,0.2716,4161
-0.304073,1.539519,7.269018,0.01079,0.338353,-0.148153,-1956.66,-1937.04,1857.78,136.4538,-3.6464,0.2112,55.855835,37.484566,176.5331,0.2716,4170
0.059857,1.630501,7.513234,0.021174,0.327358,-0.154262,-1956.66,-1937.04,1857.78,136.4538,-3.6464,0.2112,55.855835,37.484566,176.5331,0.2716,4180
0.059857,1.630501,7.513234,0.008957,0.294371,-0.13899,-1956.66,-1937.1,1857.6,136.4538,-3.6464,0.2112,55.855835,37.484566,176.5331,0.2716,4190
0.404632,1.673598,7.664074,-0.019143,0.214959,-0.175642,-1956.66,-1937.1,1857.6,136.4538,-3.6464,0.2112,55.855835,37.484566,176.5331,0.2716,4200
0.691945,1.640078,7.989695,-0.08756,0.050636,-0.222068,-1955.82,-1936.8,1858.26,136.8789,-3.6666,0.9924,55.855835,37.484566,176.5331,0.2716,4210
0.823631,1.405439,8.813326,-0.142537,-0.017781,-0.235507,-1955.82,-1936.8,1858.26,136.8789,-3.6666,0.9924,55.855835,37.484566,176.5331,0.2716,4220
0.823631,1.405439,8.813326,-0.142537,-0.017781,-0.235507,-1955.22,-1936.68,1858.2,136.8789,-3.6666,0.9924,55.855835,37.484566,176.5331,0.2716,4230
0.799688,1.489239,9.814133,-0.138872,-0.077035,-0.256276,-1955.22,-1936.68,1858.2,136.8789,-3.6666,0.9924,55.855835,37.484566,176.5331,0.2716,4241
0.366324,1.333611,10.752688,-0.044799,-0.141176,-0.264828,-1955.64,-1936.68,1857.66,137.0094,-3.5549,1.3341,55.855835,37.484566,176.5331,0.2716,4250
0.079011,1.295303,11.253092,0.046831,-0.129569,-0.234896,-1955.64,-1936.68,1857.66,137.0094,-3.5549,1.3341,55.855835,37.484566,176.5331,0.2716,4260
-0.292102,1.431776,11.322526,0.11708,-0.116741,-0.184805,-1956.06,-1936.5,1857.36,137.0094,-3.5549,1.3341,55.855835,37.484566,176.5331,0.2716,4271
-0.292102,1.431776,11.322526,0.123189,-0.098415,-0.123108,-1956.06,-1936.5,1857.36,137.0094,-3.5549,1.3341,55.855835,37.484566,176.5331,0.2716,4280
-0.498009,1.362342,11.430268,0.055383,-0.050157,-0.026591,-1956.12,-1936.8,1857.06,136.8474,-3.4602,1.1048,55.855835,37.484566,176.5331,0.2716,4290
-0.418998,1.223474,11.877997,-0.096723,0.050636,0.109632,-1956.12,-1936.8,1857.06,136.8474,-3.4602,1.1048,55.855835,37.484566,176.5331,0.2716,4300
-0.05028,1.098972,12.51248,-0.233556,0.126994,0.191488,-1955.64,-1936.5,1857.72,136.8474,-3.4602,1.1048,55.855835,37.484566,176.5331,0.2716,4310
0.069434,1.015173,13.20682,-0.312358,0.157537,0.217755,-1955.64,-1936.5,1857.72,136.8474,-3.4602,1.1048,55.855835,37.484566,176.5331,0.2716,4320
-0.126897,1.2546,13.826937,-0.31358,0.10317,0.20737,-1955.28,-1936.14,1858.68,136.8396,-3.5358,1.021,55.855835,37.484566,176.5331,0.2716,4330
-0.126897,1.2546,13.826937,-0.256158,0.019482,0.16461,-1955.28,-1936.14,1858.68,136.8396,-3.5358,1.021,55.855835,37.484566,176.5331,0.2716,4340
-0.375901,1.35516,13.807783,-0.212787,-0.093528,0.109632,-1955.4,-1935.48,1858.2,136.8396,-3.5358,1.021,55.855835,37.484566,176.5331,0.2716,4350
-0.251399,0.383084,13.704829,-0.273263,-0.24991,0.087641,-1955.4,-1935.48,1858.2,136.8396,-3.5358,1.021,55.855835,37.484566,176.5331,0.2716,4360
-0.244216,-0.95771,14.722396,-0.37711,-0.273123,0.102912,-1955.76,-1935.3,1858.14,136.632,-2.8989,1.2148,55.855835,37.484566,176.5331,0.2716,4370
-0.244216,-0.95771,14.722396,-0.331906,-0.172941,0.183547,-1955.76,-1935.3,1858.14,136.632,-2.8989,1.2148,55.855835,37.484566,176.5331,0.2716,4381
-0.505192,-2.308081,16.226,-0.331906,-0.172941,0.183547,-1955.4,-1935.6,1858.62,136.632,-2.8989,1.2148,55.855835,37.484566,176.5331,0.2716,4390
-0.804476,-2.913832,16.90837,0.022396,0.034142,0.320991,-1955.4,-1935.6,1858.62,136.632,-2.8989,1.2148,55.855835,37.484566,176.5331,0.2716,4400
-1.429382,-2.49244,14.693665,0.466495,0.178918,0.410789,-1955.22,-1935.54,1858.08,136.1081,-2.2238,0.7229,55.855835,37.484566,176.5331,0.2716,4410
-2.056682,-1.477267,11.650541,0.897155,0.153261,0.463934,-1955.22,-1935.54,1858.08,136.1081,-2.2238,0.7229,55.855835,37.484566,176.5331,0.2716,4421
-2.226675,-0.512375,9.055147,1.054758,-0.015948,0.471875,-1955.46,-1935.6,1858.32,136.1081,-2.2238,0.7229,55.855835,37.484566,176.5331,0.2716,4430
-2.226675,-0.512375,9.055147,1.010776,-0.223643,0.441332,-1955.46,-1935.84,1858.68,136.1081,-2.2238,0.7229,55.855835,37.484566,176.5331,0.2716,4440
-2.006402,0.287313,6.902694,0.630207,-0.469821,0.379024,-1955.46,-1935.84,1858.68,136.1081,-2.2238,0.7229,55.855835,37.484566,176.5331,0.2716,4450
-1.2546,0.687157,6.806924,0.259412,-0.480817,0.327711,-1954.92,-1937.4,1858.08,136.8509,-3.7063,0.8774,55.855835,37.484566,176.5331,0.2716,4460
-0.299284,0.835602,8.320105,-0.046632,-0.29939,0.274566,-1954.92,-1937.4,1858.08,136.8509,-3.7063,0.8774,55.855835,37.484566,176.5331,0.2716,4470
0.093377,0.591386,9.196409,-0.246385,-0.027555,0.22814,-1955.88,-1938.18,1857.96,136.8509,-3.7063,0.8774,55.855835,37.484566,176.5331,0.2716,4480
0.093377,0.591386,9.196409,-0.246385,-0.027555,0.22814,-1955.88,-1938.18,1857.96,136.8509,-3.7063,0.8774,55.855835,37.484566,176.5331,0.2716,4490
0.165205,0.179571,8.918674,-0.366725,0.233895,0.196986,-1957.0198,-1938.06,1857.84,136.8803,-4.9591,-0.04,55.855835,37.484566,176.5331,0.2716,4500
0.318439,-0.282524,8.806143,-0.366725,0.294982,0.173773,-1957.0198,-1938.06,1857.84,136.8803,-4.9591,-0.04,55.855835,37.484566,176.5331,0.2716,4510
0.031126,-0.349564,8.516436,-0.261045,0.268104,0.179881,-1957.14,-1938.48,1857.9,136.8803,-4.9591,-0.04,55.855835,37.484566,176.5331,0.2716,4520
0.031126,-0.349564,8.516436,-0.152922,0.235117,0.217755,-1957.14,-1938.48,1857.9,136.8803,-4.9591,-0.04,55.855835,37.484566,176.5331,0.2716,4530
-0.165205,-0.203513,7.901107,-0.131542,0.261384,0.253796,-1956.42,-1938.36,1858.38,136.759,-4.2425,0.2642,55.855835,37.484566,176.5331,0.2716,4540
-0.689551,-0.476461,7.21395,-0.141927,0.31453,0.335041,-1956.42,-1938.36,1858.38,136.759,-4.2425,0.2642,55.855835,37.484566,176.5331,0.2716,4550
-0.830813,-0.316044,6.505245,-0.190185,0.323082,0.446219,-1955.82,-1937.94,1857.78,136.759,-4.2425,0.2642,55.855835,37.484566,176.5331,0.2716,4561
-0.830813,-0.316044,6.505245,-0.21523,0.276656,0.49631,-1955.82,-1937.94,1857.78,136.759,-4.2425,0.2642,55.855835,37.484566,176.5331,0.2716,4570
-0.802082,-0.150839,6.25624,-0.176746,0.167922,0.52441,-1955.58,-1937.82,1857.78,136.8941,-3.8511,0.8437,55.855835,37.484566,176.5331,0.2716,4580
-0.854756,0.129291,6.172441,-0.176746,0.167922,0.52441,-1955.58,-1937.82,1857.78,136.8941,-3.8511,0.8437,55.855835,37.484566,176.5331,0.2716,4591
-0.763774,0.378295,5.887522,-0.083284,0.012762,0.537238,-1955.46,-1937.94,1857.78,136.8941,-3.8511,0.8437,55.855835,37.484566,176.5331,0.2716,4600
-0.500403,0.574626,5.602603,-0.011812,-0.138732,0.529296,-1955.46,-1937.94,1857.78,136.8941,-3.8511,0.8437,55.855835,37.484566,176.5331,0.2716,4610
-0.500403,0.574626,5.602603,0.005903,-0.259684,0.514025,-1955.58,-1938.12,1857.96,136.9623,-3.4425,1.3107,55.855835,37.484566,176.5331,0.2716,4621
-0.306467,0.864333,5.722317,-0.000817,-0.345205,0.501807,-1955.58,-1938.12,1857.96,136.9623,-3.4425,1.3107,55.855835,37.484566,176.5331,0.2716,4630
-0.119714,1.324034,6.095824,0.004681,-0.394685,0.480427,-1955.76,-1938.24,1858.8,136.9623,-3.4425,1.3107,55.855835,37.484566,176.5331,0.2716,4640
0.258582,1.66881,6.301731,-0.005704,-0.394685,0.44683,-1955.76,-1938.24,1858.8,136.9623,-3.4425,1.3107,55.855835,37.484566,176.5331,0.2716,4650
0.608146,1.683175,6.60341,-0.046021,-0.364753,0.416897,-1956,-1938.24,1858.44,136.6545,-3.4293,0.7289,55.855835,37.484566,176.5331,0.2716,4660
0.608146,1.683175,6.60341,-0.163918,-0.289005,0.36253,-1956,-1938.24,1858.44,136.6545,-3.4293,0.7289,55.855835,37.484566,176.5331,0.2716,4670
0.797294,1.788523,7.043957,-0.27815,-0.230362,0.303276,-1955.58,-1938.18,1857.96,136.6545,-3.4293,0.7289,55.855835,37.484566,176.5331,0.2716,4680
0.869122,1.817255,7.683228,-0.394214,-0.177828,0.225086,-1955.58,-1938.18,1857.96,136.6545,-3.4293,0.7289,55.855835,37.484566,176.5331,0.2716,4690
0.653637,1.479662,8.870789,-0.477902,-0.143619,0.130401,-1956.3,-1938.48,1858.0198,136.1601,-3.2869,-0.1257,55.855835,37.484566,176.5331,0.2716,4700
0.306467,1.063058,10.328901,-0.505391,-0.169886,0.041215,-1956.3,-1938.48,1858.0198,136.1601,-3.2869,-0.1257,55.855835,37.484566,176.5331,0.2716,4710
0.306467,1.063058,10.328901,-0.465074,-0.229751,-0.012541,-1957.2,-1938.84,1857.72,136.1601,-3.2869,-0.1257,55.855835,37.484566,176.5331,0.2716,4721
0.251399,0.893065,11.612233,-0.376499,-0.262738,-0.066908,-1957.2,-1938.84,1857.72,136.1601,-3.2869,-0.1257,55.855835,37.484566,176.5331,0.2716,4730
0.177176,1.000807,12.967392,-0.258602,-0.272512,-0.105393,-1957.08,-1938.18,1858.14,135.524,-2.327,-0.5463,55.855835,37.484566,176.5331,0.2716,4740
0.177176,1.000807,12.967392,-0.258602,-0.272512,-0.105393,-1957.08,-1938.18,1858.14,135.524,-2.327,-0.5463,55.855835,37.484566,176.5331,0.2716,4750
0.177176,0.876305,13.858063,-0.003871,-0.260295,-0.172588,-1957.08,-1937.28,1858.38,135.524,-2.327,-0.5463,55.855835,37.484566,176.5331,0.2716,4760
0.21309,0.852362,13.759897,0.123189,-0.242579,-0.207407,-1957.08,-1937.28,1858.38,135.524,-2.327,-0.5463,55.855835,37.484566,176.5331,0.2716,4770
0.39745,0.725465,13.855668,0.143347,-0.222421,-0.245281,-1957.32,-1937.5198,1857.84,134.9727,-1.711,-1.1326,55.855835,37.484566,176.5331,0.2716,4780
0.670397,0.399844,14.391986,0.138461,-0.182715,-0.272159,-1957.32,-1937.5198,1857.84,134.9727,-1.711,-1.1326,55.855835,37.484566,176.5331,0.2716,4790
0.622511,0.004789,15.146182,0.198936,-0.170497,-0.303924,-1957.86,-1937.4,1857.66,134.9727,-1.711,-1.1326,55.855835,37.484566,176.5331,0.2716,4800
0.622511,0.004789,15.146182,0.353485,-0.175995,-0.292317,-1957.86,-1937.4,1857.66,134.9727,-1.711,-1.1326,55.855835,37.484566,176.5331,0.2716,4810
0.339987,-0.119714,15.36885,0.585003,-0.183936,-0.251389,-1958.22,-1937.1,1857.3,134.8533,-2.0236,-1.618,55.855835,37.484566,176.5331,0.2716,4820
0.361536,0.617723,14.229176,0.834847,-0.226697,-0.207407,-1958.22,-1937.1,1857.3,134.8533,-2.0236,-1.618,55.855835,37.484566,176.5331,0.2716,4830
0.656031,1.415016,12.395161,0.884938,-0.276788,-0.214127,-1958.4,-1937.5198,1857.54,134.8533,-2.0236,-1.618,55.855835,37.484566,176.5331,0.2716,4840
0.656031,1.415016,12.395161,0.792086,-0.343983,-0.225733,-1958.4,-1937.5198,1857.54,134.8533,-2.0236,-1.618,55.855835,37.484566,176.5331,0.2716,4851
1.027144,1.347977,11.171686,0.544075,-0.337874,-0.231231,-1958.4,-1937.88,1857.9,135.185,-3.2321,-2.0302,55.855835,37.484566,176.5331,0.2716,4860
1.453325,0.569837,10.920287,0.330883,-0.237693,-0.230009,-1958.4,-1937.88,1857.9,135.185,-3.2321,-2.0302,55.855835,37.484566,176.5331,0.2716,4870
1.596981,-0.52674,11.595473,0.196493,-0.039772,-0.208018,-1959,-1938.42,1857.84,135.185,-3.2321,-2.0302,55.855835,37.484566,176.5331,0.2716,4880
1.393468,-1.644867,11.636175,0.203823,0.120885,-0.166479,-1959,-1938.42,1857.84,135.185,-3.2321,-2.0302,55.855835,37.484566,176.5331,0.2716,4890
1.393468,-1.644867,11.636175,0.280181,0.200298,-0.132882,-1959.24,-1938.96,1856.94,135.4729,-4.7679,-2.7138,55.855835,37.484566,176.5331,0.2716,4900
1.22108,-1.611347,10.38397,0.404798,0.150818,-0.135325,-1959.24,-1938.96,1856.94,135.4729,-4.7679,-2.7138,55.855835,37.484566,176.5331,0.2716,4910
1.347977,-1.098972,8.81572,0.421291,0.009708,-0.20924,-1958.28,-1939.2,1856.94,135.4729,-4.7679,-2.7138,55.855835,37.484566,176.5331,0.2716,4920
1.929786,-0.404632,7.185219,0.421291,0.009708,-0.20924,-1958.28,-1939.2,1856.94,135.4729,-4.7679,-2.7138,55.855835,37.484566,176.5331,0.2716,4931
2.425401,-0.0838,6.55313,0.243529,-0.165,-0.376617,-1957.8,-1939.26,1857.78,135.8317,-5.3736,-2.475,55.855835,37.484566,176.5331,0.2716,4940
2.425401,-0.0838,6.55313,-0.184076,-0.210814,-0.57698,-1958.16,-1939.2,1858.32,135.8317,-5.3736,-2.475,55.855835,37.484566,176.5331,0.2716,4950
2.547509,-0.193936,7.254653,-0.563424,-0.154615,-0.686936,-1958.16,-1939.2,1858.32,135.8317,-5.3736,-2.475,55.855835,37.484566,176.5331,0.2716,4960
2.221887,-0.598569,8.657698,-0.892069,-0.042827,-0.768181,-1958.7,-1939.2,1857.78,135.8317,-5.3736,-2.475,55.855835,37.484547,176.5273,0.8084,4970
1.580221,-1.106155,10.079897,-0.986753,0.062242,-0.762073,-1958.7,-1939.2,1857.78,135.8317,-5.3736,-2.475,55.855835,37.484547,176.5273,0.8084,4980
0.459701,-1.580221,11.399142,-0.909784,0.205185,-0.672275,-1958.88,-1938.9,1857.18,135.7373,-5.4452,-2.6976,55.855835,37.484547,176.5273,0.8084,4990
0.459701,-1.580221,11.399142,-0.679488,0.289484,-0.504288,-1958.88,-1938.9,1857.18,135.7373,-5.4452,-2.6976,55.855835,37.484547,176.5273,0.8084,5000
-0.512375,-1.735849,11.772649,-0.679488,0.289484,-0.504288,-1958.7,-1938,1857.12,135.7373,-5.4452,-2.6976,55.855835,37.484547,176.5273,0.8084,5010
-0.608146,-1.240234,10.984933,-0.270819,0.277878,-0.275213,-1958.7,-1938,1857.12,135.7373,-5.4452,-2.6976,55.855835,37.484547,176.5273,0.8084,5021
-0.284919,-0.316044,8.985713,0.051107,0.178307,-0.144488,-1958.28,-1937.7,1857.18,135.1135,-3.4197,-2.3462,55.855835,37.484547,176.5273,0.8084,5030
-0.007183,0.438152,7.522812,0.266131,0.013984,-0.101117,-1958.28,-1937.7,1857.18,135.1135,-3.4197,-2.3462,55.855835,37.484547,176.5273,0.8084,5040
-0.007183,0.438152,7.522812,0.415793,-0.168665,-0.110279,-1957.98,-1937.4,1857.24,135.1135,-3.4197,-2.3462,55.855835,37.484547,176.5273,0.8084,5050
0.105348,1.017567,6.320886,0.431676,-0.233416,-0.135325,-1957.98,-1937.4,1857.24,135.1135,-3.4197,-2.3462,55.855835,37.484547,176.5273,0.8084,5060
0.203513,1.410228,5.854002,0.359594,-0.18638,-0.181751,-1958.1,-1936.92,1857.66,135.2324,-3.3167,-1.9735,55.855835,37.484547,176.5273,0.8084,5070
0.03352,1.419805,5.427821,0.225203,-0.010451,-0.220846,-1958.1,-1936.92,1857.66,135.2324,-3.3167,-1.9735,55.855835,37.484547,176.5273,0.8084,5080
0.03352,1.419805,5.427821,0.117691,0.089731,-0.228787,-1958.7,-1937.28,1857.72,135.2324,-3.3167,-1.9735,55.855835,37.484547,176.5273,0.8084,5090
0.038308,1.455719,5.640912,0.054161,0.197244,-0.24467,-1958.7,-1937.28,1857.72,135.2324,-3.3167,-1.9735,55.855835,37.484547,176.5273,0.8084,5101
-0.260976,1.647261,5.894705,0.047442,0.274823,-0.248946,-1958.7,-1937.28,1857.66,135.3922,-4.1201,-2.2921,55.855835,37.484547,176.5273,0.8084,5110
-0.071828,1.422199,5.633729,0.028505,0.273602,-0.219014,-1958.7,-1937.28,1857.66,135.3922,-4.1201,-2.2921,55.855835,37.484547,176.5273,0.8084,5120
-0.172388,1.678387,5.822877,0.012011,0.25833,-0.184194,-1957.56,-1937.64,1857.3,135.3922,-4.1201,-2.2921,55.855835,37.484547,176.5273,0.8084,5130
0.325621,2.054288,6.167652,-0.007536,0.234506,-0.16709,-1957.56,-1937.64,1857.3,135.3922,-4.1201,-2.2921,55.855835,37.484547,176.5273,0.8084,5140
0.325621,2.054288,6.167652,-0.064347,0.227787,-0.175642,-1957.0198,-1937.94,1857.3,135.7487,-4.2873,-1.7721,55.855835,37.484547,176.5273,0.8084,5150
0.735042,2.243436,6.749461,-0.161474,0.252221,-0.189081,-1957.0198,-1937.94,1857.3,135.7487,-4.2873,-1.7721,55.855835,37.484547,176.5273,0.8084,5160
1.012778,2.231464,7.29775,-0.27143,0.287652,-0.205574,-1957.26,-1937.5198,1857.96,135.7487,-4.2873,-1.7721,55.855835,37.484547,176.5273,0.8084,5171
1.139675,1.972882,8.152506,-0.392992,0.291928,-0.229398,-1957.26,-1937.5198,1857.96,135.7487,-4.2873,-1.7721,55.855835,37.484547,176.5273,0.8084,5180
1.139675,1.972882,8.152506,-0.485844,0.295593,-0.248335,-1957.44,-1937.7,1857.24,135.9989,-4.1968,-1.1829,55.855835,37.484547,176.5273,0.8084,5190
0.984047,1.431776,9.225141,-0.531659,0.291317,-0.247724,-1957.44,-1937.7,1857.24,135.9989,-4.1968,-1.1829,55.855835,37.484547,176.5273,0.8084,5201
0.572232,0.780534,10.721562,-0.458355,0.261384,-0.178696,-1956.96,-1937.5198,1856.7,135.9989,-4.1968,-1.1829,55.855835,37.484547,176.5273,0.8084,5211
0.124502,0.404632,12.043202,-0.320299,0.20152,-0.107836,-1956.96,-1937.5198,1856.7,135.9989,-4.1968,-1.1829,55.855835,37.484547,176.5273,0.8084,5220
-0.253793,0.505192,12.871621,-0.13032,0.128216,-0.044306,-1956.06,-1936.8,1857.6,135.96,-3.2762,-0.4909,55.855835,37.484547,176.5273,0.8084,5230
-0.253793,0.505192,12.871621,0.08898,0.006043,-0.006432,-1956.06,-1936.8,1857.6,135.96,-3.2762,-0.4909,55.855835,37.484547,176.5273,0.8084,5240
-0.33041,0.732648,13.079924,0.255136,-0.119185,0.00945,-1956.12,-1936.5,1858.0198,135.96,-3.2762,-0.4909,55.855835,37.484547,176.5273,0.8084,5250
-0.452518,0.634483,13.055981,0.397467,-0.280453,0.060152,-1956.12,-1936.5,1858.0198,135.96,-3.2762,-0.4909,55.855835,37.484547,176.5273,0.8084,5260
-0.371113,0.498009,13.008095,0.397467,-0.280453,0.060152,-1956.36,-1936.0198,1857.36,135.8947,-2.6828,-0.0782,55.855835,37.484547,176.5273,0.8084,5270
0.047885,0.536318,13.439064,0.432287,-0.384911,0.124293,-1956.36,-1936.0198,1857.36,135.8947,-2.6828,-0.0782,55.855835,37.484547,176.5273,0.8084,5280
0.047885,0.536318,13.439064,0.435952,-0.413011,0.163999,-1956.12,-1935.9,1857.06,135.8947,-2.6828,-0.0782,55.855835,37.484547,176.5273,0.8084,5290
0.251399,1.122915,13.752714,0.473215,-0.373915,0.203094,-1956.12,-1935.9,1857.06,135.8947,-2.6828,-0.0782,55.855835,37.484547,176.5273,0.8084,5300
0.129291,1.992037,12.625011,0.478102,-0.319548,0.198818,-1956.6,-1935.78,1857.6,135.9302,-3.5039,-0.6878,55.855835,37.484547,176.5273,0.8084,5311
0.146051,2.061471,11.753495,0.369979,-0.279842,0.19271,-1957.0198,-1936.2,1857.54,135.9302,-3.5039,-0.6878,55.855835,37.484547,176.5273,0.8084,5320
0.146051,2.061471,11.753495,0.080428,-0.231584,0.204927,-1957.0198,-1936.2,1857.54,135.9302,-3.5039,-0.6878,55.855835,37.484547,176.5273,0.8084,5330
0.596174,1.113338,11.490125,-0.217674,-0.188823,0.225086,-1957.2,-1937.46,1857.3,135.9302,-3.5039,-0.6878,55.855835,37.484547,176.5273,0.8084,5341
0.430969,-0.519558,13.345688,-0.406431,-0.098415,0.295335,-1957.2,-1937.46,1857.3,135.9302,-3.5039,-0.6878,55.855835,37.484547,176.5273,0.8084,5350
0.03352,-1.491633,15.35209,-0.268376,0.003599,0.352756,-1957.38,-1937.94,1856.94,135.9053,-4.4861,-1.6118,55.855835,37.484547,176.5273,0.8084,5361
-0.538712,-1.946545,15.651375,0.0957,0.124551,0.424228,-1957.38,-1937.94,1856.94,135.9053,-4.4861,-1.6118,55.855835,37.484547,176.5273,0.8084,5370
-0.538712,-1.946545,15.651375,0.597831,0.204574,0.47554,-1957.38,-1937.34,1857.18,135.9053,-4.4861,-1.6118,55.855835,37.484547,176.5273,0.8084,5380
-1.079818,-1.60177,13.249917,0.807358,0.128827,0.441943,-1957.38,-1937.34,1857.18,135.9053,-4.4861,-1.6118,55.855835,37.484547,176.5273,0.8084,5391
-1.699935,-0.514769,9.670476,0.774371,0.00421,0.382078,-1957.26,-1937.58,1857.6,135.64,-3.984,-1.7468,55.855835,37.484547,176.5273,0.8084,5400
-1.838803,-0.284919,7.920261,0.517808,-0.147895,0.311828,-1957.26,-1937.58,1857.6,135.64,-3.984,-1.7468,55.855835,37.484547,176.5273,0.8084,5410
-1.838803,-0.284919,7.920261,0.142126,-0.163167,0.266014,-1958.04,-1938.36,1857.54,135.64,-3.984,-1.7468,55.855835,37.484547,176.5273,0.8084,5420
-1.649655,-0.232245,7.486898,-0.252493,-0.065429,0.238525,-1958.04,-1938.36,1857.54,135.64,-3.984,-1.7468,55.855835,37.484547,176.5273,0.8084,5430
-1.108549,-0.52674,8.260248,-0.531659,0.101338,0.217755,-1958.1,-1939.14,1858.08,136.2817,-5.4982,-1.6475,55.855835,37.484547,176.5273,0.8084,5440
-0.52674,-0.85715,9.287392,-0.655664,0.241837,0.20737,-1958.1,-1939.14,1858.08,136.2817,-5.4982,-1.6475,55.855835,37.484547,176.5273,0.8084,5451
-0.014366,-1.087001,9.577099,-0.655664,0.241837,0.20737,-1957.68,-1939.44,1857.54,136.2817,-5.4982,-1.6475,55.855835,37.484547,176.5273,0.8084,5460
-0.014366,-1.087001,9.577099,-0.659329,0.353625,0.222031,-1957.68,-1939.44,1857.54,136.2817,-5.4982,-1.6475,55.855835,37.484547,176.5273,0.8084,5470
0.387873,-0.950527,9.378374,-0.60313,0.407992,0.240357,-1957.62,-1939.14,1856.82,136.051,-4.9683,-1.6999,55.855835,37.484547,176.5273,0.8084,5480
0.488432,-0.933767,8.942616,-0.503559,0.386612,0.283118,-1957.62,-1939.14,1856.82,136.051,-4.9683,-1.6999,55.855835,37.484547,176.5273,0.8084,5490
0.500403,-0.993624,8.528407,-0.417427,0.310864,0.372915,-1957.0198,-1937.5198,1856.94,136.051,-4.9683,-1.6999,55.855835,37.484547,176.5273,0.8084,5500
0.483644,-0.691945,8.616995,-0.342901,0.271158,0.470653,-1957.0198,-1937.5198,1856.94,136.051,-4.9683,-1.6999,55.855835,37.484547,176.5273,0.8084,5510
0.483644,-0.691945,8.616995,-0.202402,0.227787,0.572668,-1956.48,-1936.92,1857.42,135.8893,-3.5745,-0.8874,55.855835,37.484547,176.5273,0.8084,5521
0.471672,-0.282524,8.233912,-0.034414,0.15937,0.627646,-1956.48,-1936.92,1857.42,135.8893,-3.5745,-0.8874,55.855835,37.484547,176.5273,0.8084,5530
0.423787,0.203513,7.623371,0.128687,0.035364,0.617261,-1956.54,-1937.64,1857.6,135.8893,-3.5745,-0.8874,55.855835,37.484547,176.5273,0.8084,5540
0.478855,0.778139,6.871569,0.277738,-0.129569,0.56717,-1956.54,-1937.64,1857.6,135.8893,-3.5745,-0.8874,55.855835,37.484547,176.5273,0.8084,5550
0.335198,1.20432,6.249058,0.379141,-0.268847,0.506084,-1956.66,-1937.22,1857.3,135.858,-2.9568,-0.3911,55.855835,37.484547,176.5273,0.8084,5560
0.335198,1.20432,6.249058,0.411517,-0.337874,0.462712,-1956.66,-1937.76,1857.48,135.858,-2.9568,-0.3911,55.855835,37.484547,176.5273,0.8084,5570
0.409421,1.573039,5.825271,0.379752,-0.394074,0.365585,-1956.66,-1937.76,1857.48,135.858,-2.9568,-0.3911,55.855835,37.484547,176.5273,0.8084,5580
0.373507,1.83162,5.509227,0.316222,-0.411789,0.306941,-1956.24,-1938.24,1857.24,135.858,-2.9568,-0.3911,55.855835,37.484547,176.5273,0.8084,5590
0.38069,1.805283,5.597815,0.238032,-0.429504,0.250131,-1956.24,-1938.24,1857.24,135.858,-2.9568,-0.3911,55.855835,37.484547,176.5273,0.8084,5600
0.428575,1.84838,6.064698,0.238032,-0.429504,0.250131,-1957.08,-1938.54,1857,135.9138,-3.7829,-1.0408,55.855835,37.484547,176.5273,0.8084,5610
0.428575,1.84838,6.064698,0.171447,-0.467378,0.174995,-1957.08,-1938.54,1857,135.9138,-3.7829,-1.0408,55.855835,37.484547,176.5273,0.8084,5621
0.447729,1.810072,6.735095,0.091424,-0.455771,0.102302,-1957.44,-1939.2,1857.42,135.9138,-3.7829,-1.0408,55.855835,37.484547,176.5273,0.8084,5630
0.36393,1.673598,7.36479,0.023618,-0.390409,0.052211,-1957.44,-1939.2,1857.42,135.9138,-3.7829,-1.0408,55.855835,37.484547,176.5273,0.8084,5640
0.284919,1.587404,7.85801,-0.083284,-0.318327,-0.006432,-1957.8,-1939.44,1858.26,135.6142,-4.3324,-2.0898,55.855835,37.484547,176.5273,0.8084,5650
0.282524,1.201926,8.820508,-0.199348,-0.212647,-0.055912,-1957.8,-1939.44,1858.26,135.6142,-4.3324,-2.0898,55.855835,37.484547,176.5273,0.8084,5660
0.282524,1.201926,8.820508,-0.2641,-0.157669,-0.083401,-1958.34,-1939.26,1858.08,135.6142,-4.3324,-2.0898,55.855835,37.484547,176.5273,0.8084,5670
0.325621,1.161223,9.775824,-0.251271,-0.122239,-0.142655,-1958.34,-1939.26,1858.08,135.6142,-4.3324,-2.0898,55.855835,37.484547,176.5273,0.8084,5680
0.349564,1.213897,10.783813,-0.251271,-0.122239,-0.142655,-1958.1,-1939.8,1857.6,135.2256,-4.2495,-2.8741,55.855835,37.484547,176.5273,0.8084,5690
0.284919,1.108549,11.418297,-0.154755,-0.112465,-0.182972,-1958.1,-1939.8,1857.6,135.2256,-4.2495,-2.8741,55.855835,37.484547,176.5273,0.8084,5701
0.234639,1.017567,11.892363,0.014455,-0.108189,-0.197022,-1958.5198,-1939.26,1857.9,135.2256,-4.2495,-2.8741,55.855835,37.484547,176.5273,0.8084,5711
0.234639,1.017567,11.892363,0.07432,-0.128959,-0.192135,-1958.5198,-1939.26,1857.9,135.2256,-4.2495,-2.8741,55.855835,37.484547,176.5273,0.8084,5720
0.186753,1.046298,12.251504,0.089591,-0.116741,-0.13899,-1958.5198,-1938.48,1857.9,134.9018,-3.8399,-3.1373,55.855835,37.484547,176.5273,0.8084,5730
0.26337,1.225869,12.660925,0.075541,-0.127126,-0.11761,-1958.5198,-1938.48,1857.9,134.9018,-3.8399,-3.1373,55.855835,37.484547,176.5273,0.8084,5740
0.339987,1.35516,13.094289,0.066378,-0.136289,-0.107225,-1958.5198,-1938.78,1856.82,134.9018,-3.8399,-3.1373,55.855835,37.484547,176.5273,0.8084,5750
0.232245,1.616136,13.32414,0.063935,-0.153393,-0.121275,-1958.5198,-1938.78,1856.82,134.9018,-3.8399,-3.1373,55.855835,37.484547,176.5273,0.8084,5761
0.232245,2.327235,13.278648,0.035835,-0.201651,-0.128605,-1958.5198,-1938.84,1856.46,134.8763,-4.0208,-3.3776,55.855835,37.484547,176.5273,0.8084,5771
-0.011971,2.327235,13.278648,-0.026473,-0.262127,-0.146931,-1958.5198,-1938.84,1856.46,134.8763,-4.0208,-3.3776,55.855835,37.484547,176.5273,0.8084,5780
0.332804,2.739051,12.936267,-0.155366,-0.350092,-0.203131,-1958.46,-1939.0198,1856.52,134.8763,-4.0208,-3.3776,55.855835,37.484547,176.5273,0.8084,5790
1.017567,1.781341,12.778245,-0.427812,-0.411178,-0.232453,-1958.46,-1939.0198,1856.52,134.8763,-4.0208,-3.3776,55.855835,37.484547,176.5273,0.8084,5800
1.654444,-0.569837,13.695251,-0.718583,-0.283507,-0.201909,-1959.3,-1938.9,1856.16,134.7515,-4.1464,-3.7596,55.855835,37.484547,176.5273,0.8084,5811
1.654444,-0.569837,13.695251,-0.863358,-0.046492,-0.150597,-1959.3,-1938.9,1856.16,134.7515,-4.1464,-3.7596,55.855835,37.484547,176.5273,0.8084,5820
1.941757,-2.782147,16.297829,-0.863358,-0.046492,-0.150597,-1959.84,-1938.3,1856.64,134.7515,-4.1464,-3.7596,55.855835,37.484547,176.5273,0.8084,5830
1.35516,-4.338426,17.526093,-0.592745,0.305978,-0.060189,-1959.84,-1938.3,1856.64,134.7515,-4.1464,-3.7596,55.855835,37.484547,176.5273,0.8084,5841
1.082212,-3.974496,15.467015,-0.110162,0.483739,0.082143,-1960.14,-1938.06,1857.18,134.0348,-3.1244,-4.4203,55.855835,37.484547,176.5273,0.8084,5851
1.082212,-3.974496,15.467015,0.464663,0.436703,0.160334,-1960.14,-1938.06,1857.18,134.0348,-3.1244,-4.4203,55.855835,37.484547,176.5273,0.8084,5861
0.859545,-2.241041,11.296188,1.079193,0.063464,0.148727,-1960.2,-1937.88,1857.54,134.0348,-3.1244,-4.4203,55.855835,37.484547,176.5273,0.8084,5870
0.814053,-0.620117,8.71516,1.382793,-0.222421,0.071758,-1960.2,-1937.88,1857.54,134.0348,-3.1244,-4.4203,55.855835,37.484547,176.5273,0.8084,5880
0.921796,0.708705,6.344828,1.334535,-0.430726,-0.076682,-1959.72,-1937.76,1857.54,134.2746,-2.8561,-3.6287,55.855835,37.484547,176.5273,0.8084,5890
0.921796,0.708705,6.344828,0.96435,-0.469821,-0.196411,-1959.72,-1937.76,1857.54,134.2746,-2.8561,-3.6287,55.855835,37.484547,176.5273,0.8084,5900
1.280937,1.089395,4.834041,0.382807,-0.34154,-0.283765,-1960.14,-1938.84,1857.18,134.2746,-2.8561,-3.6287,55.855835,37.484547,176.5273,0.8084,5910
1.956123,0.778139,5.76302,-0.242719,-0.02389,-0.3363,-1960.14,-1938.84,1857.18,134.2746,-2.8561,-3.6287,55.855835,37.484547,176.5273,0.8084,5920
2.202733,0.471672,7.862799,-0.799218,0.37806,-0.396164,-1960.14,-1939.98,1856.7,135.0451,-5.5839,-4.29,55.855835,37.484547,176.5273,0.8084,5930
2.269773,-0.550683,9.725544,-0.943382,0.536885,-0.412047,-1960.14,-1939.98,1856.7,135.0451,-5.5839,-4.29,55.855835,37.484547,176.5273,0.8084,5941
2.269773,-0.550683,9.725544,-0.918947,0.661501,-0.450531,-1959.72,-1939.8,1856.7,135.0451,-5.5839,-4.29,55.855835,37.484547,176.5273,0.8084,5950
2.013585,-1.130098,10.460587,-0.749127,0.63279,-0.451753,-1959.72,-1939.8,1856.7,135.0451,-5.5839,-4.29,55.855835,37.484547,176.5273,0.8084,5960
1.692752,-1.290514,10.530021,-0.538378,0.552156,-0.447477,-1959.78,-1939.32,1857.24,134.8805,-4.7476,-3.9474,55.855835,37.484512,176.5911,1.165,5971
1.331217,-1.00799,9.73991,-0.230502,0.367675,-0.453586,-1959.78,-1939.32,1857.24,134.8805,-4.7476,-3.9474,55.855835,37.484512,176.5911,1.165,5981
1.012778,-0.742225,8.303345,0.034613,0.148985,-0.47069,-1958.7,-1938.9,1857.54,134.8805,-4.7476,-3.9474,55.855835,37.484512,176.5911,1.165,5990
1.012778,-0.742225,8.303345,0.178167,0.016427,-0.470079,-1958.7,-1938.9,1857.54,134.8805,-4.7476,-3.9474,55.855835,37.484512,176.5911,1.165,6000
0.629694,-0.244216,7.467743,0.246584,-0.041605,-0.462749,-1958.16,-1938.24,1857.3,134.9551,-3.3389,-2.6168,55.855835,37.484512,176.5911,1.165,6010
0.287313,0.311256,6.572284,0.260634,-0.028166,-0.453586,-1958.28,-1937.82,1857.06,134.9551,-3.3389,-2.6168,55.855835,37.484512,176.5911,1.165,6020
0.198725,0.481249,5.724711,0.15251,0.062853,-0.394332,-1958.28,-1937.82,1857.06,134.9551,-3.3389,-2.6168,55.855835,37.484512,176.5911,1.165,6030
0.093377,0.466884,5.391907,0.044998,0.120274,-0.351571,-1958.76,-1937.5198,1857.3,134.9551,-3.3389,-2.6168,55.855835,37.484512,176.5911,1.165,6040
0.093377,0.466884,5.391907,-0.044799,0.163646,-0.3082,-1958.76,-1937.5198,1857.3,134.9551,-3.3389,-2.6168,55.855835,37.484512,176.5911,1.165,6050
-0.141262,0.586597,5.621757,-0.044799,0.163646,-0.3082,-1958.5198,-1937.28,1857.3,135.2061,-3.8388,-2.449,55.855835,37.484512,176.5911,1.165,6060
-0.191542,0.794899,5.830059,-0.08756,0.193578,-0.23795,-1958.5198,-1937.28,1857.3,135.2061,-3.8388,-2.449,55.855835,37.484512,176.5911,1.165,6070
-0.090982,1.125309,5.832454,-0.074121,0.170365,-0.200077,-1957.74,-1937.34,1856.7,135.2061,-3.8388,-2.449,55.855835,37.484512,176.5911,1.165,6080
-0.026337,1.60177,5.865974,-0.033193,0.106225,-0.17442,-1957.74,-1937.34,1856.7,135.2061,-3.8388,-2.449,55.855835,37.484512,176.5911,1.165,6090
-0.026337,1.60177,5.865974,0.00407,0.040251,-0.143877,-1958.34,-1937.76,1856.82,135.4003,-3.7991,-2.0624,55.855835,37.484512,176.5911,1.165,6100
0.220273,1.9657,5.923436,-0.002649,-0.011062,-0.136547,-1958.34,-1937.76,1856.82,135.4003,-3.7991,-2.0624,55.855835,37.484512,176.5911,1.165,6110
0.519558,2.399063,6.251452,-0.054573,-0.047103,-0.155484,-1958.16,-1937.88,1857.3,135.4003,-3.7991,-2.0624,55.855835,37.484512,176.5911,1.165,6120
0.588992,2.365544,6.804529,-0.119325,-0.036718,-0.170755,-1958.16,-1937.88,1857.3,135.4003,-3.7991,-2.0624,55.855835,37.484512,176.5911,1.165,6130
0.517163,2.233858,7.486898,-0.183465,-0.016559,-0.187859,-1957.5,-1937.58,1857.6,135.4696,-3.7684,-1.9211,55.855835,37.484512,176.5911,1.165,6140
0.517163,2.233858,7.486898,-0.252493,0.015817,-0.178086,-1957.5,-1937.58,1857.6,135.4696,-3.7684,-1.9211,55.855835,37.484512,176.5911,1.165,6150
0.440547,2.181184,8.449396,-0.32091,0.039029,-0.157927,-1957.62,-1937.04,1857.6,135.4696,-3.7684,-1.9211,55.855835,37.484512,176.5911,1.165,6160
0.512375,1.934574,9.816526,-0.375277,0.078125,-0.12494,-1957.62,-1937.04,1857.6,135.4696,-3.7684,-1.9211,55.855835,37.484512,176.5911,1.165,6170
0.579415,1.920209,11.10704,-0.383829,0.10317,-0.107225,-1957.62,-1936.68,1857.12,135.2876,-3.4081,-1.9353,55.855835,37.484512,176.5911,1.165,6181
0.579415,1.920209,11.10704,-0.317245,0.092175,-0.112723,-1957.62,-1936.68,1857.12,135.2876,-3.4081,-1.9353,55.855835,37.484512,176.5911,1.165,6190
0.423787,1.7981,11.96898,-0.199959,0.056744,-0.105393,-1957.38,-1936.74,1856.7,135.2876,-3.4081,-1.9353,55.855835,37.484512,176.5911,1.165,6200
0.24661,1.764581,12.514874,-0.04541,0.006654,-0.106614,-1957.38,-1936.74,1856.7,135.2876,-3.4081,-1.9353,55.855835,37.484512,176.5911,1.165,6210
0.155628,1.762186,12.744725,0.125022,-0.061763,-0.082791,-1957.0198,-1936.26,1856.58,135.0691,-2.6611,-1.7396,55.855835,37.484512,176.5911,1.165,6220
0.177176,1.580221,12.761485,0.258801,-0.132013,-0.026591,-1957.0198,-1936.26,1856.58,135.0691,-2.6611,-1.7396,55.855835,37.484512,176.5911,1.165,6230
0.177176,1.580221,12.761485,0.269186,-0.111243,0.04488,-1956.96,-1936.26,1856.82,135.0691,-2.6611,-1.7396,55.855835,37.484512,176.5911,1.165,6240
0.409421,1.285726,13.096684,0.227036,-0.03794,0.11513,-1956.96,-1936.26,1856.82,135.0691,-2.6611,-1.7396,55.855835,37.484512,176.5911,1.165,6251
0.349564,1.063058,13.237946,0.164728,0.083623,0.187823,-1957.74,-1936.32,1857,135.0846,-2.8397,-1.8365,55.855835,37.484512,176.5911,1.165,6260
0.349564,1.063058,13.237946,0.0957,0.228398,0.275176,-1957.74,-1936.32,1857,135.0846,-2.8397,-1.8365,55.855835,37.484512,176.5911,1.165,6270
0.217879,0.668003,13.194848,0.079817,0.29376,0.346037,-1957.86,-1936.44,1856.58,135.0846,-2.8397,-1.8365,55.855835,37.484512,176.5911,1.165,6280
-0.110137,0.967287,12.850073,0.070044,0.276045,0.355811,-1957.86,-1936.44,1856.58,135.0846,-2.8397,-1.8365,55.855835,37.484512,176.5911,1.165,6290
0.117319,1.671204,11.877997,0.070044,0.276045,0.355811,-1957.5,-1936.62,1857.12,135.3307,-3.2847,-1.7672,55.855835,37.484512,176.5911,1.165,6300
0.641666,1.278543,11.921094,-0.004482,0.112944,0.289837,-1957.5,-1936.62,1857.12,135.3307,-3.2847,-1.7672,55.855835,37.484512,176.5911,1.165,6311
0.641666,1.278543,11.921094,-0.159031,-0.062985,0.18599,-1957.38,-1936.74,1857.36,135.3307,-3.2847,-1.7672,55.855835,37.484512,176.5911,1.165,6320
0.809265,0.265765,12.905141,-0.273263,-0.120406,0.153003,-1957.38,-1936.74,1857.36,135.3307,-3.2847,-1.7672,55.855835,37.484512,176.5911,1.165,6330
0.483644,-0.768562,14.150164,-0.268376,-0.088031,0.168886,-1957.2,-1937.22,1856.88,135.5727,-3.3647,-1.3301,55.855835,37.484512,176.5911,1.165,6341
-0.0838,-1.549096,15.464621,-0.074121,0.021314,0.216533,-1957.2,-1937.22,1856.88,135.5727,-3.3647,-1.3301,55.855835,37.484512,176.5911,1.165,6350
-0.634483,-1.575433,14.382409,0.245362,0.141044,0.264792,-1957.32,-1937.46,1856.7,135.5727,-3.3647,-1.3301,55.855835,37.484512,176.5911,1.165,6360
-0.634483,-1.575433,14.382409,0.579505,0.141044,0.255629,-1957.32,-1937.46,1856.7,135.5727,-3.3647,-1.3301,55.855835,37.484512,176.5911,1.165,6370
-0.84039,-0.600963,10.735929,0.677855,0.07446,0.195764,-1957.08,-1936.44,1856.76,135.2834,-2.9039,-1.5027,55.855835,37.484512,176.5911,1.165,6380
-1.683175,-0.284919,8.686429,0.575229,-0.071537,0.206149,-1957.08,-1936.44,1856.76,135.2834,-2.9039,-1.5027,55.855835,37.484512,176.5911,1.165,6391
-1.855563,-0.05028,7.549149,0.280792,-0.194321,0.231194,-1957.44,-1936.44,1857.06,135.2834,-2.9039,-1.5027,55.855835,37.484512,176.5911,1.165,6400
-1.855563,-0.05028,7.549149,-0.017921,-0.207149,0.247688,-1957.44,-1936.44,1857.06,135.2834,-2.9039,-1.5027,55.855835,37.484512,176.5911,1.165,6410
-1.395862,-0.270553,7.84125,-0.277539,-0.153393,0.268457,-1957.5,-1937.7,1857.12,135.8849,-4.0672,-1.3089,55.855835,37.484512,176.5911,1.165,6420
-0.775745,-0.656031,9.047964,-0.277539,-0.153393,0.268457,-1957.5,-1937.7,1857.12,135.8849,-4.0672,-1.3089,55.855835,37.484512,176.5911,1.165,6431
-0.292102,-0.82363,9.850046,-0.428422,-0.01717,0.255629,-1957.44,-1938.36,1857.12,135.8849,-4.0672,-1.3089,55.855835,37.484512,176.5911,1.165,6440
-0.002394,-1.211503,9.854836,-0.429644,0.097672,0.239135,-1957.44,-1938.36,1857.12,135.8849,-4.0672,-1.3089,55.855835,37.484512,176.5911,1.165,6450
0.026337,-1.216291,9.522031,-0.383218,0.155094,0.225086,-1957.74,-1938.66,1857.6,135.6791,-4.0219,-1.6964,55.855835,37.484512,176.5911,1.165,6461
0.026337,-1.216291,9.522031,-0.27815,0.171587,0.206149,-1957.74,-1938.66,1857.6,135.6791,-4.0219,-1.6964,55.855835,37.484512,176.5911,1.165,6470
-0.172388,-1.249811,9.170073,-0.155976,0.156316,0.251353,-1957.68,-1937.94,1857.3,135.6791,-4.0219,-1.6964,55.855835,37.484512,176.5911,1.165,6480
-0.33041,-0.952921,8.640938,-0.028306,0.178918,0.314883,-1957.68,-1937.94,1857.3,135.6791,-4.0219,-1.6964,55.855835,37.484512,176.5911,1.165,6490
-0.481249,-0.557866,7.800547,0.068211,0.191135,0.406512,-1957.98,-1936.8,1857.12,135.4178,-3.1404,-1.4283,55.855835,37.484512,176.5911,1.165,6500
-0.351958,-0.110137,6.840443,0.090813,0.204574,0.473708,-1957.98,-1936.8,1857.12,135.4178,-3.1404,-1.4283,55.855835,37.484512,176.5911,1.165,6511
-0.351958,-0.110137,6.840443,0.077374,0.197854,0.531129,-1957.62,-1936.62,1857.36,135.4178,-3.1404,-1.4283,55.855835,37.484512,176.5911,1.165,6520
-0.328016,0.102954,6.330463,0.051107,0.168533,0.583663,-1957.62,-1936.62,1857.36,135.4178,-3.1404,-1.4283,55.855835,37.484512,176.5911,1.165,6530
-0.141262,0.368718,6.052727,0.015066,0.128827,0.607487,-1957.08,-1937.5198,1856.94,135.6116,-3.0881,-1.0388,55.855835,37.484512,176.5911,1.165,6541
-0.117319,0.596174,6.07667,-0.011201,0.056134,0.6026,-1957.08,-1937.5198,1856.94,135.6116,-3.0881,-1.0388,55.855835,37.484512,176.5911,1.165,6551
0.174782,0.849968,6.234692,0.008346,-0.017781,0.580609,-1956.9,-1938.06,1857.36,135.6116,-3.0881,-1.0388,55.855835,37.484512,176.5911,1.165,6560
0.174782,0.849968,6.234692,0.089591,-0.121628,0.526242,-1956.9,-1938.06,1857.36,135.6116,-3.0881,-1.0388,55.855835,37.484512,176.5911,1.165,6571
0.378295,1.158829,5.997659,0.157397,-0.204706,0.455993,-1956.84,-1938.18,1857.24,135.75,-3.1205,-0.7822,55.855835,37.484512,176.5911,1.165,6580
0.337593,1.256994,5.719923,0.175112,-0.266403,0.399182,-1956.84,-1938.18,1857.24,135.75,-3.1205,-0.7822,55.855835,37.484512,176.5911,1.165,6590
0.136474,1.395862,5.889916,0.146402,-0.264571,0.368028,-1956.78,-1938.66,1857,135.75,-3.1205,-0.7822,55.855835,37.484512,176.5911,1.165,6600
-0.047885,1.520365,6.150892,0.06027,-0.222421,0.356422,-1956.78,-1938.66,1857,135.75,-3.1205,-0.7822,55.855835,37.484512,176.5911,1.165,6610
-0.047885,1.520365,6.150892,-0.078397,-0.153393,0.36925,-1957.38,-1939.32,1857.12,135.6611,-3.3439,-1.187,55.855835,37.484512,176.5911,1.165,6620
-0.007183,1.529942,6.60341,-0.24333,-0.085587,0.377191,-1957.38,-1939.32,1857.12,135.6611,-3.3439,-1.187,55.855835,37.484512,176.5911,1.165,6630
0.265765,1.647261,7.439012,-0.371001,-0.069094,0.34848,-1957.98,-1939.5,1857.3,135.6611,-3.3439,-1.187,55.855835,37.484512,176.5911,1.165,6640
0.275342,1.778946,8.420665,-0.436364,-0.100248,0.268457,-1957.98,-1939.5,1857.3,135.6611,-3.3439,-1.187,55.855835,37.484512,176.5911,1.165,6651
0.517163,1.522759,9.371192,-0.440029,-0.199208,0.20737,-1957.68,-1939.32,1857.72,135.3963,-3.2711,-1.6471,55.855835,37.484512,176.5911,1.165,6660
0.517163,1.522759,9.371192,-0.424146,-0.287783,0.137121,-1957.68,-1939.32,1857.72,135.3963,-3.2711,-1.6471,55.855835,37.484512,176.5911,1.165,6670
0.773351,1.235446,10.441432,-0.376499,-0.338485,0.077256,-1957.56,-1939.2,1857.54,135.3963,-3.2711,-1.6471,55.855835,37.484512,176.5911,1.165,6680
0.794899,1.005595,11.937854,-0.300141,-0.350092,0.046102,-1957.56,-1939.2,1857.54,135.3963,-3.2711,-1.6471,55.855835,37.484512,176.5911,1.165,6690
0.696734,1.029538,13.254705,-0.069234,-0.27129,-0.014985,-1957.8,-1938,1858.08,134.8068,-2.3279,-2.0304,55.855835,37.484512,176.5911,1.165,6700
0.481249,1.247417,13.266677,0.106085,-0.212036,-0.069352,-1957.8,-1938,1858.08,134.8068,-2.3279,-2.0304,55.855835,37.484512,176.5911,1.165,6710
0.481249,1.247417,13.266677,0.19466,-0.155837,-0.109058,-1957.98,-1937.22,1858.08,134.8068,-2.3279,-2.0304,55.855835,37.484512,176.5911,1.165,6720
0.102954,1.142069,13.29062,0.219095,-0.097804,-0.112112,-1957.98,-1937.22,1858.08,134.8068,-2.3279,-2.0304,55.855835,37.484512,176.5911,1.165,6730
-0.03352,0.773351,13.362448,0.201991,-0.071537,-0.102338,-1958.1,-1938.06,1856.88,134.3192,-1.9223,-2.7231,55.855835,37.484512,176.5911,1.165,6740
-0.055068,0.411815,13.75032,0.213597,-0.047103,-0.07546,-1958.1,-1938.06,1856.88,134.3192,-1.9223,-2.7231,55.855835,37.484512,176.5911,1.165,6750
-0.119714,0.002394,14.011296,0.282014,-0.078868,-0.050415,-1958.28,-1938.06,1856.34,134.3192,-1.9223,-2.7231,55.855835,37.484512,176.5911,1.165,6760
-0.119714,0.002394,14.011296,0.418237,-0.145452,-0.007043,-1958.28,-1938.06,1856.34,134.3192,-1.9223,-2.7231,55.855835,37.484512,176.5911,1.165,6770
-0.385478,0.110137,14.102279,0.581949,-0.240747,0.031441,-1958.64,-1937.82,1856.34,134.417,-2.415,-2.9357,55.855835,37.484512,176.5911,1.165,6780
-0.368718,1.019961,13.295408,0.674189,-0.345816,0.032663,-1958.64,-1937.82,1856.34,134.417,-2.415,-2.9357,55.855835,37.484512,176.5911,1.165,6790
0.239427,1.879506,11.889969,0.716339,-0.621927,-0.012541,-1959.18,-1938.78,1856.7,134.417,-2.415,-2.9357,55.855835,37.484512,176.5911,1.165,6800
1.606559,1.400651,10.752688,0.561179,-0.77281,-0.098673,-1959.18,-1938.78,1856.7,134.417,-2.415,-2.9357,55.855835,37.484512,176.5911,1.165,6810
1.606559,1.400651,10.752688,0.219706,-0.757539,-0.151818,-1959.12,-1939.86,1856.82,134.6859,-3.4783,-3.3593,55.855835,37.484512,176.5911,1.165,6820
2.631308,0.306467,11.578713,-0.185909,-0.491202,-0.18114,-1959.12,-1939.86,1856.82,134.6859,-3.4783,-3.3593,55.855835,37.484512,176.5911,1.165,6830
3.615355,-1.048692,13.293014,-0.376499,-0.154615,-0.233674,-1959.6,-1939.92,1856.22,134.6859,-3.4783,-3.3593,55.855835,37.484512,176.5911,1.165,6841
3.41663,-2.231464,14.408746,-0.29953,0.183804,-0.249557,-1959.6,-1939.92,1856.22,134.6859,-3.4783,-3.3593,55.855835,37.484512,176.5911,1.165,6850
2.786936,-2.449343,14.028056,-0.036247,0.346295,-0.195801,-1961.16,-1939.92,1855.98,134.3159,-4.3442,-4.8776,55.855835,37.484512,176.5911,1.165,6860
2.786936,-2.449343,14.028056,-0.036247,0.346295,-0.195801,-1961.16,-1939.92,1855.98,134.3159,-4.3442,-4.8776,55.855835,37.484512,176.5911,1.165,6870
2.241041,-1.786129,11.626598,0.179999,0.266882,-0.175031,-1961.28,-1939.56,1856.28,134.3159,-4.3442,-4.8776,55.855835,37.484512,176.5911,1.165,6880
2.152453,-0.656031,9.414289,0.290566,0.033532,-0.275824,-1961.28,-1939.56,1856.28,134.3159,-4.3442,-4.8776,55.855835,37.484512,176.5911,1.165,6890
1.975277,-0.251399,8.456578,0.265521,-0.154615,-0.408382,-1960.74,-1938.54,1856.94,134.2771,-3.9179,-4.5684,55.855835,37.484512,176.5911,1.165,6900
1.58501,-0.059857,7.759845,0.131741,-0.206538,-0.52017,-1960.74,-1938.54,1856.94,134.2771,-3.9179,-4.5684,55.855835,37.484512,176.5911,1.165,6911
1.58501,-0.059857,7.759845,-0.097333,-0.159502,-0.609356,-1960.38,-1939.0198,1857.06,134.2771,-3.9179,-4.5684,55.855835,37.484512,176.5911,1.165,6920
0.821236,-0.282524,8.063917,-0.338625,-0.021446,-0.636845,-1960.38,-1939.0198,1857.06,134.2771,-3.9179,-4.5684,55.855835,37.484512,176.5911,1.165,6930
0.201119,-0.861939,8.643332,-0.526772,0.167311,-0.608745,-1960.38,-1939.38,1856.64,134.4291,-4.4386,-4.6988,55.855835,37.484512,176.5911,1.165,6941
0.009577,-1.393468,9.268238,-0.63123,0.338964,-0.530555,-1960.38,-1939.38,1856.64,134.4291,-4.4386,-4.6988,55.855835,37.484512,176.5911,1.165,6950
-0.021548,-1.386285,9.524426,-0.650777,0.478242,-0.415712,-1960.5,-1938.96,1856.7,134.4291,-4.4386,-4.6988,55.855835,37.484512,176.5911,1.165,6960
-0.021548,-1.386285,9.524426,-0.567089,0.56193,-0.2801,-1960.5,-1938.96,1856.7,134.4291,-4.4386,-4.6988,55.855835,37.484512,176.5911,1.165,6970
0.055068,-0.713494,9.033599,-0.416205,0.538106,-0.193968,-1960.0198,-1938.24,1857.3,134.233,-3.472,-4.2772,55.855835,37.484512,176.5911,1.165,6981
0.282524,-0.112531,8.018426,-0.230502,0.401273,-0.171977,-1960.0198,-1938.24,1857.3,134.233,-3.472,-4.2772,55.855835,37.484512,176.5911,1.165,6990
0.402238,0.39745,7.240287,-0.03136,0.195411,-0.208629,-1959.66,-1937.28,1857.48,134.233,-3.472,-4.2772,55.855835,37.484512,176.5911,1.165,7000
0.478855,0.85715,6.536371,0.197104,-0.08742,-0.310643,-1959.66,-1937.28,1857.48,134.233,-3.472,-4.2772,55.85583,37.48449,175.8699,1.1994,7011
0.249005,1.113338,6.050333,0.30034,-0.174773,-0.396775,-1959.54,-1936.62,1857,134.3423,-2.5358,-3.151,55.85583,37.48449,175.8699,1.1994,7021
0.249005,1.113338,6.050333,0.284457,-0.105135,-0.452975,-1959.54,-1936.62,1857,134.3423,-2.5358,-3.151,55.85583,37.48449,175.8699,1.1994,7030
-0.179571,1.00799,5.89231,0.249027,0.002988,-0.459694,-1959.9,-1936.98,1856.16,134.3423,-2.5358,-3.151,55.85583,37.48449,175.8699,1.1994,7040
-0.428575,0.823631,5.935407,0.217262,0.127605,-0.42854,-1959.9,-1936.98,1856.16,134.3423,-2.5358,-3.151,55.85583,37.48449,175.8699,1.1994,7051
-0.732648,0.735042,6.012024,0.209932,0.194189,-0.356458,-1959.12,-1937.88,1856.22,134.5242,-3.0447,-3.2711,55.85583,37.48449,175.8699,1.1994,7060
-0.732648,0.735042,6.012024,0.216651,0.229619,-0.269104,-1959.12,-1937.88,1856.22,134.5242,-3.0447,-3.2711,55.85583,37.48449,175.8699,1.1994,7070
-0.648848,0.895459,5.901888,0.229479,0.211293,-0.192746,-1958.7,-1938.12,1857,134.5242,-3.0447,-3.2711,55.85583,37.48449,175.8699,1.1994,7081
-0.136474,1.520365,5.786962,0.227036,0.188691,-0.154873,-1958.7,-1938.12,1857,134.5242,-3.0447,-3.2711,55.85583,37.48449,175.8699,1.1994,7091
0.56026,1.822043,5.901888,0.134185,0.156316,-0.146931,-1959.24,-1938.12,1857.24,134.9137,-3.6046,-2.9081,55.85583,37.48449,175.8699,1.1994,7100
1.079818,2.068653,6.873963,0.029116,0.175252,-0.146321,-1959.24,-1938.12,1857.24,134.9137,-3.6046,-2.9081,55.85583,37.48449,175.8699,1.1994,7110
1.079818,2.068653,6.873963,0.009568,0.193578,-0.16709,-1958.88,-1938.72,1856.94,134.9137,-3.6046,-2.9081,55.85583,37.48449,175.8699,1.1994,7120
1.089395,2.241041,7.656891,0.009568,0.193578,-0.16709,-1958.88,-1938.72,1856.94,134.9137,-3.6046,-2.9081,55.85583,37.48449,175.8699,1.1994,7131
0.97447,2.425401,8.195603,-0.002038,0.154483,-0.211683,-1958.64,-1938.48,1856.58,135.2883,-4.0122,-2.4503,55.85583,37.48449,175.8699,1.1994,7140
0.778139,2.183579,8.985713,-0.008758,0.111722,-0.239172,-1958.28,-1938.48,1856.22,135.2883,-4.0122,-2.4503,55.85583,37.48449,175.8699,1.1994,7150
0.778139,2.183579,8.985713,-0.027695,0.087899,-0.237339,-1958.28,-1938.48,1856.22,135.2883,-4.0122,-2.4503,55.85583,37.48449,175.8699,1.1994,7160
0.442941,1.805283,10.424672,-0.041745,0.062242,-0.219014,-1958.04,-1938.24,1856.4,135.2883,-4.0122,-2.4503,55.85583,37.48449,175.8699,1.1994,7170
0.318439,1.714301,11.492519,-0.035636,0.062853,-0.193357,-1958.04,-1938.24,1856.4,135.2883,-4.0122,-2.4503,55.85583,37.48449,175.8699,1.1994,7180
0.26337,1.664021,12.043202,-0.005093,0.080568,-0.152429,-1958.1,-1938.48,1857.06,135.5236,-4.0559,-2.0195,55.85583,37.48449,175.8699,1.1994,7190
0.26337,1.664021,12.043202,-0.000206,0.102559,-0.108447,-1958.1,-1938.48,1857.06,135.5236,-4.0559,-2.0195,55.85583,37.48449,175.8699,1.1994,7200
0.201119,1.482056,12.31615,-0.048464,0.119053,-0.059578,-1957.56,-1938.6,1857.42,135.5236,-4.0559,-2.0195,55.85583,37.48449,175.8699,1.1994,7210
0.191542,1.154041,12.924295,-0.122379,0.142266,0.014948,-1957.56,-1938.6,1857.42,135.5236,-4.0559,-2.0195,55.85583,37.48449,175.8699,1.1994,7221
0.306467,0.665608,13.762292,-0.168194,0.134935,0.101691,-1957.62,-1938,1857.48,135.6228,-4.0541,-1.8105,55.85583,37.48449,175.8699,1.1994,7230
0.390267,0.339987,14.514094,-0.154144,0.105003,0.199429,-1957.62,-1938,1857.48,135.6228,-4.0541,-1.8105,55.85583,37.48449,175.8699,1.1994,7240
0.390267,0.339987,14.514094,-0.07351,0.066518,0.299,-1957.5,-1937.5198,1857.18,135.6228,-4.0541,-1.8105,55.85583,37.48449,175.8699,1.1994,7250
0.172388,0.811659,14.480574,0.062713,-0.022057,0.389408,-1957.5,-1937.5198,1857.18,135.6228,-4.0541,-1.8105,55.85583,37.48449,175.8699,1.1994,7261
0.277736,2.083019,13.45343,0.179389,-0.189434,0.39735,-1957.44,-1937.64,1856.88,135.6483,-3.7645,-1.5435,55.85583,37.48449,175.8699,1.1994,7270
0.713494,2.236253,12.09827,0.148234,-0.359866,0.339317,-1957.44,-1937.64,1856.88,135.6483,-3.7645,-1.5435,55.85583,37.48449,175.8699,1.1994,7280
1.699935,1.412622,12.481355,-0.08817,-0.511971,0.232416,-1957.86,-1937.5198,1857.36,135.6483,-3.7645,-1.5435,55.85583,37.48449,175.8699,1.1994,7290
1.699935,1.412622,12.481355,-0.388105,-0.517469,0.121849,-1957.86,-1937.5198,1857.36,135.6483,-3.7645,-1.5435,55.85583,37.48449,175.8699,1.1994,7300
1.822043,-0.502798,14.770281,-0.580528,-0.27801,0.041826,-1957.68,-1937.5198,1857.12,135.4803,-3.9697,-2.0382,55.85583,37.48449,175.8699,1.1994,7310
0.191542,-2.317658,17.011322,-0.533491,0.063464,0.041826,-1957.68,-1937.5198,1857.12,135.4803,-3.9697,-2.0382,55.85583,37.48449,175.8699,1.1994,7320
-1.175589,-3.184385,17.092728,-0.190796,0.404938,0.148727,-1958.22,-1937.22,1856.7,135.4803,-3.9697,-2.0382,55.85583,37.48449,175.8699,1.1994,7331
-1.826832,-2.652856,14.16453,0.274684,0.629736,0.26357,-1958.22,-1937.22,1856.7,135.4803,-3.9697,-2.0382,55.85583,37.48449,175.8699,1.1994,7340
-1.826832,-2.652856,14.16453,0.676022,0.612021,0.31977,-1958.5198,-1937.16,1857.48,134.7894,-2.9829,-2.6006,55.85583,37.48449,175.8699,1.1994,7350
-2.334418,-1.582616,9.73991,0.807969,0.363399,0.338096,-1958.5198,-1937.16,1857.48,134.7894,-2.9829,-2.6006,55.85583,37.48449,175.8699,1.1994,7361
-2.078231,-0.773351,7.391126,0.759711,0.048803,0.332598,-1957.44,-1937.94,1857.66,134.7894,-2.9829,-2.6006,55.85583,37.48449,175.8699,1.1994,7370
-1.661627,-0.098165,6.514822,0.559958,-0.226086,0.278231,-1957.44,-1937.94,1857.66,134.7894,-2.9829,-2.6006,55.85583,37.48449,175.8699,1.1994,7380
-1.252206,-0.172388,6.792558,0.325996,-0.397739,0.217144,-1957.38,-1939.08,1857.72,135.8382,-4.1359,-1.4917,55.85583,37.48449,175.8699,1.1994,7390
-1.252206,-0.172388,6.792558,0.122578,-0.387355,0.184768,-1957.38,-1939.08,1857.72,135.8382,-4.1359,-1.4917,55.85583,37.48449,175.8699,1.1994,7400
-0.773351,-0.418998,6.993677,-0.03808,-0.291449,0.197597,-1957.62,-1939.44,1857.72,135.8382,-4.1359,-1.4917,55.85583,37.48449,175.8699,1.1994,7410
-0.193936,-0.842785,6.694392,-0.219506,-0.143619,0.254407,-1957.62,-1939.44,1857.72,135.8382,-4.1359,-1.4917,55.85583,37.48449,175.8699,1.1994,7421
0.639271,-1.328822,6.873963,-0.526772,0.07507,0.349702,-1957.8,-1939.8,1857.42,135.8254,-4.9307,-2.1636,55.85583,37.48449,175.8699,1.1994,7430
1.350371,-1.158829,7.836462,-0.820598,0.291317,0.435834,-1957.8,-1939.8,1857.42,135.8254,-4.9307,-2.1636,55.85583,37.48449,175.8699,1.1994,7440
1.350371,-1.158829,7.836462,-0.905508,0.387833,0.450495,-1958.34,-1939.56,1857.84,135.8254,-4.9307,-2.1636,55.85583,37.48449,175.8699,1.1994,7450
1.604164,-0.689551,8.679246,-0.782724,0.348127,0.421784,-1958.34,-1939.56,1857.84,135.8254,-4.9307,-2.1636,55.85583,37.48449,175.8699,1.1994,7460
1.20432,-0.354353,9.04557,-0.480957,0.195411,0.415065,-1958.16,-1938.54,1857.66,135.3814,-3.7385,-2.0809,55.85583,37.48449,175.8699,1.1994,7471
0.56026,0.292102,8.657698,-0.139483,0.057966,0.443775,-1958.16,-1938.54,1857.66,135.3814,-3.7385,-2.0809,55.85583,37.48449,175.8699,1.1994,7480
0.189148,0.92419,7.546755,0.161673,-0.097194,0.493866,-1958.16,-1938.18,1856.7,135.3814,-3.7385,-2.0809,55.85583,37.48449,175.8699,1.1994,7490
0.189148,0.92419,7.546755,0.32172,-0.223032,0.514636,-1958.16,-1938.18,1856.7,135.3814,-3.7385,-2.0809,55.85583,37.48449,175.8699,1.1994,7501
0.040703,1.58501,6.622565,0.420069,-0.304277,0.513414,-1958.04,-1938,1857,135.0418,-2.3744,-1.5683,55.85583,37.48449,175.8699,1.1994,7510
-0.05028,1.680781,6.292155,0.444504,-0.300612,0.522577,-1958.04,-1938,1857,135.0418,-2.3744,-1.5683,55.85583,37.48449,175.8699,1.1994,7521
0.038308,1.666415,6.095824,0.374865,-0.225475,0.535405,-1957.56,-1938.66,1857.78,135.0418,-2.3744,-1.5683,55.85583,37.48449,175.8699,1.1994,7530
0.198725,1.81486,6.225115,0.26491,-0.143619,0.548233,-1957.56,-1938.66,1857.78,135.0418,-2.3744,-1.5683,55.85583,37.48449,175.8699,1.1994,7540
0.198725,1.81486,6.225115,0.165339,-0.077646,0.525631,-1958.1,-1939.26,1857.54,135.0857,-3.1066,-2.1619,55.85583,37.48449,175.8699,1.1994,7550
0.579415,2.056682,6.782981,0.162895,-0.078257,0.455382,-1958.1,-1939.26,1857.54,135.0857,-3.1066,-2.1619,55.85583,37.48449,175.8699,1.1994,7560
0.802082,2.485257,6.945791,0.162895,-0.078257,0.455382,-1958.7,-1939.14,1857.3,135.0857,-3.1066,-2.1619,55.85583,37.48449,175.8699,1.1994,7570
1.043904,2.746233,6.744673,0.199547,-0.199208,0.286783,-1958.7,-1939.14,1857.3,135.0857,-3.1066,-2.1619,55.85583,37.48449,175.8699,1.1994,7580
1.077424,2.640885,6.782981,0.200158,-0.337264,0.084587,-1958.7,-1939.62,1857.18,135.126,-3.6655,-2.5618,55.85583,37.48449,175.8699,1.1994,7590
1.077424,2.640885,6.782981,0.126854,-0.436224,-0.095619,-1958.7,-1939.62,1857.18,135.126,-3.6655,-2.5618,55.85583,37.48449,175.8699,1.1994,7600
0.747014,2.114145,7.587457,-0.022808,-0.453939,-0.242226,-1959.12,-1940.28,1856.94,135.126,-3.6655,-2.5618,55.85583,37.48449,175.8699,1.1994,7610
0.328016,1.582616,8.851634,-0.162085,-0.367196,-0.291096,-1959.12,-1940.28,1856.94,135.126,-3.6655,-2.5618,55.85583,37.48449,175.8699,1.1994,7621
0.052674,1.18756,10.278622,-0.286702,-0.212036,-0.269715,-1959.6,-1940.16,1857.9,134.9502,-4.0809,-3.2677,55.85583,37.48449,175.8699,1.1994,7630
0.03352,0.95771,11.396749,-0.403377,-0.034885,-0.201298,-1959.6,-1940.16,1857.9,134.9502,-4.0809,-3.2677,55.85583,37.48449,175.8699,1.1994,7640
0.03352,0.95771,11.396749,-0.459577,0.042084,-0.137768,-1959.48,-1940.04,1858.5,134.9502,-4.0809,-3.2677,55.85583,37.48449,175.8699,1.1994,7651
0.411815,1.089395,12.881199,-0.448581,0.056744,-0.123719,-1959.48,-1940.04,1858.5,134.9502,-4.0809,-3.2677,55.85583,37.48449,175.8699,1.1994,7660
0.581809,1.20432,14.29382,-0.383829,0.069573,-0.129216,-1959.84,-1939.56,1857.42,134.5254,-3.6528,-3.8385,55.85583,37.48449,175.8699,1.1994,7670
0.723071,1.051087,15.261107,-0.272652,0.032921,-0.123108,-1959.84,-1939.56,1857.42,134.5254,-3.6528,-3.8385,55.85583,37.48449,175.8699,1.1994,7680
1.144463,1.089395,15.749539,-0.192628,0.004821,-0.144488,-1959.84,-1938.6,1857,134.5254,-3.6528,-3.8385,55.85583,37.48449,175.8699,1.1994,7690
1.144463,1.089395,15.749539,-0.141316,-0.017781,-0.183583,-1959.84,-1938.6,1857,134.5254,-3.6528,-3.8385,55.85583,37.48449,175.8699,1.1994,7701
1.175589,0.97447,15.862071,-0.106496,-0.028777,-0.201298,-1959.54,-1938.24,1857.3,134.2204,-2.7975,-3.6981,55.85583,37.48449,175.8699,1.1994,7710
1.096578,1.077424,15.876436,-0.077786,-0.086809,-0.231231,-1959.54,-1938.24,1857.3,134.2204,-2.7975,-3.6981,55.85583,37.48449,175.8699,1.1994,7720
0.665608,1.563461,15.82855,-0.006315,-0.157669,-0.236118,-1959.36,-1938.9,1857.12,134.2204,-2.7975,-3.6981,55.85583,37.48449,175.8699,1.1994,7730
0.905036,1.544307,14.712819,0.084704,-0.365974,-0.247113,-1959.36,-1938.9,1857.12,134.2204,-2.7975,-3.6981,55.85583,37.48449,175.8699,1.1994,7740
0.905036,1.544307,14.712819,0.08837,-0.616429,-0.289874,-1959.36,-1939.0198,1856.7,134.1224,-2.541,-3.7485,55.85583,37.48449,175.8699,1.1994,7750
1.65205,0.153234,13.939468,-0.036858,-0.689122,-0.311254,-1959.36,-1939.0198,1856.7,134.1224,-2.541,-3.7485,55.85583,37.48449,175.8699,1.1994,7761
2.257801,-1.589798,14.557191,-0.234778,-0.510138,-0.289874,-1959.96,-1938.96,1856.88,134.1224,-2.541,-3.7485,55.85583,37.48449,175.8699,1.1994,7771
2.197944,-2.593,15.900379,-0.195072,-0.180882,-0.228787,-1959.96,-1938.96,1856.88,134.1224,-2.541,-3.7485,55.85583,37.48449,175.8699,1.1994,7780
1.857957,-2.777359,14.751127,0.184886,0.14532,-0.149375,-1960.14,-1939.0198,1856.94,133.7161,-2.6528,-4.7633,55.85583,37.48449,175.8699,1.1994,7790
1.857957,-2.777359,14.751127,0.583171,0.268104,-0.110279,-1960.14,-1939.0198,1856.94,133.7161,-2.6528,-4.7633,55.85583,37.48449,175.8699,1.1994,7800
1.573039,-1.874717,11.468576,0.903264,0.163035,-0.114556,-1960.32,-1938,1857.3,133.7161,-2.6528,-4.7633,55.85583,37.48449,175.8699,1.1994,7810
1.2546,-0.536318,8.200391,1.074917,-0.065429,-0.162814,-1960.32,-1938,1857.3,133.7161,-2.6528,-4.7633,55.85583,37.48449,175.8699,1.1994,7820
1.53473,0.191542,5.693586,1.022383,-0.330544,-0.24467,-1960.32,-1937.82,1857.36,133.7329,-2.8829,-4.9037,55.85583,37.48449,175.8699,1.1994,7830
1.53473,0.191542,5.693586,0.736498,-0.544958,-0.363789,-1960.32,-1937.82,1857.36,133.7329,-2.8829,-4.9037,55.85583,37.48449,175.8699,1.1994,7840
1.996825,0.301679,4.470111,0.269186,-0.647583,-0.479242,-1960.86,-1938.78,1857.42,133.7329,-2.8829,-4.9037,55.85583,37.48449,175.8699,1.1994,7850
2.530748,-0.086194,5.29853,-0.249439,-0.604823,-0.579424,-1960.86,-1938.78,1857.42,133.7329,-2.8829,-4.9037,55.85583,37.48449,175.8699,1.1994,7860
2.327235,-0.797293,7.28099,-0.620845,-0.358033,-0.650284,-1961.64,-1940.16,1857.72,134.3544,-5.0314,-5.332,55.85583,37.48449,175.8699,1.1994,7870
1.532336,-1.687964,7.989695,-0.814489,-0.133235,-0.62585,-1961.64,-1940.16,1857.72,134.3544,-5.0314,-5.332,55.85583,37.48449,175.8699,1.1994,7880
1.532336,-1.687964,7.989695,-0.929943,0.013373,-0.528722,-1961.94,-1940.64,1857,134.3544,-5.0314,-5.332,55.85583,37.48449,175.8699,1.1994,7891
1.223474,-1.975277,8.772623,-0.911006,0.105614,-0.416934,-1961.94,-1940.64,1857,134.3544,-5.0314,-5.332,55.85583,37.48449,175.8699,1.1994,7900
1.031933,-1.783735,9.481328,-0.774172,0.172198,-0.314919,-1962.54,-1938.9,1856.7,133.6923,-4.3324,-6.2298,55.85583,37.48449,175.8699,1.1994,7911
1.012778,-1.472479,9.39274,-0.568921,0.220456,-0.203742,-1962.54,-1938.9,1856.7,133.6923,-4.3324,-6.2298,55.85583,37.48449,175.8699,1.1994,7920
1.106155,-1.000807,8.628966,-0.436975,0.225343,-0.154873,-1962.36,-1937.04,1856.46,133.6923,-4.3324,-6.2298,55.85583,37.48449,175.8699,1.1994,7930
1.106155,-1.000807,8.628966,-0.385662,0.229619,-0.149375,-1962.36,-1937.04,1856.46,133.6923,-4.3324,-6.2298,55.85583,37.48449,175.8699,1.1994,7940
1.197137,-0.703917,8.157295,-0.366725,0.221678,-0.182972,-1961.88,-1936.62,1856.4,133.1495,-2.5481,-5.8967,55.85583,37.48449,175.8699,1.1994,7950
0.94095,-0.481249,8.08786,-0.310525,0.212515,-0.227566,-1961.88,-1936.98,1856.58,133.1495,-2.5481,-5.8967,55.85583,37.48449,175.8699,1.1994,7960
0.94095,-0.481249,8.08786,-0.16575,0.194189,-0.275213,-1961.88,-1936.98,1856.58,133.1495,-2.5481,-5.8967,55.85583,37.48449,175.8699,1.1994,7970
0.52674,-0.375901,7.944204,-0.03869,0.219235,-0.288041,-1962.12,-1936.8,1855.98,133.1495,-2.5481,-5.8967,55.85583,37.48449,175.8699,1.1994,7980
0.404632,-0.21309,7.520417,0.084094,0.276045,-0.283154,-1962.12,-1936.8,1855.98,133.1495,-2.5481,-5.8967,55.85583,37.48449,175.8699,1.1994,7990
0.294496,0.002394,6.68721,0.189773,0.345684,-0.262385,-1961.58,-1935.66,1856.04,133.0029,-1.5684,-5.2664,55.85583,37.48449,175.8699,1.1994,8000
0.57702,0.454912,5.906676,0.22276,0.390888,-0.257498,-1961.58,-1935.66,1856.04,133.0029,-1.5684,-5.2664,55.85583,37.48449,175.8699,1.1994,8010
0.57702,0.454912,5.906676,0.202601,0.44892,-0.250778,-1960.68,-1935.96,1856.4,133.0029,-1.5684,-5.2664,55.85583,37.48449,175.8699,1.1994,8020
0.917007,0.869122,5.435004,0.15923,0.473355,-0.261774,-1960.68,-1935.96,1856.4,133.0029,-1.5684,-5.2664,55.85583,37.48446,175.9159,1.3133,8030
1.144463,1.474873,5.576266,0.15923,0.473355,-0.261774,-1960.8,-1936.5,1857.12,133.3769,-1.7812,-4.6011,55.85583,37.48446,175.9159,1.3133,8040
1.249811,2.159636,5.710346,0.140904,0.461137,-0.314919,-1960.8,-1936.5,1857.12,133.3769,-1.7812,-4.6011,55.85583,37.48446,175.9159,1.3133,8050
1.350371,2.384698,6.30652,0.098754,0.403716,-0.384558,-1960.56,-1936.14,1857.78,133.3769,-1.7812,-4.6011,55.85583,37.48446,175.9159,1.3133,8060
1.350371,2.384698,6.30652,0.048663,0.373173,-0.424875,-1960.56,-1936.14,1857.78,133.3769,-1.7812,-4.6011,55.85583,37.48446,175.9159,1.3133,8071
1.3384,2.427795,6.905089,0.003459,0.360345,-0.45664,-1960.0198,-1935.96,1857.36,134.0129,-2.2019,-3.5519,55.85583,37.48446,175.9159,1.3133,8080
1.043904,2.382304,7.685622,-0.02403,0.334688,-0.502455,-1960.0198,-1935.96,1857.36,134.0129,-2.2019,-3.5519,55.85583,37.48446,175.9159,1.3133,8090
0.600963,1.783735,8.487704,-0.042356,0.320027,-0.507953,-1959.54,-1936.44,1857.48,134.0129,-2.2019,-3.5519,55.85583,37.48446,175.9159,1.3133,8100
0.536318,1.671204,9.438231,-0.063736,0.311475,-0.451142,-1959.54,-1936.44,1857.48,134.0129,-2.2019,-3.5519,55.85583,37.48446,175.9159,1.3133,8110
0.536318,1.671204,9.438231,-0.086338,0.332245,-0.387001,-1958.16,-1936.14,1857.18,134.4659,-2.3244,-2.7108,55.85583,37.48446,175.9159,1.3133,8120
0.641666,1.640078,10.264256,-0.145592,0.359123,-0.34363,-1958.16,-1936.14,1857.18,134.4659,-2.3244,-2.7108,55.85583,37.48446,175.9159,1.3133,8130
0.689551,1.498816,11.269852,-0.215841,0.390888,-0.283154,-1957.86,-1935.72,1857.18,134.4659,-2.3244,-2.7108,55.85583,37.48446,175.9159,1.3133,8140
0.572232,1.381497,12.522058,-0.262267,0.419598,-0.22329,-1957.86,-1935.72,1857.18,134.4659,-2.3244,-2.7108,55.85583,37.48446,175.9159,1.3133,8151
0.306467,1.359948,13.247522,-0.272041,0.461748,-0.162203,-1958.1,-1935.42,1857.72,134.7477,-2.1683,-1.9184,55.85583,37.48446,175.9159,1.3133,8160
0.306467,1.359948,13.247522,-0.258602,0.444644,-0.113334,-1958.1,-1935.42,1857.72,134.7477,-2.1683,-1.9184,55.85583,37.48446,175.9159,1.3133,8170
-0.014366,1.022355,13.757504,-0.230502,0.376838,-0.05408,-1957.68,-1935.18,1857.36,134.7477,-2.1683,-1.9184,55.85583,37.48446,175.9159,1.3133,8180
-0.045491,1.005595,13.8006,-0.220728,0.243669,0.005785,-1957.68,-1935.18,1857.36,134.7477,-2.1683,-1.9184,55.85583,37.48446,175.9159,1.3133,8191
0.181965,1.010384,14.059181,-0.216452,0.087899,0.047324,-1957.38,-1935.24,1857.6,134.9851,-1.6238,-0.9331,55.85583,37.48446,175.9159,1.3133,8200
