ACCELEROMETER X (m/s²),ACCELEROMETER Y (m/s²),ACCELEROMETER Z (m/s²),GRAVITY X (m/s²),GRAVITY Y (m/s²),GRAVITY Z (m/s²),GYROSCOPE X (rad/s),GYROSCOPE Y (rad/s),GYROSCOPE Z (rad/s),MAGNETIC FIELD X (μT),MAGNETIC FIELD Y (μT),MAGNETIC FIELD Z (μT),ORIENTATION Z (azimuth °),ORIENTATION X (pitch °),ORIENTATION Y (roll °),ATMOSPHERIC PRESSURE (hPa),LOCATION Latitude : ,LOCATION Longitude : ,LOCATION Altitude ( m),LOCATION Altitude-google ( m),LOCATION Altitude-atmospheric pressure ( m),LOCATION Speed ( m/s),LOCATION Accuracy ( m),LOCATION ORIENTATION (°),Satellites in range,GPS NMEA,Time since start in ms ,YYYY-MO-DD HH-MI-SS_SSS
0.69434,0.361536,9.155706,0.34189,0.139938,9.799689,-0.192018,-0.009229,-3.24E-4,-14.04,-1.5,-43.32,91.3084,-0.943,-2.0495,984.7329,55.855698,37.480846,178.0536,NaN,,0.0049,2.0,85.4569,30 / 30,,9,2021-05-20 22:06:59:471
0.69434,0.361536,9.155706,0.341199,0.111577,9.800077,-0.212176,-0.019614,-0.009487,-13.98,-1.56,-43.02,91.3084,-0.943,-2.0495,984.7329,55.855698,37.480846,178.0536,NaN,,0.0049,2.0,85.4569,30 / 30,,19,2021-05-20 22:06:59:481
0.61054,0.184359,9.634562,0.341199,0.111577,9.800077,-0.187131,-0.014727,-0.012541,-13.98,-1.56,-43.02,91.3084,-0.943,-2.0495,984.7329,55.855698,37.480846,178.0536,NaN,,0.0049,2.0,85.4569,30 / 30,,29,2021-05-20 22:06:59:491
0.500403,0.112531,9.79019,0.344971,0.071429,9.800321,-0.187131,-0.014727,-0.012541,-13.86,-1.62,-42.66,96.8696,-0.6519,-1.994,984.7329,55.855698,37.480846,178.0536,NaN,,0.0049,2.0,85.4569,30 / 30,,39,2021-05-20 22:06:59:501
0.392661,0.071828,9.675264,0.344971,0.071429,9.800321,-0.145592,-0.031831,-0.005822,-13.86,-1.62,-42.66,96.8696,-0.6519,-1.994,984.7329,55.855698,37.480846,178.0536,NaN,,0.0049,2.0,85.4569,30 / 30,,50,2021-05-20 22:06:59:512
0.411815,0.153234,9.37598,0.351694,0.043175,9.800247,-0.065568,-0.085587,0.00212,-13.86,-1.62,-42.48,96.8696,-0.6519,-1.994,984.7329,55.855698,37.480846,178.0536,NaN,,0.0049,2.0,85.4569,30 / 30,,59,2021-05-20 22:06:59:521
0.411815,0.153234,9.37598,0.351694,0.043175,9.800247,-0.019143,-0.137511,-9.35E-4,-13.86,-1.62,-42.48,96.8696,-0.6519,-1.994,984.7329,55.855698,37.480846,178.0536,NaN,,0.0049,2.0,85.4569,30 / 30,,69,2021-05-20 22:06:59:531
0.529135,0.141262,9.014444,0.373977,0.03522,9.799454,-0.015477,-0.202262,-0.005211,-13.92,-1.2,-42.24,93.7258,-0.2523,-2.0553,984.7329,55.855698,37.480846,178.0536,NaN,,0.0049,2.0,85.4569,30 / 30,,79,2021-05-20 22:06:59:541
0.739831,0.198725,8.940222,0.373977,0.03522,9.799454,-0.042966,-0.276788,-0.021093,-13.92,-1.2,-42.24,93.7258,-0.2523,-2.0553,984.7329,55.855698,37.480846,178.0536,NaN,,0.0049,2.0,85.4569,30 / 30,,89,2021-05-20 22:06:59:551
0.804476,0.29689,9.251478,0.419897,0.030565,9.797609,-0.070455,-0.282286,-0.029645,-13.86,-0.54,-41.7,93.7258,-0.2523,-2.0553,984.7329,55.855698,37.480846,178.0536,NaN,,0.0049,2.0,85.4569,30 / 30,,99,2021-05-20 22:06:59:561
0.871516,0.339987,9.534002,0.419897,0.030565,9.797609,-0.166361,-0.210814,-0.022926,-13.86,-0.54,-41.7,93.7258,-0.2523,-2.0553,984.7329,55.855698,37.480846,178.0536,NaN,,0.0049,2.0,85.4569,30 / 30,,110,2021-05-20 22:06:59:572
0.871516,0.339987,9.534002,0.470681,0.010375,9.795343,-0.251271,-0.112465,-0.014985,-14.34,-0.9,-41.88,94.0703,-0.1786,-2.454,984.7329,55.855698,37.480846,178.0536,NaN,,0.0049,2.0,85.4569,30 / 30,,119,2021-05-20 22:06:59:581
0.955316,0.402238,9.818921,0.470681,0.010375,9.795343,-0.290978,-0.064818,-0.019871,-14.34,-0.9,-41.88,94.0703,-0.1786,-2.454,984.7329,55.855698,37.480846,178.0536,NaN,,0.0049,2.0,85.4569,30 / 30,,130,2021-05-20 22:06:59:592
1.127703,0.474066,10.127783,0.492986,-0.037811,9.794178,-0.276317,-0.062374,-0.060799,-14.46,-1.14,-42.54,94.0703,-0.1786,-2.454,984.7329,55.855698,37.480846,178.0536,NaN,,0.0049,2.0,85.4569,30 / 30,,140,2021-05-20 22:06:59:602
1.144463,0.553077,10.386364,0.492986,-0.037811,9.794178,-0.276317,-0.062374,-0.060799,-14.46,-1.14,-42.54,94.0703,-0.1786,-2.454,984.7329,55.855698,37.480846,178.0536,NaN,,0.0049,2.0,85.4569,30 / 30,,150,2021-05-20 22:06:59:612
1.144463,0.553077,10.386364,0.505803,-0.090342,9.793181,-0.203624,-0.079478,-0.114556,-14.28,-1.02,-42.3,95.6023,0.2209,-2.8815,984.7329,55.855698,37.480846,178.0536,NaN,,0.0049,2.0,85.4569,30 / 30,,159,2021-05-20 22:06:59:621
1.072635,0.524346,10.314536,0.505803,-0.090342,9.793181,-0.130931,-0.095972,-0.162814,-14.28,-1.02,-42.3,95.6023,0.2209,-2.8815,984.7354,55.855698,37.480846,178.0536,NaN,,0.0049,2.0,85.4569,30 / 30,,169,2021-05-20 22:06:59:631
0.964893,0.529135,10.008069,0.524232,-0.117976,9.791917,-0.09489,-0.09475,-0.193968,-14.76,-1.14,-42.24,95.6023,0.2209,-2.8815,984.7354,55.855698,37.480846,178.0536,NaN,,0.0049,2.0,85.4569,30 / 30,,179,2021-05-20 22:06:59:641
0.842785,0.459701,9.737515,0.524232,-0.117976,9.791917,-0.105275,-0.084976,-0.208018,-14.76,-1.14,-42.24,95.6023,0.2209,-2.8815,984.7354,55.855698,37.480846,178.0536,NaN,,0.0049,2.0,85.4569,30 / 30,,190,2021-05-20 22:06:59:652
0.747014,0.426181,9.929058,0.54248,-0.134202,9.790715,-0.1517,-0.054433,-0.214127,-15.42,-1.08,-42.24,96.7813,0.6893,-3.0645,984.7354,55.855698,37.480846,178.0536,NaN,,0.0049,2.0,85.4569,30 / 30,,199,2021-05-20 22:06:59:661
0.747014,0.426181,9.929058,0.54248,-0.134202,9.790715,-0.198737,-0.006175,-0.211072,-15.42,-1.08,-42.24,96.7813,0.6893,-3.0645,984.7354,55.855698,37.480846,178.0536,NaN,,0.0049,2.0,85.4569,30 / 30,,209,2021-05-20 22:06:59:671
0.689551,0.354353,10.113417,0.548813,-0.166532,9.789865,-0.2079,0.031699,-0.201909,-15.54,-0.72,-42.12,96.7813,0.6893,-3.0645,984.7354,55.855698,37.480846,178.0536,NaN,,0.0049,2.0,85.4569,30 / 30,,219,2021-05-20 22:06:59:681
0.648849,0.260976,10.154119,0.546341,-0.18518,9.789669,-0.192018,0.047582,-0.186638,-15.36,-0.48,-42.12,96.7813,0.6893,-3.0645,984.7354,55.855698,37.480846,178.0536,NaN,,0.0049,2.0,85.4569,30 / 30,,230,2021-05-20 22:06:59:692
0.648849,0.260976,10.154119,0.546341,-0.18518,9.789669,-0.122379,0.019482,-0.178696,-15.36,-0.48,-42.12,96.7813,0.6893,-3.0645,984.7354,55.855698,37.480846,178.0536,NaN,,0.0049,2.0,85.4569,30 / 30,,239,2021-05-20 22:06:59:701
0.718282,0.210696,10.072714,0.539201,-0.21583,9.789436,-0.085727,-0.002509,-0.176864,-15.72,-0.72,-42.48,97.5556,1.082,-3.1942,984.7354,55.855698,37.480846,178.0536,NaN,,0.0049,2.0,85.4569,30 / 30,,249,2021-05-20 22:06:59:711
0.87391,0.155628,9.847652,0.539201,-0.21583,9.789436,-0.085727,-0.002509,-0.176864,-15.72,-0.72,-42.48,97.5556,1.082,-3.1942,984.7354,55.855698,37.480846,178.0536,NaN,,0.0049,2.0,85.4569,30 / 30,,259,2021-05-20 22:06:59:721
1.017567,0.098165,9.761458,0.539932,-0.230866,9.789053,-0.10894,0.012151,-0.185416,-15.6,-0.84,-41.82,97.5556,1.082,-3.1942,984.729,55.855698,37.480846,178.0536,NaN,,0.0049,2.0,85.4569,30 / 30,,270,2021-05-20 22:06:59:732
0.962499,0.05028,9.821315,0.541491,-0.238307,9.788789,-0.10894,0.012151,-0.185416,-15.12,-0.84,-41.52,97.5556,1.082,-3.1942,984.729,55.855698,37.480846,178.0536,NaN,,0.0049,2.0,85.4569,30 / 30,,280,2021-05-20 22:06:59:742
0.962499,0.05028,9.821315,0.541491,-0.238307,9.788789,-0.111994,0.045749,-0.176253,-15.12,-0.84,-41.52,97.5556,1.082,-3.1942,984.729,55.855698,37.480846,178.0536,NaN,,0.0049,2.0,85.4569,30 / 30,,290,2021-05-20 22:06:59:752
0.861939,0.06704,9.768641,0.536318,-0.257267,9.788593,-0.105275,0.064075,-0.151818,-14.76,-0.42,-41.28,94.5646,1.3925,-3.1662,984.729,55.855698,37.480846,178.0536,NaN,,0.0049,2.0,85.4569,30 / 30,,300,2021-05-20 22:06:59:762
0.833208,0.301679,9.407105,0.536318,-0.257267,9.788593,-0.084505,0.063464,-0.127384,-14.76,-0.42,-41.28,94.5646,1.3925,-3.1662,984.729,55.855698,37.480846,178.0536,NaN,,0.0049,2.0,85.4569,30 / 30,,309,2021-05-20 22:06:59:771
1.012778,0.521952,9.043176,0.524972,-0.272391,9.788799,-0.07351,0.040251,-0.112723,-15.42,-0.42,-41.76,94.5646,1.3925,-3.1662,984.729,55.855698,37.480846,178.0536,NaN,,0.0049,2.0,85.4569,30 / 30,,320,2021-05-20 22:06:59:782
1.118126,0.69434,8.904308,0.524972,-0.272391,9.788799,-0.096112,0.017649,-0.119442,-15.42,-0.42,-41.76,94.5646,1.3925,-3.1662,984.729,55.855698,37.480846,178.0536,NaN,,0.0049,2.0,85.4569,30 / 30,,329,2021-05-20 22:06:59:791
1.118126,0.69434,8.904308,0.520893,-0.286616,9.788611,-0.156587,0.01093,-0.13899,-15.54,-0.78,-41.76,99.0573,1.5917,-3.0698,984.729,55.855698,37.480846,178.0536,NaN,,0.0049,2.0,85.4569,30 / 30,,339,2021-05-20 22:06:59:801
1.017567,0.84039,8.877971,0.520893,-0.286616,9.788611,-0.209122,-0.001288,-0.148764,-15.54,-0.78,-41.76,99.0573,1.5917,-3.0698,984.729,55.855698,37.480846,178.0536,NaN,,0.0049,2.0,85.4569,30 / 30,,349,2021-05-20 22:06:59:811
0.905036,0.852362,9.189227,0.521216,-0.315059,9.78772,-0.251882,-0.004342,-0.137158,-15.48,-0.48,-41.82,99.0573,1.5917,-3.0698,984.729,55.855698,37.480846,178.0536,NaN,,0.0049,2.0,85.4569,30 / 30,,360,2021-05-20 22:06:59:822
0.905036,0.852362,9.189227,0.521216,-0.315059,9.78772,-0.287313,-0.018392,-0.127384,-15.48,-0.48,-41.82,99.0573,1.5917,-3.0698,984.729,55.855698,37.480846,178.0536,NaN,,0.0049,2.0,85.4569,30 / 30,,370,2021-05-20 22:06:59:832
1.108549,1.101366,9.246689,0.524588,-0.361133,9.785948,-0.287313,-0.018392,-0.127384,-15.36,-0.18,-41.64,96.1487,1.8411,-3.0482,984.729,55.855698,37.480846,178.0536,NaN,,0.0049,2.0,85.4569,30 / 30,,379,2021-05-20 22:06:59:841
1.225869,1.245023,9.529214,0.524588,-0.361133,9.785948,-0.334349,0.002377,-0.186027,-15.36,-0.18,-41.64,96.1487,1.8411,-3.0482,984.729,55.855698,37.480846,178.0536,NaN,,0.0049,2.0,85.4569,30 / 30,,390,2021-05-20 22:06:59:852
1.247417,1.259389,9.569917,0.530507,-0.418796,9.783331,-0.334349,0.002377,-0.186027,-15.18,-0.18,-41.94,96.1487,1.8411,-3.0482,984.729,55.855698,37.48085,178.0317,NaN,,0.5173,2.0,85.4569,30 / 30,,400,2021-05-20 22:06:59:862
1.082212,1.216292,9.586677,0.530507,-0.418796,9.783331,-0.352675,0.03231,-0.215348,-15.18,-0.18,-41.94,96.1487,1.8411,-3.0482,984.729,55.855698,37.48085,178.0317,NaN,,0.5173,2.0,85.4569,30 / 30,,410,2021-05-20 22:06:59:872
1.082212,1.216292,9.586677,0.529884,-0.481236,9.780492,-0.366114,0.059188,-0.230009,-14.64,0.3,-41.64,98.178,2.4476,-3.1039,984.729,55.855698,37.48085,178.0317,NaN,,0.5173,2.0,85.4569,30 / 30,,420,2021-05-20 22:06:59:882
0.85715,1.029538,9.663293,0.529884,-0.481236,9.780492,-0.355119,0.056134,-0.224511,-14.64,0.3,-41.64,98.178,2.4476,-3.1039,984.729,55.855698,37.48085,178.0317,NaN,,0.5173,2.0,85.4569,30 / 30,,429,2021-05-20 22:06:59:891
0.723071,0.936161,9.778218,0.522064,-0.546372,9.77749,-0.309915,0.043916,-0.20924,-14.76,0.78,-41.1,98.178,2.4476,-3.1039,984.729,55.855698,37.48085,178.0317,NaN,,0.5173,2.0,85.4569,30 / 30,,440,2021-05-20 22:06:59:902
0.682368,0.94095,9.785401,0.522064,-0.546372,9.77749,-0.237832,0.029256,-0.186027,-14.76,0.78,-41.1,98.178,2.4476,-3.1039,984.729,55.855698,37.48085,178.0317,NaN,,0.5173,2.0,85.4569,30 / 30,,449,2021-05-20 22:06:59:911
0.682368,0.94095,9.785401,0.518118,-0.594754,9.774877,-0.163307,0.029866,-0.146931,-15.24,1.26,-41.16,95.9229,3.1939,-3.0564,984.729,55.855698,37.48085,178.0317,NaN,,0.5173,2.0,85.4569,30 / 30,,459,2021-05-20 22:06:59:921
0.84039,0.969681,9.577099,0.518118,-0.594754,9.774877,-0.103442,0.029866,-0.106614,-15.24,1.26,-41.16,95.9229,3.1939,-3.0564,984.7185,55.855698,37.48085,178.0317,NaN,,0.5173,2.0,85.4569,30 / 30,,469,2021-05-20 22:06:59:931
1.05827,1.158829,9.557945,0.51523,-0.617471,9.77362,-0.082673,0.043305,-0.091954,-14.82,1.8,-41.04,95.9229,3.1939,-3.0564,984.7185,55.855698,37.48085,178.0317,NaN,,0.5173,2.0,85.4569,30 / 30,,479,2021-05-20 22:06:59:941
1.240234,1.367131,9.541185,0.51523,-0.617471,9.77362,-0.04541,0.122718,-0.090732,-14.82,1.8,-41.04,95.9229,3.1939,-3.0564,984.7185,55.855698,37.48085,178.0317,NaN,,0.5173,2.0,85.4569,30 / 30,,489,2021-05-20 22:06:59:951
1.18756,1.525153,9.325701,0.503036,-0.62676,9.773664,-0.001428,0.186859,-0.099284,-14.88,1.44,-41.16,97.2441,3.61,-3.0176,984.7185,55.855698,37.48085,178.0317,NaN,,0.5173,2.0,85.4569,30 / 30,,499,2021-05-20 22:06:59:961
1.18756,1.525153,9.325701,0.503036,-0.62676,9.773664,0.066378,0.212515,-0.119442,-14.88,1.44,-41.16,97.2441,3.61,-3.0176,984.7185,55.855698,37.48085,178.0317,NaN,,0.5173,2.0,85.4569,30 / 30,,509,2021-05-20 22:06:59:971
1.017567,1.716695,8.945011,0.467486,-0.618324,9.775967,0.129908,0.189913,-0.141434,-14.82,1.14,-40.86,97.2441,3.61,-3.0176,984.7185,55.855698,37.48085,178.0317,NaN,,0.5173,2.0,85.4569,30 / 30,,519,2021-05-20 22:06:59:981
0.835602,1.783735,8.516436,0.467486,-0.618324,9.775967,0.175112,0.156316,-0.146321,-15.12,1.44,-41.34,97.2441,3.61,-3.0176,984.7185,55.855698,37.48085,178.0317,NaN,,0.5173,2.0,85.4569,30 / 30,,529,2021-05-20 22:06:59:991
0.869122,1.862746,8.066312,0.435904,-0.58408,9.779531,0.171447,0.110501,-0.164647,-15.12,1.44,-41.34,97.2441,3.61,-3.0176,984.7185,55.855698,37.48085,178.0317,NaN,,0.5173,2.0,85.4569,30 / 30,,541,2021-05-20 22:07:00:003
0.936161,1.836409,8.116592,0.426162,-0.563762,9.781153,0.129908,0.099505,-0.175031,-15.0,1.2,-42.3,96.6997,3.4145,-2.5522,984.7185,55.855698,37.48085,178.0317,NaN,,0.5173,2.0,85.4569,30 / 30,,549,2021-05-20 22:07:00:011
0.936161,1.836409,8.116592,0.426162,-0.563762,9.781153,-0.002038,0.137379,-0.191525,-15.0,1.2,-42.3,96.6997,3.4145,-2.5522,984.7185,55.855698,37.48085,178.0317,NaN,,0.5173,2.0,85.4569,30 / 30,,559,2021-05-20 22:07:00:021
1.003201,1.750215,8.442213,0.407999,-0.540701,9.783229,-0.099166,0.197244,-0.212294,-14.94,1.32,-42.0,96.6997,3.4145,-2.5522,984.7219,55.855698,37.48085,178.0317,NaN,,0.5173,2.0,85.4569,30 / 30,,569,2021-05-20 22:07:00:031
0.945739,1.690358,8.952193,0.407999,-0.540701,9.783229,-0.099166,0.197244,-0.212294,-14.94,1.32,-42.0,96.6997,3.4145,-2.5522,984.7219,55.855698,37.48085,178.0317,NaN,,0.5173,2.0,85.4569,30 / 30,,579,2021-05-20 22:07:00:041
0.833208,1.477268,9.282603,0.373496,-0.551917,9.78398,-0.148646,0.252832,-0.232453,-15.06,1.62,-41.28,91.2775,3.1607,-2.3881,984.7219,55.855698,37.48085,178.0317,NaN,,0.5173,2.0,85.4569,30 / 30,,589,2021-05-20 22:07:00:051
0.833208,1.477268,9.282603,0.373496,-0.551917,9.78398,-0.1517,0.261995,-0.247113,-15.06,1.62,-41.28,91.2775,3.1607,-2.3881,984.7219,55.855698,37.48085,178.0317,NaN,,0.5173,2.0,85.4569,30 / 30,,599,2021-05-20 22:07:00:061
0.837996,1.395862,9.371192,0.326737,-0.575108,9.784318,-0.141927,0.238171,-0.2801,-14.34,0.96,-41.7,91.2775,3.1607,-2.3881,984.7219,55.855698,37.48085,178.0317,NaN,,0.5173,2.0,85.4569,30 / 30,,609,2021-05-20 22:07:00:071
0.735042,1.32164,9.538791,0.326737,-0.575108,9.784318,-0.128488,0.220456,-0.311254,-14.34,0.96,-41.7,91.2775,3.1607,-2.3881,984.7219,55.855698,37.48085,178.0317,NaN,,0.5173,2.0,85.4569,30 / 30,,619,2021-05-20 22:07:00:081
0.519558,1.192349,9.510059,0.286697,-0.595346,9.784363,-0.127266,0.204574,-0.324693,-14.34,0.6,-42.3,96.7529,3.362,-1.9126,984.7219,55.855698,37.48085,178.0317,NaN,,0.5173,2.0,85.4569,30 / 30,,629,2021-05-20 22:07:00:091
0.205908,0.885882,9.61062,0.286697,-0.595346,9.784363,-0.15109,0.161813,-0.314308,-14.34,0.6,-42.3,96.7529,3.362,-1.9126,984.7219,55.855698,37.48085,178.0317,NaN,,0.5173,2.0,85.4569,30 / 30,,639,2021-05-20 22:07:00:101
0.205908,0.885882,9.61062,0.255171,-0.615999,9.783957,-0.190796,0.143487,-0.275213,-14.46,0.9,-41.94,96.7529,3.362,-1.9126,984.7219,55.855698,37.48085,178.0317,NaN,,0.5173,2.0,85.4569,30 / 30,,649,2021-05-20 22:07:00:111
0.138868,0.632089,10.039194,0.255171,-0.615999,9.783957,-0.232946,0.155094,-0.226955,-14.46,0.9,-41.94,96.7529,3.362,-1.9126,984.7219,55.855698,37.48085,178.0317,NaN,,0.5173,2.0,85.4569,30 / 30,,660,2021-05-20 22:07:00:122
0.107742,0.411815,10.549175,0.230287,-0.650946,9.782311,-0.262878,0.184415,-0.173199,-14.16,1.38,-41.28,97.0536,3.6014,-1.494,984.7219,55.855698,37.48085,178.0317,NaN,,0.5173,2.0,85.4569,30 / 30,,670,2021-05-20 22:07:00:132
-0.014366,0.198725,11.008876,0.213908,-0.673864,9.781131,-0.265321,0.214348,-0.127384,-14.22,1.2,-41.52,97.0536,3.6014,-1.494,984.7219,55.855698,37.48085,178.0317,NaN,,0.5173,2.0,85.4569,30 / 30,,679,2021-05-20 22:07:00:141
-0.39745,0.009577,11.739129,0.213908,-0.673864,9.781131,-0.188963,0.223511,-0.034532,-14.22,1.2,-41.52,97.0536,3.6014,-1.494,984.7219,55.855698,37.48085,178.0317,NaN,,0.5173,2.0,85.4569,30 / 30,,689,2021-05-20 22:07:00:151
-0.715888,0.06704,12.074327,0.172313,-0.716843,9.778897,-0.063736,0.197244,0.048545,-13.68,0.9,-42.18,97.0536,3.6014,-1.494,984.7219,55.855698,37.48085,178.0317,NaN,,0.5173,2.0,85.4569,30 / 30,,700,2021-05-20 22:07:00:162
-0.715888,0.06704,12.074327,0.172313,-0.716843,9.778897,0.092035,0.108057,0.109632,-13.68,0.9,-42.18,97.0536,3.6014,-1.494,984.7219,55.855698,37.48085,178.0317,NaN,,0.5173,2.0,85.4569,30 / 30,,709,2021-05-20 22:07:00:171
-0.849968,0.612934,11.882786,0.137705,-0.718956,9.77929,0.223371,-0.04527,0.123682,-13.32,1.38,-42.06,99.6716,4.1919,-1.0095,984.7219,55.855698,37.48085,178.0317,NaN,,0.5173,2.0,85.4569,30 / 30,,719,2021-05-20 22:07:00:181
-0.84039,0.945739,11.542799,0.137705,-0.718956,9.77929,0.288123,-0.204095,0.106578,-13.32,1.38,-42.06,99.6716,4.1919,-1.0095,984.7219,55.855698,37.48085,178.0317,NaN,,0.5173,2.0,85.4569,30 / 30,,730,2021-05-20 22:07:00:192
-0.641666,0.699128,11.542799,0.155357,-0.669389,9.782544,0.282014,-0.406291,0.074202,-13.08,1.62,-41.82,99.6716,4.1919,-1.0095,984.7219,55.855698,37.48085,178.0317,NaN,,0.5173,2.0,85.4569,30 / 30,,739,2021-05-20 22:07:00:201
-0.641666,0.699128,11.542799,0.155357,-0.669389,9.782544,0.162895,-0.485093,0.059541,-13.08,1.62,-41.82,99.6716,4.1919,-1.0095,984.7219,55.855698,37.48085,178.0317,NaN,,0.5173,2.0,85.4569,30 / 30,,750,2021-05-20 22:07:00:212
-0.055068,0.069434,12.577126,0.23878,-0.621137,9.784046,0.010179,-0.398961,0.05893,-13.5,1.44,-41.46,97.6826,3.6315,-1.398,984.7219,55.855698,37.48085,178.0317,NaN,,0.5173,2.0,85.4569,30 / 30,,759,2021-05-20 22:07:00:221
0.088588,-0.416604,13.96341,0.23878,-0.621137,9.784046,-0.152311,-0.188212,0.056487,-13.5,1.44,-41.46,97.6826,3.6315,-1.398,984.7319,55.855698,37.48085,178.0317,NaN,,0.5173,2.0,85.4569,30 / 30,,769,2021-05-20 22:07:00:231
-0.392661,-1.055875,15.086326,0.294547,-0.63334,9.781744,-0.185298,0.089731,0.062595,-13.8,0.96,-41.52,97.6826,3.6315,-1.398,984.7319,55.855698,37.48085,178.0317,NaN,,0.5173,2.0,85.4569,30 / 30,,779,2021-05-20 22:07:00:241
-0.392661,-1.055875,15.086326,0.294547,-0.63334,9.781744,0.064546,0.293149,0.121238,-13.8,0.96,-41.52,97.6826,3.6315,-1.398,984.7319,55.855698,37.48085,178.0317,NaN,,0.5173,2.0,85.4569,30 / 30,,789,2021-05-20 22:07:00:251
-0.849968,-1.197137,14.221992,0.257301,-0.654677,9.78139,0.280792,0.206406,0.124293,-13.68,0.72,-41.88,97.7859,3.7029,-1.7248,984.7319,55.855698,37.48085,178.0317,NaN,,0.5173,2.0,85.4569,30 / 30,,800,2021-05-20 22:07:00:262
-0.897853,-1.010384,12.900352,0.257301,-0.654677,9.78139,0.448169,0.04636,0.094971,-13.68,0.72,-41.88,97.7859,3.7029,-1.7248,984.7319,55.855698,37.48085,178.0317,NaN,,0.5173,2.0,85.4569,30 / 30,,809,2021-05-20 22:07:00:271
-0.761379,-0.761379,11.928277,0.21767,-0.598785,9.785932,0.552627,-0.113076,0.018613,-13.68,1.44,-41.7,97.7859,3.7029,-1.7248,984.7319,55.855698,37.48085,178.0317,NaN,,0.5173,2.0,85.4569,30 / 30,,820,2021-05-20 22:07:00:282
-0.814053,-0.641666,11.27464,0.221437,-0.548318,9.788805,0.553238,-0.155837,-0.039419,-13.68,1.44,-41.7,97.7859,3.7029,-1.7248,984.7319,55.855698,37.48085,178.0317,NaN,,0.5173,2.0,85.4569,30 / 30,,829,2021-05-20 22:07:00:291
-0.814053,-0.641666,11.27464,0.221437,-0.548318,9.788805,0.553238,-0.155837,-0.039419,-13.74,0.72,-41.94,95.9816,3.2052,-1.2959,984.7319,55.855698,37.48085,178.0317,NaN,,0.5173,2.0,85.4569,30 / 30,,840,2021-05-20 22:07:00:302
-0.885882,-0.739831,10.79818,0.24897,-0.441274,9.793552,0.46283,-0.143008,-0.085845,-13.74,0.72,-41.94,95.9816,3.2052,-1.2959,984.7319,55.855698,37.48085,178.0317,NaN,,0.5173,2.0,85.4569,30 / 30,,849,2021-05-20 22:07:00:311
-1.055875,-0.809265,10.668888,0.24897,-0.441274,9.793552,0.347987,-0.107578,-0.108447,-14.1,0.0,-41.58,95.9816,3.2052,-1.2959,984.7319,55.855698,37.48085,178.0317,NaN,,0.5173,2.0,85.4569,30 / 30,,860,2021-05-20 22:07:00:322
-1.194743,-0.945739,10.312141,0.272658,-0.362402,9.796158,0.27896,-0.031831,-0.063854,-14.1,0.0,-41.58,95.9816,3.2052,-1.2959,984.7344,55.855698,37.48085,178.0317,NaN,,0.5173,2.0,85.4569,30 / 30,,869,2021-05-20 22:07:00:331
-1.194743,-0.945739,10.312141,0.272658,-0.362402,9.796158,0.214208,0.072627,0.00212,-13.86,-0.36,-42.18,96.9606,2.1178,-1.5943,984.7344,55.855698,37.48085,178.0317,NaN,,0.5173,2.0,85.4569,30 / 30,,879,2021-05-20 22:07:00:341
-1.122915,-1.125309,9.598648,0.274306,-0.308788,9.797949,0.134795,0.164257,0.099858,-13.86,-0.36,-42.18,96.9606,2.1178,-1.5943,984.7344,55.855698,37.48085,178.0317,NaN,,0.5173,2.0,85.4569,30 / 30,,889,2021-05-20 22:07:00:351
-0.861939,-1.201926,8.7822,0.274306,-0.308788,9.797949,0.134795,0.164257,0.099858,-13.86,-1.02,-42.54,96.9606,2.1178,-1.5943,984.7344,55.855698,37.48085,178.0317,NaN,,0.5173,2.0,85.4569,30 / 30,,899,2021-05-20 22:07:00:361
-0.292102,-1.379102,7.752662,0.242523,-0.282864,9.799569,-0.035636,0.057355,0.228751,-13.86,-1.02,-42.54,96.9606,2.1178,-1.5943,984.7344,55.855698,37.48085,178.0317,NaN,,0.5173,2.0,85.4569,30 / 30,,910,2021-05-20 22:07:00:372
0.181965,-1.137281,7.905895,0.242523,-0.282864,9.799569,-0.035636,0.057355,0.228751,-14.34,-0.54,-41.82,99.7255,1.6529,-1.4177,984.7344,55.855698,37.48085,178.0317,NaN,,0.5173,2.0,85.4569,30 / 30,,919,2021-05-20 22:07:00:381
0.454912,-0.596174,8.593052,0.225455,-0.28975,9.799775,-0.119935,0.045749,0.262348,-14.34,-0.54,-41.82,99.7255,1.6529,-1.4177,984.7344,55.855698,37.48085,178.0317,NaN,,0.5173,2.0,85.4569,30 / 30,,929,2021-05-20 22:07:00:391
0.454912,-0.596174,8.593052,0.225455,-0.28975,9.799775,-0.082673,0.129437,0.244633,-14.04,-0.54,-41.88,99.7255,1.6529,-1.4177,984.7344,55.855698,37.48085,178.0317,NaN,,0.5173,2.0,85.4569,30 / 30,,939,2021-05-20 22:07:00:401
0.22985,-0.265764,8.406299,0.204982,-0.311811,9.799548,0.01079,0.177696,0.229362,-14.04,-0.54,-41.88,99.7255,1.6529,-1.4177,984.7344,55.855698,37.48085,178.0317,NaN,,0.5173,2.0,85.4569,30 / 30,,949,2021-05-20 22:07:00:411
-0.143656,-0.059857,7.525206,0.204982,-0.311811,9.799548,0.114026,0.150818,0.232416,-13.44,-0.6,-42.24,100.9436,1.8221,-1.1983,984.7344,55.855698,37.48085,178.0317,NaN,,0.5173,2.0,85.4569,30 / 30,,959,2021-05-20 22:07:00:421
-0.349564,0.344776,6.909878,0.170465,-0.301343,9.800537,0.177556,0.083012,0.223253,-13.44,-0.6,-42.24,100.9436,1.8221,-1.1983,984.731,55.855698,37.48085,178.0317,NaN,,0.5173,2.0,85.4569,30 / 30,,969,2021-05-20 22:07:00:431
-0.565049,0.541106,6.354406,0.170465,-0.301343,9.800537,0.209321,0.029256,0.217144,-13.2,-0.3,-42.48,100.9436,1.8221,-1.1983,984.731,55.855698,37.48085,178.0317,NaN,,0.5173,2.0,85.4569,30 / 30,,980,2021-05-20 22:07:00:442
-0.565049,0.541106,6.354406,0.156433,-0.265416,9.801809,0.203823,-0.046492,0.212257,-13.2,-0.3,-42.48,100.9436,1.8221,-1.1983,984.731,55.855698,37.48085,178.0317,NaN,,0.5173,2.0,85.4569,30 / 30,,989,2021-05-20 22:07:00:451
-0.668003,0.651243,6.119766,0.156433,-0.265416,9.801809,0.140293,-0.132624,0.203094,-13.86,-0.18,-41.58,94.9001,1.5509,-0.9143,984.731,55.855698,37.48085,178.0317,NaN,,0.5173,2.0,85.4569,30 / 30,,1000,2021-05-20 22:07:00:462
-0.720677,0.648849,6.56989,0.170394,-0.230788,9.802453,0.08837,-0.152782,0.200651,-13.86,-0.18,-41.58,94.9001,1.5509,-0.9143,984.731,55.855698,37.48085,178.0317,NaN,,0.5173,2.0,85.4569,30 / 30,,1009,2021-05-20 22:07:00:471
-0.72786,0.579415,7.24747,0.170394,-0.230788,9.802453,0.066378,-0.141176,0.204927,-14.22,-0.24,-40.98,94.9001,1.5509,-0.9143,984.731,55.855698,37.48085,178.0317,NaN,,0.5173,2.0,85.4569,30 / 30,,1019,2021-05-20 22:07:00:481
-0.656031,0.450124,7.446195,0.196641,-0.21461,9.802329,0.063324,-0.095361,0.220199,-14.22,-0.24,-40.98,94.9001,1.5509,-0.9143,984.731,55.855698,37.48085,178.0317,NaN,,0.5173,2.0,85.4569,30 / 30,,1029,2021-05-20 22:07:00:491
-0.656031,0.450124,7.446195,0.196641,-0.21461,9.802329,0.072487,-0.084976,0.23547,-13.5,-0.42,-41.28,94.2407,1.254,-1.1492,984.731,55.855698,37.48085,178.0317,NaN,,0.5173,2.0,85.4569,30 / 30,,1039,2021-05-20 22:07:00:501
-0.529135,0.390267,7.640131,0.21192,-0.201926,9.80228,0.099365,-0.104524,0.237303,-13.44,-0.72,-41.82,94.2407,1.254,-1.1492,984.731,55.855698,37.48085,178.0317,NaN,,0.5173,2.0,85.4569,30 / 30,,1050,2021-05-20 22:07:00:512
-0.306467,0.435758,7.783788,0.21192,-0.201926,9.80228,0.132963,-0.135067,0.222031,-13.44,-0.72,-41.82,94.2407,1.254,-1.1492,984.731,55.855698,37.48085,178.0317,NaN,,0.5173,2.0,85.4569,30 / 30,,1060,2021-05-20 22:07:00:522
-0.112531,0.567443,7.848433,0.230371,-0.181631,9.802261,0.156787,-0.172941,0.195153,-13.08,-0.48,-41.4,94.2407,1.254,-1.1492,984.7302,55.855698,37.48085,178.0317,NaN,,0.5173,2.0,85.4569,30 / 30,,1069,2021-05-20 22:07:00:531
0.088588,0.632089,7.90829,0.230371,-0.181631,9.802261,0.160452,-0.202262,0.154225,-13.08,-0.48,-41.4,94.2407,1.254,-1.1492,984.7302,55.855698,37.48085,178.0317,NaN,,0.5173,2.0,85.4569,30 / 30,,1080,2021-05-20 22:07:00:542
0.088588,0.632089,7.90829,0.263047,-0.150738,9.801963,0.13113,-0.216312,0.089473,-13.8,-0.06,-41.76,93.4477,1.0613,-1.3463,984.7302,55.855698,37.48085,178.0317,NaN,,0.5173,2.0,85.4569,30 / 30,,1089,2021-05-20 22:07:00:551
0.167599,0.780534,8.085467,0.263047,-0.150738,9.801963,0.082261,-0.221199,0.028387,-13.8,-0.06,-41.76,93.4477,1.0613,-1.3463,984.7302,55.855698,37.48085,178.0317,NaN,,0.5173,2.0,85.4569,30 / 30,,1099,2021-05-20 22:07:00:561
-0.074223,0.758985,8.394327,0.303546,-0.124422,9.801162,0.027283,-0.238303,-0.022926,-14.04,-0.24,-42.24,93.4477,1.0613,-1.3463,984.7302,55.855698,37.48085,178.0317,NaN,,0.5173,2.0,85.4569,30 / 30,,1110,2021-05-20 22:07:00:572
-0.342381,0.663214,8.882759,0.303546,-0.124422,9.801162,-0.049075,-0.315883,-0.055302,-14.04,-0.24,-42.24,93.4477,1.0613,-1.3463,984.7302,55.855698,37.48085,178.0317,NaN,,0.5173,2.0,85.4569,30 / 30,,1119,2021-05-20 22:07:00:581
-0.342381,0.663214,8.882759,0.351394,-0.118846,9.799632,-0.107107,-0.383689,-0.074849,-14.76,-0.84,-42.66,96.4775,0.727,-1.7739,984.7302,55.855698,37.48085,178.0317,NaN,,0.5173,2.0,85.4569,30 / 30,,1130,2021-05-20 22:07:00:592
-0.445335,0.598569,10.180456,0.351394,-0.118846,9.799632,-0.126655,-0.380635,-0.077293,-14.76,-0.84,-42.66,96.4775,0.727,-1.7739,984.7302,55.855698,37.48085,178.0317,NaN,,0.5173,2.0,85.4569,30 / 30,,1141,2021-05-20 22:07:00:603
-0.373507,0.385478,11.449422,0.422354,-0.134989,9.796621,-0.126655,-0.380635,-0.077293,-14.76,-0.66,-42.48,96.4775,0.727,-1.7739,984.7302,55.855698,37.48085,178.0317,NaN,,0.5173,2.0,85.4569,30 / 30,,1150,2021-05-20 22:07:00:612
-0.373507,0.385478,11.449422,0.422354,-0.134989,9.796621,-0.115659,-0.295114,-0.06141,-14.76,-0.66,-42.48,96.4775,0.727,-1.7739,984.7302,55.855698,37.48085,178.0317,NaN,,0.5173,2.0,85.4569,30 / 30,,1159,2021-05-20 22:07:00:621
-0.062251,0.24661,12.162916,0.484465,-0.156665,9.793423,-0.111383,-0.213258,-0.062632,-14.28,-0.42,-41.82,92.7544,0.7887,-2.4686,984.7263,55.855698,37.48085,178.0317,NaN,,0.5173,2.0,85.4569,30 / 30,,1169,2021-05-20 22:07:00:631
0.41421,-0.244216,12.033626,0.484465,-0.156665,9.793423,-0.234167,-0.19371,-0.092564,-14.28,-0.42,-41.82,92.7544,0.7887,-2.4686,984.7263,55.855698,37.48085,178.0317,NaN,,0.5173,2.0,85.4569,30 / 30,,1180,2021-05-20 22:07:00:642
0.696734,-0.514769,12.474172,0.517998,-0.182775,9.791254,-0.234167,-0.19371,-0.092564,-14.94,-0.48,-41.7,92.7544,0.7887,-2.4686,984.7263,55.855698,37.48085,178.0317,NaN,,0.5173,2.0,85.4569,30 / 30,,1189,2021-05-20 22:07:00:651
0.751802,-0.665608,13.53723,0.517998,-0.182775,9.791254,-0.32091,-0.210814,-0.120664,-14.94,-0.48,-41.7,92.7544,0.7887,-2.4686,984.7263,55.855698,37.48085,178.0317,NaN,,0.5173,2.0,85.4569,30 / 30,,1199,2021-05-20 22:07:00:661
0.751802,-0.665608,13.53723,0.557764,-0.237248,9.787901,-0.303195,-0.165,-0.126773,-14.82,-0.36,-41.52,93.5717,1.0679,-3.0284,984.7263,55.855698,37.48085,178.0317,NaN,,0.5173,2.0,85.4569,30 / 30,,1210,2021-05-20 22:07:00:672
0.28013,-0.337593,14.205233,0.557764,-0.237248,9.787901,-0.182855,-0.113687,-0.108447,-14.82,-0.36,-41.52,93.5717,1.0679,-3.0284,984.7263,55.855698,37.48085,178.0317,NaN,,0.5173,2.0,85.4569,30 / 30,,1219,2021-05-20 22:07:00:681
0.181965,0.29689,13.10626,0.584857,-0.283014,9.785103,-0.034414,-0.155226,-0.098062,-15.3,-0.6,-41.52,93.5717,1.0679,-3.0284,984.7263,55.855698,37.48085,178.0317,NaN,,0.5173,2.0,85.4569,30 / 30,,1229,2021-05-20 22:07:00:691
0.507586,0.311256,12.045596,0.584857,-0.283014,9.785103,0.042555,-0.32077,-0.129216,-15.3,-0.6,-41.52,93.5717,1.0679,-3.0284,984.7263,55.855698,37.48085,178.0317,NaN,,0.5173,2.0,85.4569,30 / 30,,1240,2021-05-20 22:07:00:702
0.507586,0.311256,12.045596,0.631178,-0.280308,9.782302,0.007125,-0.507084,-0.170755,-15.9,-1.14,-42.0,99.4325,1.6538,-3.4205,984.7263,55.855698,37.48085,178.0317,NaN,,0.5173,2.0,85.4569,30 / 30,,1249,2021-05-20 22:07:00:711
1.213897,0.093377,12.155733,0.631178,-0.280308,9.782302,-0.204846,-0.559619,-0.241616,-15.9,-1.14,-42.0,99.4325,1.6538,-3.4205,984.7263,55.855698,37.48085,178.0317,NaN,,0.5173,2.0,85.4569,30 / 30,,1260,2021-05-20 22:07:00:722
1.592193,-0.775745,13.472585,0.736388,-0.293392,9.774561,-0.397879,-0.39835,-0.288041,-16.2,-1.14,-41.4,99.4325,1.6538,-3.4205,984.7285,55.855698,37.48085,178.0317,NaN,,0.5173,2.0,85.4569,30 / 30,,1269,2021-05-20 22:07:00:731
1.441354,-2.121327,14.447054,0.736388,-0.293392,9.774561,-0.513333,-0.117352,-0.264828,-16.2,-1.14,-41.4,99.4325,1.6538,-3.4205,984.7285,55.855698,37.48085,178.0317,NaN,,0.5173,2.0,85.4569,30 / 30,,1280,2021-05-20 22:07:00:742
1.441354,-2.121327,14.447054,0.79426,-0.374443,9.767258,-0.512111,0.202741,-0.140212,-16.32,-1.02,-40.44,99.7657,1.7144,-4.3084,984.7285,55.855698,37.48085,178.0317,NaN,,0.5173,2.0,85.4569,30 / 30,,1289,2021-05-20 22:07:00:751
1.513182,-3.301705,14.966612,0.79426,-0.374443,9.767258,-0.388716,0.35729,-0.048582,-16.32,-1.02,-40.44,99.7657,1.7144,-4.3084,984.7285,55.855698,37.48085,178.0317,NaN,,0.5173,2.0,85.4569,30 / 30,,1299,2021-05-20 22:07:00:761
1.472479,-3.112557,14.648173,0.746147,-0.462925,9.76726,0.064546,0.479463,0.098636,-16.5,-0.6,-40.56,99.7657,1.7144,-4.3084,984.7285,55.855698,37.48085,178.0317,NaN,,0.5173,2.0,85.4569,30 / 30,,1309,2021-05-20 22:07:00:771
1.936968,-2.197944,12.94345,0.746147,-0.462925,9.76726,0.475047,0.418988,0.119406,-16.5,-0.6,-40.56,99.7657,1.7144,-4.3084,984.7285,55.855698,37.48085,178.0317,NaN,,0.5173,2.0,85.4569,30 / 30,,1320,2021-05-20 22:07:00:782
2.063865,-1.371919,10.850853,0.656247,-0.433549,9.775058,0.878218,0.240615,0.060152,-16.56,0.6,-40.98,94.1035,2.7057,-4.3685,984.7285,55.855698,37.48085,178.0317,NaN,,0.5173,2.0,85.4569,30 / 30,,1329,2021-05-20 22:07:00:791
2.063865,-1.371919,10.850853,0.656247,-0.433549,9.775058,1.170823,-0.034274,-0.072406,-16.56,0.6,-40.98,94.1035,2.7057,-4.3685,984.7285,55.855698,37.48085,178.0317,NaN,,0.5173,2.0,85.4569,30 / 30,,1339,2021-05-20 22:07:00:801
1.83162,-0.392661,8.075889,0.623842,-0.249359,9.78361,1.132338,-0.221199,-0.170144,-16.14,0.66,-41.28,94.1035,2.7057,-4.3685,984.7285,55.855698,37.48085,178.0317,NaN,,0.5173,2.0,85.4569,30 / 30,,1349,2021-05-20 22:07:00:811
1.908237,-0.035914,6.747067,0.623842,-0.249359,9.78361,0.884938,-0.310996,-0.243448,-16.14,0.66,-41.28,94.1035,2.7057,-4.3685,984.7285,55.855698,37.48085,178.0317,NaN,,0.5173,2.0,85.4569,30 / 30,,1359,2021-05-20 22:07:00:821
2.039922,0.045491,6.663267,0.666039,-0.02875,9.783964,0.488486,-0.265181,-0.297204,-15.96,-0.48,-41.4,94.5638,1.457,-3.6485,984.729,55.855698,37.48085,178.0317,NaN,,0.5173,2.0,85.4569,30 / 30,,1370,2021-05-20 22:07:00:832
2.039922,0.045491,6.663267,0.666039,-0.02875,9.783964,0.160452,-0.118574,-0.310032,-15.96,-0.48,-41.4,94.5638,1.457,-3.6485,984.729,55.855698,37.48085,178.0317,NaN,,0.5173,2.0,85.4569,30 / 30,,1379,2021-05-20 22:07:00:841
2.183579,-0.234639,7.750268,0.718085,0.077939,9.780013,-0.373445,0.271769,-0.312476,-16.38,-1.26,-41.16,94.5638,1.457,-3.6485,984.729,55.855698,37.480854,178.0525,NaN,,0.4744,3.0,72.1728,30 / 30,,1390,2021-05-20 22:07:00:852
2.185973,-0.600963,8.988108,0.718085,0.077939,9.780013,-0.373445,0.271769,-0.312476,-16.38,-1.26,-41.16,94.5638,1.457,-3.6485,984.729,55.855698,37.480854,178.0525,NaN,,0.4744,3.0,72.1728,30 / 30,,1399,2021-05-20 22:07:00:861
2.039922,-0.933767,10.178062,0.686316,0.031668,9.782554,-0.494396,0.477631,-0.310643,-16.38,-1.98,-41.64,97.3331,-0.4554,-4.1993,984.729,55.855698,37.480854,178.0525,NaN,,0.4744,3.0,72.1728,30 / 30,,1409,2021-05-20 22:07:00:871
1.810072,-0.897853,10.585089,0.686316,0.031668,9.782554,-0.311136,0.521613,-0.313087,-16.38,-1.98,-41.64,97.3331,-0.4554,-4.1993,984.729,55.855698,37.480854,178.0525,NaN,,0.4744,3.0,72.1728,30 / 30,,1419,2021-05-20 22:07:00:881
1.810072,-0.897853,10.585089,0.597276,-0.059684,9.788263,-0.311136,0.521613,-0.313087,-15.36,-1.62,-42.0,97.3331,-0.4554,-4.1993,984.729,55.855698,37.480854,178.0525,NaN,,0.4744,3.0,72.1728,30 / 30,,1429,2021-05-20 22:07:00:891
1.726272,-0.725465,10.034406,0.597276,-0.059684,9.788263,-0.086338,0.481907,-0.341797,-15.36,-1.62,-42.0,97.3331,-0.4554,-4.1993,984.729,55.855698,37.480854,178.0525,NaN,,0.4744,3.0,72.1728,30 / 30,,1439,2021-05-20 22:07:00:901
1.381497,-0.191542,8.786988,0.50417,-0.085309,9.79331,0.164117,0.393331,-0.390667,-14.88,-0.96,-41.22,95.7429,0.3487,-3.4918,984.729,55.855698,37.480854,178.0525,NaN,,0.4744,3.0,72.1728,30 / 30,,1449,2021-05-20 22:07:00:911
1.381497,-0.191542,8.786988,0.50417,-0.085309,9.79331,0.372422,0.243058,-0.451753,-14.88,-0.96,-41.22,95.7429,0.3487,-3.4918,984.729,55.855698,37.480854,178.0525,NaN,,0.4744,3.0,72.1728,30 / 30,,1459,2021-05-20 22:07:00:921
1.094184,0.086194,7.659285,0.449164,-0.023073,9.796331,0.459165,0.167922,-0.487794,-14.76,-1.8,-41.34,95.7429,0.3487,-3.4918,984.7378,55.855698,37.480854,178.0525,NaN,,0.4744,3.0,72.1728,30 / 30,,1469,2021-05-20 22:07:00:931
0.713494,0.332804,6.493274,0.449164,-0.023073,9.796331,0.47688,0.113555,-0.515894,-14.76,-1.8,-41.34,95.7429,0.3487,-3.4918,984.7378,55.855698,37.480854,178.0525,NaN,,0.4744,3.0,72.1728,30 / 30,,1479,2021-05-20 22:07:00:941
0.493221,0.438152,5.90907,0.426525,0.073783,9.797092,0.395024,0.11722,-0.513451,-15.24,-1.92,-41.94,97.2727,-0.4311,-2.4928,984.7378,55.855698,37.480854,178.0525,NaN,,0.4744,3.0,72.1728,30 / 30,,1489,2021-05-20 22:07:00:951
0.36393,0.471672,5.765414,0.426525,0.073783,9.797092,0.255136,0.159981,-0.491459,-15.24,-1.92,-41.94,97.2727,-0.4311,-2.4928,984.7378,55.855698,37.480854,178.0525,NaN,,0.4744,3.0,72.1728,30 / 30,,1499,2021-05-20 22:07:00:961
0.36393,0.471672,5.765414,0.398463,0.134321,9.797631,0.112193,0.225954,-0.454807,-15.0,-2.16,-42.18,97.2727,-0.4311,-2.4928,984.7378,55.855698,37.480854,178.0525,NaN,,0.4744,3.0,72.1728,30 / 30,,1509,2021-05-20 22:07:00:971
0.308861,0.555472,5.854002,0.398463,0.134321,9.797631,0.003459,0.287041,-0.417545,-15.0,-2.16,-42.18,97.2727,-0.4311,-2.4928,984.7378,55.855698,37.480854,178.0525,NaN,,0.4744,3.0,72.1728,30 / 30,,1519,2021-05-20 22:07:00:981
0.373507,0.658426,6.268212,0.344664,0.1415,9.79957,-0.08756,0.327969,-0.382115,-14.34,-3.06,-42.48,101.1339,-0.7848,-2.3289,984.7378,55.855698,37.480854,178.0525,NaN,,0.4744,3.0,72.1728,30 / 30,,1529,2021-05-20 22:07:00:991
0.385478,0.912219,6.512428,0.344664,0.1415,9.79957,-0.090614,0.330412,-0.362567,-14.34,-3.06,-42.48,101.1339,-0.7848,-2.3289,984.7378,55.855698,37.480854,178.0525,NaN,,0.4744,3.0,72.1728,30 / 30,,1539,2021-05-20 22:07:01:001
0.38069,0.993624,6.615381,0.280374,0.126114,9.80183,-0.046632,0.282765,-0.361345,-14.52,-3.3,-42.42,101.1339,-0.7848,-2.3289,984.7378,55.855698,37.480854,178.0525,NaN,,0.4744,3.0,72.1728,30 / 30,,1549,2021-05-20 22:07:01:011
0.38069,0.993624,6.615381,0.280374,0.126114,9.80183,0.008957,0.211293,-0.354626,-14.52,-3.3,-42.42,101.1339,-0.7848,-2.3289,984.7378,55.855698,37.480854,178.0525,NaN,,0.4744,3.0,72.1728,30 / 30,,1559,2021-05-20 22:07:01:021
0.507586,1.194743,6.711152,0.233876,0.126805,9.803041,0.051107,0.150818,-0.35035,-14.04,-3.48,-42.48,100.8615,-0.7368,-1.6385,984.7402,55.855698,37.480854,178.0525,NaN,,0.4744,3.0,72.1728,30 / 30,,1569,2021-05-20 22:07:01:031
0.584203,1.410228,6.864386,0.233876,0.126805,9.803041,0.065157,0.119053,-0.354626,-14.04,-3.48,-42.48,100.8615,-0.7368,-1.6385,984.7402,55.855698,37.480854,178.0525,NaN,,0.4744,3.0,72.1728,30 / 30,,1579,2021-05-20 22:07:01:041
0.708705,1.51797,7.087054,0.208479,0.142227,9.803402,0.03889,0.115998,-0.347295,-13.92,-3.24,-42.6,100.8615,-0.7368,-1.6385,984.7402,55.855698,37.480854,178.0525,NaN,,0.4744,3.0,72.1728,30 / 30,,1589,2021-05-20 22:07:01:051
0.756591,1.757398,7.534783,0.208479,0.142227,9.803402,-0.00998,0.130659,-0.335078,-13.92,-3.24,-42.6,100.8615,-0.7368,-1.6385,984.7402,55.855698,37.480854,178.0525,NaN,,0.4744,3.0,72.1728,30 / 30,,1599,2021-05-20 22:07:01:061
0.756591,1.757398,7.534783,0.184719,0.148702,9.803782,-0.05946,0.128216,-0.316752,-14.34,-3.24,-42.72,100.2761,-0.831,-1.2183,984.7402,55.855698,37.480854,178.0525,NaN,,0.4744,3.0,72.1728,30 / 30,,1609,2021-05-20 22:07:01:071
0.835602,1.905843,8.063917,0.184719,0.148702,9.803782,-0.074731,0.121496,-0.303313,-14.34,-3.24,-42.72,100.2761,-0.831,-1.2183,984.7402,55.855698,37.480854,178.0525,NaN,,0.4744,3.0,72.1728,30 / 30,,1619,2021-05-20 22:07:01:081
0.933767,1.980065,8.681641,0.160069,0.140117,9.804342,-0.063736,0.084844,-0.306367,-14.28,-3.78,-43.32,100.2761,-0.831,-1.2183,984.7402,55.855698,37.480854,178.0525,NaN,,0.4744,3.0,72.1728,30 / 30,,1630,2021-05-20 22:07:01:092
0.811659,1.963305,9.28021,0.160069,0.140117,9.804342,-0.036858,0.039029,-0.3082,-14.28,-3.78,-43.32,100.2761,-0.831,-1.2183,984.7402,55.855698,37.480854,178.0525,NaN,,0.4744,3.0,72.1728,30 / 30,,1639,2021-05-20 22:07:01:101
0.739831,1.805283,10.257073,0.145033,0.132396,9.804684,0.023618,-0.006785,-0.304535,-14.22,-3.66,-43.02,104.2711,-0.8187,-0.9353,984.7402,55.855698,37.480854,178.0525,NaN,,0.4744,3.0,72.1728,30 / 30,,1649,2021-05-20 22:07:01:111
0.66082,1.795706,10.91071,0.145033,0.132396,9.804684,0.096311,-0.008007,-0.299037,-14.22,-3.66,-43.02,104.2711,-0.8187,-0.9353,984.7402,55.855698,37.480854,178.0525,NaN,,0.4744,3.0,72.1728,30 / 30,,1659,2021-05-20 22:07:01:121
0.66082,1.795706,10.91071,0.145799,0.142946,9.804524,0.146402,0.010319,-0.310032,-13.86,-3.48,-42.42,104.2711,-0.8187,-0.9353,984.7415,55.855698,37.480854,178.0525,NaN,,0.4744,3.0,72.1728,30 / 30,,1669,2021-05-20 22:07:01:131
0.581809,1.872323,11.372806,0.145799,0.142946,9.804524,0.190384,0.075681,-0.332634,-13.86,-3.48,-42.42,104.2711,-0.8187,-0.9353,984.7415,55.855698,37.480854,178.0525,NaN,,0.4744,3.0,72.1728,30 / 30,,1680,2021-05-20 22:07:01:142
0.301679,1.647261,11.597867,0.142574,0.176802,9.80402,0.162284,0.158759,-0.338132,-13.62,-3.66,-42.54,104.1575,-0.8352,-0.852,984.7415,55.855698,37.480854,178.0525,NaN,,0.4744,3.0,72.1728,30 / 30,,1689,2021-05-20 22:07:01:151
-0.126897,1.482056,11.418297,0.142574,0.176802,9.80402,0.162284,0.158759,-0.338132,-13.62,-3.66,-42.54,104.1575,-0.8352,-0.852,984.7415,55.855698,37.480854,178.0525,NaN,,0.4744,3.0,72.1728,30 / 30,,1699,2021-05-20 22:07:01:161
-0.507586,1.010384,11.777438,0.11615,0.215073,9.803603,0.076763,0.202741,-0.309422,-13.62,-3.54,-42.9,104.1575,-0.8352,-0.852,984.7415,55.855698,37.480854,178.0525,NaN,,0.4744,3.0,72.1728,30 / 30,,1709,2021-05-20 22:07:01:171
-0.507586,1.010384,11.777438,0.11615,0.215073,9.803603,-0.018532,0.264439,-0.238561,-13.62,-3.54,-42.9,104.1575,-0.8352,-0.852,984.7415,55.855698,37.480854,178.0525,NaN,,0.4744,3.0,72.1728,30 / 30,,1719,2021-05-20 22:07:01:181
-0.768562,0.59378,12.347275,0.067585,0.22001,9.803949,-0.107107,0.338353,-0.118221,-13.98,-3.42,-43.02,98.6521,-1.2567,-0.6788,984.7415,55.855698,37.480854,178.0525,NaN,,0.4744,3.0,72.1728,30 / 30,,1729,2021-05-20 22:07:01:191
-1.149252,0.629694,12.988941,0.067585,0.22001,9.803949,-0.128488,0.386612,-0.017428,-13.98,-3.42,-43.02,98.6521,-1.2567,-0.6788,984.7415,55.855698,37.480854,178.0525,NaN,,0.4744,3.0,72.1728,30 / 30,,1740,2021-05-20 22:07:01:202
-1.350371,0.806871,13.094289,-0.00388,0.198804,9.804634,-0.093668,0.405549,0.060152,-13.62,-3.66,-42.9,98.6521,-1.2567,-0.6788,984.7415,55.855698,37.480854,178.0525,NaN,,0.4744,3.0,72.1728,30 / 30,,1750,2021-05-20 22:07:01:212
-1.003201,0.569837,12.268264,-0.00388,0.198804,9.804634,-0.102831,0.287041,0.103523,-13.62,-3.66,-42.9,98.6521,-1.2567,-0.6788,984.7415,55.855698,37.480854,178.0525,NaN,,0.4744,3.0,72.1728,30 / 30,,1759,2021-05-20 22:07:01:221
-0.509981,-0.172388,12.376006,-0.076208,0.182418,9.804658,-0.226226,0.06774,0.097415,-13.2,-4.02,-43.08,103.5103,-1.1616,0.0227,984.7419,55.855698,37.480854,178.0525,NaN,,0.4744,3.0,72.1728,30 / 30,,1769,2021-05-20 22:07:01:231
-0.509981,-0.172388,12.376006,-0.076208,0.182418,9.804658,-0.414983,-0.125904,0.091917,-13.2,-4.02,-43.08,103.5103,-1.1616,0.0227,984.7419,55.855698,37.480854,178.0525,NaN,,0.4744,3.0,72.1728,30 / 30,,1779,2021-05-20 22:07:01:241
0.191542,-1.058269,14.08073,-0.08135,0.132146,9.805423,-0.465074,-0.034885,0.111465,-13.02,-4.02,-43.08,103.5103,-1.1616,0.0227,984.7419,55.855698,37.480854,178.0525,NaN,,0.4744,3.0,72.1728,30 / 30,,1789,2021-05-20 22:07:01:251
0.399844,-1.850774,16.518103,-0.070413,0.086126,9.80602,-0.214009,0.293149,0.169497,-12.78,-4.02,-42.96,103.5103,-1.1616,0.0227,984.7419,55.855698,37.480854,178.0525,NaN,,0.4744,3.0,72.1728,30 / 30,,1799,2021-05-20 22:07:01:261
-0.33041,-2.133299,16.939495,-0.070413,0.086126,9.80602,0.238032,0.608356,0.245244,-12.78,-4.02,-42.96,103.5103,-1.1616,0.0227,984.7419,55.855698,37.480854,178.0525,NaN,,0.4744,3.0,72.1728,30 / 30,,1809,2021-05-20 22:07:01:271
-1.264177,-1.968094,13.498921,-0.120444,0.041484,9.805823,0.691294,0.720144,0.347869,-13.14,-4.14,-42.36,105.272,-0.5032,0.4114,984.7419,55.855698,37.480854,178.0525,NaN,,0.4744,3.0,72.1728,30 / 30,,1819,2021-05-20 22:07:01:281
-1.264177,-1.968094,13.498921,-0.120444,0.041484,9.805823,1.01383,0.649284,0.44011,-13.14,-4.14,-42.36,105.272,-0.5032,0.4114,984.7419,55.855698,37.480854,178.0525,NaN,,0.4744,3.0,72.1728,30 / 30,,1830,2021-05-20 22:07:01:292
-1.522759,-1.043904,10.225947,-0.257322,0.16383,9.801905,1.196479,0.471522,0.446219,-13.44,-4.32,-41.94,105.272,-0.5032,0.4114,984.7419,55.855698,37.480854,178.0525,NaN,,0.4744,3.0,72.1728,30 / 30,,1840,2021-05-20 22:07:01:302
-1.78134,-0.256187,7.989695,-0.314178,0.272673,9.797823,1.173266,0.2229,0.408956,-12.9,-4.32,-42.12,105.272,-0.5032,0.4114,984.7419,55.855698,37.480854,178.0525,NaN,,0.4744,3.0,72.1728,30 / 30,,1850,2021-05-20 22:07:01:312
-1.917814,0.435758,5.023189,-0.314178,0.272673,9.797823,0.876997,-0.091085,0.344204,-12.9,-4.32,-42.12,105.272,-0.5032,0.4114,984.7419,55.855698,37.480854,178.0525,NaN,,0.4744,3.0,72.1728,30 / 30,,1859,2021-05-20 22:07:01:321
-1.640078,0.818842,4.829252,-0.361334,0.499402,9.787258,0.415183,-0.349481,0.261737,-12.24,-4.68,-42.42,106.0651,-1.5933,1.8366,984.7451,55.855698,37.480854,178.0525,NaN,,0.4744,3.0,72.1728,30 / 30,,1870,2021-05-20 22:07:01:332
-1.640078,0.818842,4.829252,-0.361334,0.499402,9.787258,-0.171859,-0.458826,0.170108,-12.24,-4.68,-42.42,106.0651,-1.5933,1.8366,984.7451,55.855698,37.480854,178.0525,NaN,,0.4744,3.0,72.1728,30 / 30,,1880,2021-05-20 22:07:01:342
-1.20432,0.062251,7.149305,-0.29504,0.578818,9.785107,-0.639171,-0.304888,0.151782,-11.64,-5.58,-42.54,106.0651,-1.5933,1.8366,984.7451,55.855698,37.480854,178.0525,NaN,,0.4744,3.0,72.1728,30 / 30,,1889,2021-05-20 22:07:01:351
-0.620117,-0.699128,9.261055,-0.29504,0.578818,9.785107,-0.639171,-0.304888,0.151782,-11.64,-5.58,-42.54,106.0651,-1.5933,1.8366,984.7451,55.855698,37.480854,178.0525,NaN,,0.4744,3.0,72.1728,30 / 30,,1899,2021-05-20 22:07:01:361
-0.368718,-1.30488,10.951413,-0.227702,0.473807,9.79255,-0.887182,-0.154004,0.131012,-12.0,-5.76,-43.08,104.649,-3.3837,1.7271,984.7451,55.855698,37.480854,178.0525,NaN,,0.4744,3.0,72.1728,30 / 30,,1910,2021-05-20 22:07:01:372
-0.368718,-1.793312,12.028836,-0.227702,0.473807,9.79255,-0.97026,0.030477,0.123071,-12.0,-5.76,-43.08,104.649,-3.3837,1.7271,984.7451,55.855698,37.480854,178.0525,NaN,,0.4744,3.0,72.1728,30 / 30,,1920,2021-05-20 22:07:01:382
-0.260976,-1.793312,12.028836,-0.222002,0.287582,9.799918,-0.838313,0.225343,0.156669,-12.3,-5.34,-43.32,104.649,-3.3837,1.7271,984.7451,55.855698,37.480854,178.0525,NaN,,0.4744,3.0,72.1728,30 / 30,,1930,2021-05-20 22:07:01:392
-0.277736,-1.889083,11.344074,-0.222002,0.287582,9.799918,-0.593356,0.338964,0.195764,-12.3,-5.34,-43.32,104.649,-3.3837,1.7271,984.7451,55.855698,37.480854,178.0525,NaN,,0.4744,3.0,72.1728,30 / 30,,1940,2021-05-20 22:07:01:402
-0.203513,-1.723878,9.416683,-0.277503,0.146169,9.801633,-0.294643,0.244891,0.25685,-12.54,-5.16,-43.14,105.0093,-1.6804,1.2977,984.7451,55.855698,37.480854,178.0525,NaN,,0.4744,3.0,72.1728,30 / 30,,1950,2021-05-20 22:07:01:412
-0.203513,-1.723878,9.416683,-0.277503,0.146169,9.801633,0.01079,-0.03122,0.297168,-12.54,-5.16,-43.14,105.0093,-1.6804,1.2977,984.7451,55.855698,37.480854,178.0525,NaN,,0.4744,3.0,72.1728,30 / 30,,1959,2021-05-20 22:07:01:421
0.079011,-1.101366,8.346442,-0.305624,0.109473,9.801275,0.19466,-0.185769,0.32038,-12.0,-4.5,-42.72,105.0093,-1.6804,1.2977,984.7517,55.855698,37.480854,178.0525,NaN,,0.4744,3.0,72.1728,30 / 30,,1969,2021-05-20 22:07:01:431
0.474066,-0.490826,6.981705,-0.305624,0.109473,9.801275,0.233756,-0.281675,0.323435,-12.0,-4.5,-42.72,105.0093,-1.6804,1.2977,984.7517,55.855698,37.480854,178.0525,NaN,,0.4744,3.0,72.1728,30 / 30,,1980,2021-05-20 22:07:01:442
0.395055,0.079011,6.189201,-0.266736,0.145542,9.801941,0.114026,-0.25724,0.335041,-12.0,-3.6,-42.42,104.8823,-0.6396,1.786,984.7517,55.855698,37.480854,178.0525,NaN,,0.4744,3.0,72.1728,30 / 30,,1989,2021-05-20 22:07:01:451
0.110137,0.442941,6.162864,-0.238061,0.16384,9.802391,-0.020975,-0.149728,0.366806,-12.18,-3.72,-42.72,104.8823,-0.6396,1.786,984.7517,55.855698,37.480854,178.0525,NaN,,0.4744,3.0,72.1728,30 / 30,,1999,2021-05-20 22:07:01:461
0.110137,0.442941,6.162864,-0.238061,0.16384,9.802391,-0.12299,-0.027555,0.41873,-12.18,-3.72,-42.72,104.8823,-0.6396,1.786,984.7517,55.855698,37.480854,178.0525,NaN,,0.4744,3.0,72.1728,30 / 30,,2009,2021-05-20 22:07:01:471
-0.29689,0.768562,6.404685,-0.205073,0.163381,9.803144,-0.140094,0.044527,0.481038,-12.24,-3.48,-42.84,104.8823,-0.6396,1.786,984.7517,55.855698,37.480854,178.0525,NaN,,0.4744,3.0,72.1728,30 / 30,,2019,2021-05-20 22:07:01:481
-0.462095,1.087001,6.486091,-0.205073,0.163381,9.803144,-0.082062,0.021925,0.53174,-12.24,-3.48,-42.84,104.8823,-0.6396,1.786,984.7517,55.855698,37.480854,178.0525,NaN,,0.4744,3.0,72.1728,30 / 30,,2029,2021-05-20 22:07:01:491
-0.404632,1.367131,6.474119,-0.210271,0.138648,9.803415,-0.003871,-0.075202,0.539681,-12.36,-3.66,-42.36,104.3921,-0.9546,1.1984,984.7517,55.855698,37.480854,178.0525,NaN,,0.4744,3.0,72.1728,30 / 30,,2040,2021-05-20 22:07:01:502
-0.107742,1.654444,6.706364,-0.210271,0.138648,9.803415,0.085926,-0.183936,0.515857,-12.36,-3.66,-42.36,104.3921,-0.9546,1.1984,984.7517,55.855698,37.480854,178.0525,NaN,,0.4744,3.0,72.1728,30 / 30,,2049,2021-05-20 22:07:01:511
-0.107742,1.654444,6.706364,-0.196854,0.138623,9.803694,0.085926,-0.183936,0.515857,-11.88,-3.36,-42.24,104.3921,-0.9546,1.1984,984.7517,55.855698,37.480854,178.0525,NaN,,0.4744,3.0,72.1728,30 / 30,,2060,2021-05-20 22:07:01:522
0.210696,1.927391,7.072688,-0.196854,0.138623,9.803694,0.167171,-0.310386,0.443775,-11.88,-3.36,-42.24,104.3921,-0.9546,1.1984,984.7468,55.855698,37.480854,178.0525,NaN,,0.4744,3.0,72.1728,30 / 30,,2069,2021-05-20 22:07:01:531
0.361536,2.011191,7.620977,-0.141632,0.169764,9.804157,0.209932,-0.368418,0.359476,-11.88,-2.7,-42.9,100.5507,-0.8099,1.1503,984.7468,55.855698,37.480854,178.0525,NaN,,0.4744,3.0,72.1728,30 / 30,,2079,2021-05-20 22:07:01:541
0.399844,1.891477,8.006456,-0.141632,0.169764,9.804157,0.193438,-0.376359,0.261127,-11.88,-2.7,-42.9,100.5507,-0.8099,1.1503,984.7468,55.855698,37.480854,178.0525,NaN,,0.4744,3.0,72.1728,30 / 30,,2089,2021-05-20 22:07:01:551
0.399844,1.891477,8.006456,-0.066964,0.213317,9.804101,0.139682,-0.349481,0.195764,-12.12,-2.76,-42.42,100.5507,-0.8099,1.1503,984.7468,55.855698,37.480854,178.0525,NaN,,0.4744,3.0,72.1728,30 / 30,,2099,2021-05-20 22:07:01:561
0.31365,1.654444,8.796566,-0.031462,0.229072,9.803924,0.105474,-0.312829,0.158501,-12.42,-2.88,-42.48,100.5507,-0.8099,1.1503,984.7468,55.855698,37.480854,178.0525,NaN,,0.4744,3.0,72.1728,30 / 30,,2109,2021-05-20 22:07:01:571
0.31365,1.654444,8.796566,-0.031462,0.229072,9.803924,0.105474,-0.312829,0.158501,-12.42,-2.88,-42.48,100.5507,-0.8099,1.1503,984.7468,55.855698,37.480854,178.0525,NaN,,0.4744,3.0,72.1728,30 / 30,,2119,2021-05-20 22:07:01:581
0.253793,1.324034,9.490906,-0.001613,0.239896,9.803716,0.056605,-0.240136,0.104745,-12.6,-2.82,-41.94,98.7392,-1.3385,0.1839,984.7468,55.855698,37.480854,178.0525,NaN,,0.4744,3.0,72.1728,30 / 30,,2130,2021-05-20 22:07:01:592
0.253793,1.324034,9.490906,-0.001613,0.239896,9.803716,0.056605,-0.240136,0.104745,-12.6,-2.82,-41.94,98.7392,-1.3385,0.1839,984.7468,55.855698,37.480854,178.0525,NaN,,0.4744,3.0,72.1728,30 / 30,,2139,2021-05-20 22:07:01:601
-0.102954,1.000807,10.757477,0.041094,0.253658,9.803284,0.098143,-0.160113,0.046713,-13.14,-3.18,-42.3,98.7392,-1.3385,0.1839,984.7468,55.855698,37.480854,178.0525,NaN,,0.4744,3.0,72.1728,30 / 30,,2150,2021-05-20 22:07:01:612
-0.208302,0.790111,11.059155,0.041094,0.253658,9.803284,0.353485,-0.258462,-0.035754,-13.14,-3.18,-42.3,98.7392,-1.3385,0.1839,984.7468,55.855698,37.480854,178.0525,NaN,,0.4744,3.0,72.1728,30 / 30,,2159,2021-05-20 22:07:01:621
-0.208302,0.790111,11.059155,0.094457,0.327763,9.800716,0.358372,-0.307331,-0.068741,-13.56,-3.66,-42.84,101.7915,-1.4822,-0.2402,984.7522,55.855698,37.480854,178.0525,NaN,,0.4744,3.0,72.1728,30 / 30,,2169,2021-05-20 22:07:01:631
0.0,0.778139,11.217177,0.094457,0.327763,9.800716,0.276516,-0.328101,-0.122497,-13.56,-3.66,-42.84,101.7915,-1.4822,-0.2402,984.7522,55.855698,37.480854,178.0525,NaN,,0.4744,3.0,72.1728,30 / 30,,2179,2021-05-20 22:07:01:641
0.277736,0.612934,11.664907,0.154267,0.397272,9.797385,0.276516,-0.328101,-0.122497,-13.62,-3.3,-43.08,101.7915,-1.4822,-0.2402,984.7522,55.855698,37.480854,178.0525,NaN,,0.4744,3.0,72.1728,30 / 30,,2189,2021-05-20 22:07:01:651
0.294496,0.474066,12.483748,0.154267,0.397272,9.797385,0.157397,-0.254186,-0.167701,-13.62,-3.3,-43.08,101.7915,-1.4822,-0.2402,984.7522,55.855698,37.480854,178.0525,NaN,,0.4744,3.0,72.1728,30 / 30,,2199,2021-05-20 22:07:01:661
0.124502,0.184359,12.957815,0.205335,0.435297,9.794832,0.084704,-0.129569,-0.196411,-13.62,-3.72,-42.42,99.7285,-2.3217,-0.9021,984.7522,55.855698,37.480854,178.0525,NaN,,0.4744,3.0,72.1728,30 / 30,,2209,2021-05-20 22:07:01:671
-0.33041,-0.105348,12.979363,0.205335,0.435297,9.794832,0.065157,-0.01717,-0.206185,-13.62,-3.72,-42.42,99.7285,-2.3217,-0.9021,984.7522,55.855698,37.480854,178.0525,NaN,,0.4744,3.0,72.1728,30 / 30,,2220,2021-05-20 22:07:01:682
-0.33041,-0.105348,12.979363,0.213909,0.450636,9.793955,0.134185,0.017649,-0.16709,-14.04,-4.32,-42.24,99.7285,-2.3217,-0.9021,984.7522,55.855698,37.480854,178.0525,NaN,,0.4744,3.0,72.1728,30 / 30,,2230,2021-05-20 22:07:01:692
-0.806871,0.426181,12.505298,0.213909,0.450636,9.793955,0.255136,-0.050768,-0.099895,-14.04,-4.32,-42.24,99.7285,-2.3217,-0.9021,984.7522,55.855698,37.480854,178.0525,NaN,,0.4744,3.0,72.1728,30 / 30,,2239,2021-05-20 22:07:01:701
-0.814053,1.228263,11.538011,0.215374,0.489296,9.792068,0.365702,-0.218756,-0.062632,-14.1,-4.44,-42.72,98.7349,-2.6338,-1.2512,984.7522,55.855698,37.480854,178.0525,NaN,,0.4744,3.0,72.1728,30 / 30,,2250,2021-05-20 22:07:01:712
0.186753,1.386285,10.264256,0.215374,0.489296,9.792068,0.341268,-0.40507,-0.040641,-14.1,-4.44,-42.72,98.7349,-2.6338,-1.2512,984.7522,55.855698,37.480854,178.0525,NaN,,0.4744,3.0,72.1728,30 / 30,,2259,2021-05-20 22:07:01:721
0.186753,1.386285,10.264256,0.274947,0.558837,9.786853,0.144569,-0.552899,-0.066297,-13.74,-4.74,-42.78,98.7349,-2.6338,-1.2512,984.7488,55.855698,37.480854,178.0525,NaN,,0.4744,3.0,72.1728,30 / 30,,2269,2021-05-20 22:07:01:731
2.140482,0.85715,9.960183,0.274947,0.558837,9.786853,-0.289145,-0.58161,-0.167701,-13.74,-4.74,-42.78,98.7349,-2.6338,-1.2512,984.7488,55.855698,37.480854,178.0525,NaN,,0.4744,3.0,72.1728,30 / 30,,2279,2021-05-20 22:07:01:741
3.55071,-0.821236,12.423892,0.384088,0.545797,9.783914,-0.816322,-0.369029,-0.30148,-14.1,-4.74,-42.48,101.3702,-3.2668,-1.6092,984.7488,55.855698,37.480854,178.0525,NaN,,0.4744,3.0,72.1728,30 / 30,,2289,2021-05-20 22:07:01:751
2.921015,-2.918621,16.312195,0.384088,0.545797,9.783914,-1.182841,0.166089,-0.3363,-14.1,-4.74,-42.48,101.3702,-3.2668,-1.6092,984.7488,55.855698,37.480854,178.0525,NaN,,0.4744,3.0,72.1728,30 / 30,,2299,2021-05-20 22:07:01:761
2.921015,-2.918621,16.312195,0.413891,0.355722,9.791452,-0.961708,0.803222,-0.173809,-15.06,-4.14,-42.84,101.3702,-3.2668,-1.6092,984.7488,55.855698,37.480854,178.0525,NaN,,0.4744,3.0,72.1728,30 / 30,,2309,2021-05-20 22:07:01:771
1.546702,-3.589018,17.923542,0.413891,0.355722,9.791452,-0.347177,1.09155,0.021057,-15.06,-4.14,-42.84,101.3702,-3.2668,-1.6092,984.7488,55.855698,37.480854,178.0525,NaN,,0.4744,3.0,72.1728,30 / 30,,2319,2021-05-20 22:07:01:781
1.02475,-2.607365,14.291427,0.258187,0.183971,9.801524,0.504369,0.852702,0.153614,-15.66,-3.6,-42.42,99.7839,-2.0788,-2.4205,984.7488,55.855698,37.480854,178.0525,NaN,,0.4744,3.0,72.1728,30 / 30,,2329,2021-05-20 22:07:01:791
1.592193,-1.137281,10.257073,0.258187,0.183971,9.801524,0.983287,0.270547,0.066261,-15.66,-3.6,-42.42,99.7839,-2.0788,-2.4205,984.7488,55.855698,37.480854,178.0525,NaN,,0.4744,3.0,72.1728,30 / 30,,2339,2021-05-20 22:07:01:801
1.841197,0.277736,7.474926,0.090917,0.26098,9.802755,1.137836,-0.246856,-0.102949,-15.12,-3.18,-42.06,99.7839,-2.0788,-2.4205,984.7488,55.855698,37.480854,178.0525,NaN,,0.4744,3.0,72.1728,30 / 30,,2349,2021-05-20 22:07:01:811
1.841197,0.277736,7.474926,0.090917,0.26098,9.802755,1.137836,-0.246856,-0.102949,-15.12,-3.18,-42.06,99.7839,-2.0788,-2.4205,984.7488,55.855698,37.480854,178.0525,NaN,,0.4744,3.0,72.1728,30 / 30,,2359,2021-05-20 22:07:01:821
1.884294,0.847573,5.875551,0.113849,0.471429,9.79465,0.751769,-0.608488,-0.37906,-14.4,-2.52,-42.54,97.7509,-1.525,-0.5314,984.75,55.855698,37.480854,178.0525,NaN,,0.4744,3.0,72.1728,30 / 30,,2369,2021-05-20 22:07:01:831
1.532336,0.672791,6.342434,0.113849,0.471429,9.79465,0.204434,-0.500975,-0.509175,-14.4,-2.52,-42.54,97.7509,-1.525,-0.5314,984.75,55.855698,37.480854,178.0525,NaN,,0.4744,3.0,72.1728,30 / 30,,2380,2021-05-20 22:07:01:842
1.532336,0.672791,6.342434,0.224323,0.588865,9.786384,-0.330073,-0.181493,-0.567207,-14.58,-3.36,-42.66,97.7509,-1.525,-0.5314,984.75,55.8557,37.480877,178.1053,NaN,,0.8806,3.0,75.6771,30 / 30,,2389,2021-05-20 22:07:01:851
0.512375,-0.301679,7.944204,0.224323,0.588865,9.786384,-0.759511,0.191135,-0.494514,-14.58,-3.36,-42.66,97.7509,-1.525,-0.5314,984.75,55.8557,37.480877,178.1053,NaN,,0.8806,3.0,75.6771,30 / 30,,2399,2021-05-20 22:07:01:861
-0.244216,-1.031932,9.021627,0.237469,0.504561,9.790782,-0.862137,0.364621,-0.374173,-14.64,-4.56,-42.72,99.6765,-3.4425,-1.3131,984.75,55.8557,37.480877,178.1053,NaN,,0.8806,3.0,75.6771,30 / 30,,2410,2021-05-20 22:07:01:872
-0.514769,-1.218686,9.988914,0.237469,0.504561,9.790782,-0.862137,0.364621,-0.374173,-14.64,-4.56,-42.72,99.6765,-3.4425,-1.3131,984.75,55.8557,37.480877,178.1053,NaN,,0.8806,3.0,75.6771,30 / 30,,2419,2021-05-20 22:07:01:881
-0.354353,-1.20432,10.161303,0.168161,0.339114,9.799342,-0.576863,0.467857,-0.186027,-14.1,-4.92,-42.66,99.6765,-3.4425,-1.3131,984.75,55.8557,37.480877,178.1053,NaN,,0.8806,3.0,75.6771,30 / 30,,2430,2021-05-20 22:07:01:892
-0.354353,-1.20432,10.161303,0.168161,0.339114,9.799342,-0.576863,0.467857,-0.186027,-14.1,-4.92,-42.66,99.6765,-3.4425,-1.3131,984.75,55.8557,37.480877,178.1053,NaN,,0.8806,3.0,75.6771,30 / 30,,2439,2021-05-20 22:07:01:901
-0.014366,-0.699128,9.519637,0.077793,0.220734,9.803857,-0.06679,0.345684,-0.204353,-13.8,-4.74,-42.6,104.7939,-1.9817,-0.9831,984.75,55.8557,37.480877,178.1053,NaN,,0.8806,3.0,75.6771,30 / 30,,2450,2021-05-20 22:07:01:912
0.165205,-0.119714,8.578687,0.077793,0.220734,9.803857,-0.06679,0.345684,-0.204353,-13.8,-4.74,-42.6,104.7939,-1.9817,-0.9831,984.75,55.8557,37.480877,178.1053,NaN,,0.8806,3.0,75.6771,30 / 30,,2459,2021-05-20 22:07:01:921
0.035914,0.179571,7.731114,0.003389,0.188885,9.804831,0.151289,0.167922,-0.292928,-13.56,-4.14,-42.42,104.7939,-1.9817,-0.9831,984.7483,55.8557,37.480877,178.1053,NaN,,0.8806,3.0,75.6771,30 / 30,,2469,2021-05-20 22:07:01:931
-0.287313,0.375901,7.029591,0.003389,0.188885,9.804831,0.318055,0.017649,-0.363178,-13.56,-4.14,-42.42,104.7939,-1.9817,-0.9831,984.7483,55.8557,37.480877,178.1053,NaN,,0.8806,3.0,75.6771,30 / 30,,2479,2021-05-20 22:07:01:941
-0.287313,0.375901,7.029591,-0.015525,0.233395,9.803861,0.373033,-0.039161,-0.391888,-13.56,-4.08,-42.54,102.7751,-1.1036,-0.0198,984.7483,55.8557,37.480877,178.1053,NaN,,0.8806,3.0,75.6771,30 / 30,,2490,2021-05-20 22:07:01:952
-0.579414,0.359141,6.344828,-0.015525,0.233395,9.803861,0.319277,-0.025111,-0.370508,-13.56,-4.08,-42.54,102.7751,-1.1036,-0.0198,984.7483,55.8557,37.480877,178.1053,NaN,,0.8806,3.0,75.6771,30 / 30,,2499,2021-05-20 22:07:01:961
-0.663214,0.438152,6.241874,-0.009859,0.30176,9.802001,0.23681,0.035364,-0.324693,-13.38,-4.56,-43.08,102.7751,-1.1036,-0.0198,984.7483,55.8557,37.480877,178.1053,NaN,,0.8806,3.0,75.6771,30 / 30,,2510,2021-05-20 22:07:01:972
-0.617723,0.531529,6.270606,-0.009859,0.30176,9.802001,0.147624,0.111722,-0.252,-13.38,-4.56,-43.08,102.7751,-1.1036,-0.0198,984.7483,55.8557,37.480877,178.1053,NaN,,0.8806,3.0,75.6771,30 / 30,,2519,2021-05-20 22:07:01:981
-0.514769,0.758985,6.519611,-0.022271,0.342973,9.800626,0.104863,0.165479,-0.178086,-12.96,-5.04,-43.32,105.735,-1.7633,0.0576,984.7483,55.8557,37.480877,178.1053,NaN,,0.8806,3.0,75.6771,30 / 30,,2530,2021-05-20 22:07:01:992
-0.514769,0.758985,6.519611,-0.022271,0.342973,9.800626,0.112193,0.188081,-0.113334,-12.96,-5.04,-43.32,105.735,-1.7633,0.0576,984.7483,55.8557,37.480877,178.1053,NaN,,0.8806,3.0,75.6771,30 / 30,,2540,2021-05-20 22:07:02:002
-0.203513,1.146858,6.55313,-0.055505,0.364706,9.799709,0.125632,0.186859,-0.076071,-12.96,-4.68,-43.26,105.735,-1.7633,0.0576,984.7483,55.8557,37.480877,178.1053,NaN,,0.8806,3.0,75.6771,30 / 30,,2550,2021-05-20 22:07:02:012
0.088588,1.544307,6.3568,-0.055505,0.364706,9.799709,0.109139,0.139211,-0.042473,-12.96,-4.68,-43.26,105.735,-1.7633,0.0576,984.7483,55.8557,37.480877,178.1053,NaN,,0.8806,3.0,75.6771,30 / 30,,2560,2021-05-20 22:07:02:022
0.390267,1.805283,6.203566,-0.091579,0.389173,9.798497,0.044998,0.065907,-0.043084,-13.02,-4.86,-43.02,104.3993,-2.1313,0.3245,984.7449,55.8557,37.480877,178.1053,NaN,,0.8806,3.0,75.6771,30 / 30,,2569,2021-05-20 22:07:02:031
0.390267,1.805283,6.203566,-0.091579,0.389173,9.798497,0.044998,0.065907,-0.043084,-13.02,-4.86,-43.02,104.3993,-2.1313,0.3245,984.7449,55.8557,37.480877,178.1053,NaN,,0.8806,3.0,75.6771,30 / 30,,2579,2021-05-20 22:07:02:041
0.708705,1.975277,6.498062,-0.106788,0.400195,9.797899,-0.060682,-6.6E-5,-0.066908,-13.08,-5.34,-43.2,104.3993,-2.1313,0.3245,984.7449,55.8557,37.480877,178.1053,NaN,,0.8806,3.0,75.6771,30 / 30,,2589,2021-05-20 22:07:02:051
1.185166,2.013585,7.616188,-0.106788,0.400195,9.797899,-0.218285,-0.001899,-0.139601,-13.08,-5.34,-43.2,104.3993,-2.1313,0.3245,984.7449,55.8557,37.480877,178.1053,NaN,,0.8806,3.0,75.6771,30 / 30,,2600,2021-05-20 22:07:02:062
0.72786,1.752609,8.837268,-0.106291,0.370961,9.799055,-0.284258,0.04636,-0.212294,-13.32,-5.16,-43.14,103.5547,-2.3388,0.6244,984.7449,55.8557,37.480877,178.1053,NaN,,0.8806,3.0,75.6771,30 / 30,,2610,2021-05-20 22:07:02:072
0.24661,1.482056,9.648928,-0.106291,0.370961,9.799055,-0.289145,0.084844,-0.231842,-13.32,-5.16,-43.14,103.5547,-2.3388,0.6244,984.7449,55.8557,37.480877,178.1053,NaN,,0.8806,3.0,75.6771,30 / 30,,2619,2021-05-20 22:07:02:081
0.24661,1.482056,9.648928,-0.119431,0.3172,9.800792,-0.225615,0.05369,-0.218403,-13.02,-5.1,-42.24,103.5547,-2.3388,0.6244,984.7449,55.8557,37.480877,178.1053,NaN,,0.8806,3.0,75.6771,30 / 30,,2629,2021-05-20 22:07:02:091
-0.237033,0.97447,10.08708,-0.119431,0.3172,9.800792,-0.166972,-0.025111,-0.158538,-13.02,-5.1,-42.24,103.5547,-2.3388,0.6244,984.7449,55.8557,37.480877,178.1053,NaN,,0.8806,3.0,75.6771,30 / 30,,2640,2021-05-20 22:07:02:102
-0.586597,0.845179,10.881979,-0.122446,0.280865,9.801863,-0.091836,-0.07337,-0.087067,-12.12,-4.98,-42.84,106.0864,-1.8536,0.6982,984.7449,55.8557,37.480877,178.1053,NaN,,0.8806,3.0,75.6771,30 / 30,,2649,2021-05-20 22:07:02:111
-0.778139,1.05827,11.459,-0.122446,0.280865,9.801863,0.012011,-0.121017,-3.24E-4,-12.12,-4.98,-42.84,106.0864,-1.8536,0.6982,984.7449,55.8557,37.480877,178.1053,NaN,,0.8806,3.0,75.6771,30 / 30,,2659,2021-05-20 22:07:02:121
-0.778139,1.05827,11.459,-0.103877,0.272309,9.802319,0.068822,-0.156447,0.039993,-12.48,-4.5,-43.68,106.0864,-1.8536,0.6982,984.7407,55.8557,37.480877,178.1053,NaN,,0.8806,3.0,75.6771,30 / 30,,2669,2021-05-20 22:07:02:131
-0.751802,1.118126,11.755889,-0.103877,0.272309,9.802319,0.082872,-0.185158,0.066261,-12.48,-4.5,-43.68,106.0864,-1.8536,0.6982,984.7407,55.8557,37.480877,178.1053,NaN,,0.8806,3.0,75.6771,30 / 30,,2679,2021-05-20 22:07:02:141
-0.799688,0.861939,11.913912,-0.073295,0.287344,9.802166,0.026061,-0.19371,0.124904,-12.48,-4.32,-43.08,102.7052,-1.5912,0.6071,984.7407,55.8557,37.480877,178.1053,NaN,,0.8806,3.0,75.6771,30 / 30,,2689,2021-05-20 22:07:02:151
-0.713494,0.438152,12.773457,-0.073295,0.287344,9.802166,-0.006315,-0.157669,0.187823,-12.48,-4.32,-43.08,102.7052,-1.5912,0.6071,984.7407,55.8557,37.480877,178.1053,NaN,,0.8806,3.0,75.6771,30 / 30,,2699,2021-05-20 22:07:02:161
-0.713494,0.438152,12.773457,-0.03639,0.295625,9.802126,-0.05274,-0.025111,0.33382,-12.24,-4.62,-43.02,102.7052,-1.5912,0.6071,984.7407,55.8557,37.480877,178.1053,NaN,,0.8806,3.0,75.6771,30 / 30,,2709,2021-05-20 22:07:02:171
-0.871516,-0.227456,13.774263,-0.03639,0.295625,9.802126,-0.05274,-0.025111,0.33382,-12.24,-4.62,-43.02,102.7052,-1.5912,0.6071,984.7407,55.8557,37.480877,178.1053,NaN,,0.8806,3.0,75.6771,30 / 30,,2719,2021-05-20 22:07:02:181
-1.077424,-0.076617,14.303398,-0.027107,0.287428,9.8024,-0.039301,0.158148,0.471264,-13.32,-4.98,-43.08,105.716,-1.7275,0.2127,984.7407,55.8557,37.480877,178.1053,NaN,,0.8806,3.0,75.6771,30 / 30,,2729,2021-05-20 22:07:02:191
-1.22108,0.239427,13.333716,-0.027107,0.287428,9.8024,0.036446,0.305978,0.583053,-13.32,-4.98,-43.08,105.716,-1.7275,0.2127,984.7407,55.8557,37.480877,178.1053,NaN,,0.8806,3.0,75.6771,30 / 30,,2740,2021-05-20 22:07:02:202
-1.22108,0.239427,13.333716,-0.076446,0.291476,9.802019,0.070044,0.273602,0.682624,-13.74,-5.28,-43.02,105.716,-1.7275,0.2127,984.7407,55.8557,37.480877,178.1053,NaN,,0.8806,3.0,75.6771,30 / 30,,2749,2021-05-20 22:07:02:211
-0.517163,0.090982,12.888381,-0.076446,0.291476,9.802019,0.0676,0.133103,0.685678,-13.74,-5.28,-43.02,105.716,-1.7275,0.2127,984.7407,55.8557,37.480877,178.1053,NaN,,0.8806,3.0,75.6771,30 / 30,,2760,2021-05-20 22:07:02:222
0.093377,-0.117319,13.573144,-0.113136,0.306364,9.80121,0.085926,0.027423,0.653913,-12.96,-4.68,-42.96,105.5984,-1.7032,0.4468,984.7461,55.8557,37.480877,178.1053,NaN,,0.8806,3.0,75.6771,30 / 30,,2769,2021-05-20 22:07:02:231
0.344776,-0.493221,14.676905,-0.113136,0.306364,9.80121,0.214819,0.076903,0.606265,-12.96,-4.68,-42.96,105.5984,-1.7032,0.4468,984.7461,55.8557,37.480877,178.1053,NaN,,0.8806,3.0,75.6771,30 / 30,,2779,2021-05-20 22:07:02:241
-0.342381,-0.265764,13.551596,-0.118506,0.334887,9.800214,0.456721,0.220456,0.587939,-12.54,-3.96,-42.06,105.5984,-1.7032,0.4468,984.7461,55.8557,37.480877,178.1053,NaN,,0.8806,3.0,75.6771,30 / 30,,2789,2021-05-20 22:07:02:251
-0.342381,-0.265764,13.551596,-0.118506,0.334887,9.800214,0.77315,0.196022,0.565338,-12.54,-3.96,-42.06,105.5984,-1.7032,0.4468,984.7461,55.8557,37.480877,178.1053,NaN,,0.8806,3.0,75.6771,30 / 30,,2799,2021-05-20 22:07:02:261
-1.103761,0.287313,11.705609,-0.156053,0.445217,9.795296,0.950911,0.062853,0.52502,-12.6,-4.2,-42.78,100.6194,-1.957,0.6928,984.7461,55.8557,37.480877,178.1053,NaN,,0.8806,3.0,75.6771,30 / 30,,2809,2021-05-20 22:07:02:271
-1.632895,1.000807,8.906702,-0.156053,0.445217,9.795296,0.90754,-0.146063,0.467599,-12.6,-4.2,-42.78,100.6194,-1.957,0.6928,984.7461,55.8557,37.480877,178.1053,NaN,,0.8806,3.0,75.6771,30 / 30,,2819,2021-05-20 22:07:02:281
-1.697541,1.477268,6.763827,-0.16453,0.626913,9.785208,0.90754,-0.146063,0.467599,-12.72,-4.38,-43.62,100.6194,-1.957,0.6928,984.7461,55.8557,37.480877,178.1053,NaN,,0.8806,3.0,75.6771,30 / 30,,2829,2021-05-20 22:07:02:291
-1.498816,1.477268,6.241874,-0.16453,0.626913,9.785208,0.003459,-0.463102,0.262959,-12.72,-4.38,-43.62,100.6194,-1.957,0.6928,984.7461,55.8557,37.480877,178.1053,NaN,,0.8806,3.0,75.6771,30 / 30,,2840,2021-05-20 22:07:02:302
-1.498816,1.477268,6.241874,-0.100002,0.754527,9.777069,0.003459,-0.463102,0.262959,-12.18,-5.22,-43.62,99.7564,-3.6653,0.9633,984.7461,55.8557,37.480877,178.1053,NaN,,0.8806,3.0,75.6771,30 / 30,,2849,2021-05-20 22:07:02:311
-0.960104,0.603357,7.640131,-0.100002,0.754527,9.777069,-0.53288,-0.439889,0.190266,-12.18,-5.22,-43.62,99.7564,-3.6653,0.9633,984.7461,55.8557,37.480877,178.1053,NaN,,0.8806,3.0,75.6771,30 / 30,,2859,2021-05-20 22:07:02:321
0.045491,-0.624906,9.979338,-0.012723,0.684786,9.782704,-0.965373,-0.290838,0.137121,-12.48,-5.7,-43.74,99.7564,-3.6653,0.9633,984.7512,55.8557,37.480877,178.1053,NaN,,0.8806,3.0,75.6771,30 / 30,,2869,2021-05-20 22:07:02:331
0.545895,-1.810072,12.514874,-0.012723,0.684786,9.782704,-1.273249,-0.111243,0.05893,-12.48,-5.7,-43.74,99.7564,-3.6653,0.9633,984.7512,55.8557,37.480877,178.1053,NaN,,0.8806,3.0,75.6771,30 / 30,,2879,2021-05-20 22:07:02:341
0.450124,-2.446949,14.037633,0.016168,0.451628,9.796231,-1.383816,0.148985,0.024722,-13.8,-5.28,-43.74,97.764,-4.0041,0.0745,984.7512,55.8557,37.480877,178.1053,NaN,,0.8806,3.0,75.6771,30 / 30,,2889,2021-05-20 22:07:02:351
0.450124,-2.446949,14.037633,0.016168,0.451628,9.796231,-1.211552,0.429372,0.040604,-13.8,-5.28,-43.74,97.764,-4.0041,0.0745,984.7512,55.8557,37.480877,178.1053,NaN,,0.8806,3.0,75.6771,30 / 30,,2899,2021-05-20 22:07:02:361
0.052674,-2.892284,13.874823,-0.050406,0.200849,9.804463,-0.834037,0.579034,0.121238,-13.62,-4.74,-43.74,97.764,-4.0041,0.0745,984.7512,55.8557,37.480877,178.1053,NaN,,0.8806,3.0,75.6771,30 / 30,,2909,2021-05-20 22:07:02:371
-0.179571,-2.55948,11.626598,-0.050406,0.200849,9.804463,-0.342901,0.461137,0.245855,-13.62,-4.74,-43.74,97.764,-4.0041,0.0745,984.7512,55.8557,37.480877,178.1053,NaN,,0.8806,3.0,75.6771,30 / 30,,2919,2021-05-20 22:07:02:381
0.253793,-1.671204,9.608225,-0.15226,0.089096,9.805063,0.106696,0.150818,0.344815,-12.06,-3.3,-42.66,99.8412,-1.1735,0.2946,984.7512,55.8557,37.480877,178.1053,NaN,,0.8806,3.0,75.6771,30 / 30,,2929,2021-05-20 22:07:02:391
0.981653,-0.61054,7.922655,-0.15226,0.089096,9.805063,0.43473,-0.0807,0.391241,-12.06,-3.3,-42.66,99.8412,-1.1735,0.2946,984.7512,55.8557,37.480877,178.1053,NaN,,0.8806,3.0,75.6771,30 / 30,,2939,2021-05-20 22:07:02:401
0.981653,-0.61054,7.922655,-0.158277,0.14079,9.804361,0.643646,-0.227308,0.366195,-11.34,-2.4,-42.18,99.8412,-1.1735,0.2946,984.7512,55.8557,37.480877,178.1053,NaN,,0.8806,3.0,75.6771,30 / 30,,2949,2021-05-20 22:07:02:411
1.139675,0.117319,6.361588,-0.158277,0.14079,9.804361,0.633261,-0.230973,0.327711,-11.34,-2.4,-42.18,99.8412,-1.1735,0.2946,984.7512,55.8557,37.480877,178.1053,NaN,,0.8806,3.0,75.6771,30 / 30,,2960,2021-05-20 22:07:02:422
0.87391,0.545895,4.776579,-0.111178,0.266819,9.802389,0.463441,-0.167443,0.318548,-12.12,-1.98,-42.96,96.2289,-0.8226,0.9249,984.7607,55.8557,37.480877,178.1053,NaN,,0.8806,3.0,75.6771,30 / 30,,2969,2021-05-20 22:07:02:431
0.368718,1.034327,4.264204,-0.111178,0.266819,9.802389,0.195882,-0.075813,0.332598,-12.12,-1.98,-42.96,96.2289,-0.8226,0.9249,984.7607,55.8557,37.480877,178.1053,NaN,,0.8806,3.0,75.6771,30 / 30,,2980,2021-05-20 22:07:02:442
0.368718,1.034327,4.264204,-0.077022,0.349823,9.800106,0.047442,-6.6E-5,0.355811,-12.6,-2.7,-43.86,96.2289,-0.8226,0.9249,984.7607,55.8557,37.480877,178.1053,NaN,,0.8806,3.0,75.6771,30 / 30,,2989,2021-05-20 22:07:02:451
0.086194,1.357554,4.699962,-0.077022,0.349823,9.800106,-0.006925,0.047582,0.372915,-12.6,-2.7,-43.86,96.2289,-0.8226,0.9249,984.7607,55.8557,37.480877,178.1053,NaN,,0.8806,3.0,75.6771,30 / 30,,2999,2021-05-20 22:07:02:461
-0.059857,1.446142,5.147691,-0.070966,0.363617,9.799649,-0.006925,0.047582,0.372915,-12.24,-3.96,-43.92,101.1412,-2.0443,0.4503,984.7607,55.8557,37.480877,178.1053,NaN,,0.8806,3.0,75.6771,30 / 30,,3009,2021-05-20 22:07:02:471
-0.292102,1.525153,5.413456,-0.070966,0.363617,9.799649,0.130519,-0.098415,0.3552,-12.24,-3.96,-43.92,101.1412,-2.0443,0.4503,984.7607,55.8557,37.480877,178.1053,NaN,,0.8806,3.0,75.6771,30 / 30,,3020,2021-05-20 22:07:02:482
-0.361535,1.620924,5.69598,-0.069733,0.370003,9.799419,0.130519,-0.098415,0.3552,-12.42,-3.66,-42.84,101.1412,-2.0443,0.4503,984.7607,55.8557,37.480877,178.1053,NaN,,0.8806,3.0,75.6771,30 / 30,,3030,2021-05-20 22:07:02:492
-0.361535,1.620924,5.69598,-0.069733,0.370003,9.799419,0.233756,-0.237082,0.338096,-12.42,-3.66,-42.84,101.1412,-2.0443,0.4503,984.7607,55.8557,37.480877,178.1053,NaN,,0.8806,3.0,75.6771,30 / 30,,3039,2021-05-20 22:07:02:501
-0.316044,1.81486,6.098218,-0.027599,0.412363,9.797937,0.332105,-0.408124,0.292281,-12.6,-3.42,-42.84,95.9171,-2.1623,0.4077,984.7607,55.8557,37.480877,178.1053,NaN,,0.8806,3.0,75.6771,30 / 30,,3049,2021-05-20 22:07:02:511
-0.191542,2.063865,6.555525,-0.027599,0.412363,9.797937,0.3712,-0.519301,0.231805,-12.6,-3.42,-42.84,95.9171,-2.1623,0.4077,984.7607,55.8557,37.480877,178.1053,NaN,,0.8806,3.0,75.6771,30 / 30,,3059,2021-05-20 22:07:02:521
0.114925,2.008797,7.178036,0.065368,0.483512,9.794505,0.352263,-0.591383,0.163999,-12.54,-3.48,-43.14,95.9171,-2.1623,0.4077,984.7607,55.8557,37.480877,178.1053,NaN,,0.8806,3.0,75.6771,30 / 30,,3069,2021-05-20 22:07:02:531
0.114925,2.008797,7.178036,0.065368,0.483512,9.794505,0.259412,-0.599325,0.052211,-12.54,-3.48,-43.14,95.9171,-2.1623,0.4077,984.7607,55.8557,37.480877,178.1053,NaN,,0.8806,3.0,75.6771,30 / 30,,3079,2021-05-20 22:07:02:541
-0.011971,1.987248,8.356019,0.182649,0.5461,9.789729,0.146402,-0.535184,-0.014985,-13.08,-3.96,-42.9,98.3716,-2.8261,-0.3824,984.7607,55.8557,37.480877,178.1053,NaN,,0.8806,3.0,75.6771,30 / 30,,3089,2021-05-20 22:07:02:551
-0.378295,1.577827,9.505271,0.182649,0.5461,9.789729,0.034613,-0.411789,-0.04736,-13.08,-3.96,-42.9,98.3716,-2.8261,-0.3824,984.7607,55.8557,37.480877,178.1053,NaN,,0.8806,3.0,75.6771,30 / 30,,3099,2021-05-20 22:07:02:561
-0.684763,1.02475,10.644946,0.2743,0.566859,9.78641,-0.053351,-0.273734,-0.038197,-13.32,-3.9,-43.14,98.3716,-2.8261,-0.3824,984.7607,55.8557,37.480877,178.1053,NaN,,0.8806,3.0,75.6771,30 / 30,,3109,2021-05-20 22:07:02:571
-0.67758,0.553077,11.406325,0.2743,0.566859,9.78641,-0.076564,-0.192489,-0.020482,-13.32,-3.9,-43.14,98.3716,-2.8261,-0.3824,984.7607,55.8557,37.480877,178.1053,NaN,,0.8806,3.0,75.6771,30 / 30,,3119,2021-05-20 22:07:02:581
-0.67758,0.553077,11.406325,0.318466,0.556527,9.785666,0.002238,-0.196765,-0.001545,-14.1,-3.9,-42.78,96.6276,-3.3137,-1.6055,984.7607,55.8557,37.480877,178.1053,NaN,,0.8806,3.0,75.6771,30 / 30,,3129,2021-05-20 22:07:02:591
-0.399844,0.184359,12.033626,0.318466,0.556527,9.785666,0.079817,-0.230362,0.007617,-14.1,-3.9,-42.78,96.6276,-3.3137,-1.6055,984.7607,55.8557,37.480877,178.1053,NaN,,0.8806,3.0,75.6771,30 / 30,,3139,2021-05-20 22:07:02:601
0.181965,0.148445,12.280235,0.358616,0.56333,9.783887,0.154343,-0.286562,-0.011319,-14.64,-4.08,-42.12,96.6276,-3.3137,-1.6055,984.7607,55.8557,37.480877,178.1053,NaN,,0.8806,3.0,75.6771,30 / 30,,3150,2021-05-20 22:07:02:612
0.500403,0.359141,12.593885,0.358616,0.56333,9.783887,0.201991,-0.289616,-0.063854,-14.64,-4.08,-42.12,96.6276,-3.3137,-1.6055,984.7607,55.8557,37.480877,178.1053,NaN,,0.8806,3.0,75.6771,30 / 30,,3159,2021-05-20 22:07:02:621
0.598569,0.265765,12.605857,0.413397,0.598911,9.779611,0.20138,-0.247466,-0.112723,-14.16,-3.84,-42.24,97.1087,-3.2931,-2.0992,984.7354,55.8557,37.480877,178.1053,NaN,,0.8806,3.0,75.6771,30 / 30,,3169,2021-05-20 22:07:02:631
0.598569,0.265765,12.605857,0.413397,0.598911,9.779611,0.160452,-0.158891,-0.171977,-14.16,-3.84,-42.24,97.1087,-3.2931,-2.0992,984.7354,55.8557,37.480877,178.1053,NaN,,0.8806,3.0,75.6771,30 / 30,,3180,2021-05-20 22:07:02:642
0.306467,0.277736,12.51248,0.452798,0.636837,9.77547,0.144569,-0.108189,-0.178696,-14.16,-3.54,-42.3,97.1087,-3.2931,-2.0992,984.7354,55.8557,37.480877,178.1053,NaN,,0.8806,3.0,75.6771,30 / 30,,3189,2021-05-20 22:07:02:651
-0.158022,0.612934,12.488538,0.452798,0.636837,9.77547,0.168393,-0.092917,-0.168923,-14.16,-3.54,-42.3,97.1087,-3.2931,-2.0992,984.7354,55.8557,37.480877,178.1053,NaN,,0.8806,3.0,75.6771,30 / 30,,3200,2021-05-20 22:07:02:662
-0.715888,1.443748,11.693638,0.471162,0.667578,9.77255,0.151289,-0.138122,-0.164647,-15.0,-4.02,-41.82,95.3532,-3.7234,-2.652,984.7354,55.8557,37.480877,178.1053,NaN,,0.8806,3.0,75.6771,30 / 30,,3209,2021-05-20 22:07:02:671
-0.715888,1.443748,11.693638,0.479318,0.685273,9.770928,0.151289,-0.138122,-0.164647,-15.18,-4.5,-42.0,95.3532,-3.7234,-2.652,984.7354,55.8557,37.480877,178.1053,NaN,,0.8806,3.0,75.6771,30 / 30,,3219,2021-05-20 22:07:02:681
-0.423787,1.649655,11.056761,0.479318,0.685273,9.770928,0.023007,-0.223032,-0.192135,-15.18,-4.5,-42.0,95.3532,-3.7234,-2.652,984.7354,55.8557,37.480877,178.1053,NaN,,0.8806,3.0,75.6771,30 / 30,,3229,2021-05-20 22:07:02:691
0.943344,0.632089,10.364816,0.518026,0.691342,9.768525,-0.323964,-0.369029,-0.316752,-14.64,-4.5,-42.36,95.3532,-3.7234,-2.652,984.7354,55.8557,37.480877,178.1053,NaN,,0.8806,3.0,75.6771,30 / 30,,3240,2021-05-20 22:07:02:702
2.025557,-1.733455,13.163723,0.518026,0.691342,9.768525,-0.912839,-0.374526,-0.435871,-14.64,-4.5,-42.36,95.3532,-3.7234,-2.652,984.7354,55.8557,37.480877,178.1053,NaN,,0.8806,3.0,75.6771,30 / 30,,3249,2021-05-20 22:07:02:711
2.025557,-4.166038,17.638622,0.587718,0.56443,9.772738,-1.202389,-0.144841,-0.451753,-15.24,-4.5,-42.48,94.3816,-4.0426,-3.0356,984.7354,55.8557,37.480877,178.1053,NaN,,0.8806,3.0,75.6771,30 / 30,,3259,2021-05-20 22:07:02:721
1.683175,-4.166038,17.638622,0.587718,0.56443,9.772738,-1.143746,0.23023,-0.335078,-15.24,-4.5,-42.48,94.3816,-4.0426,-3.0356,984.74,55.8557,37.480877,178.1053,NaN,,0.8806,3.0,75.6771,30 / 30,,3269,2021-05-20 22:07:02:731
0.512375,-4.67123,19.815018,0.575613,0.338388,9.783893,-0.488898,0.737248,-0.019871,-16.08,-4.2,-42.42,94.3816,-4.0426,-3.0356,984.74,55.8557,37.480877,178.1053,NaN,,0.8806,3.0,75.6771,30 / 30,,3279,2021-05-20 22:07:02:741
0.186753,-3.668029,17.619469,0.575613,0.338388,9.783893,0.15923,0.860032,0.193931,-16.08,-4.2,-42.42,94.3816,-4.0426,-3.0356,984.74,55.8557,37.480877,178.1053,NaN,,0.8806,3.0,75.6771,30 / 30,,3290,2021-05-20 22:07:02:752
0.186753,-3.668029,17.619469,0.427824,0.287237,9.793101,1.031546,0.495346,0.3552,-16.08,-3.42,-41.82,96.4173,-1.9774,-3.367,984.74,55.8557,37.480877,178.1053,NaN,,0.8806,3.0,75.6771,30 / 30,,3299,2021-05-20 22:07:02:761
1.546702,-1.405439,11.892363,0.369672,0.373558,9.792558,1.385848,0.021925,0.277009,-16.08,-3.42,-41.82,96.4173,-1.9774,-3.367,984.74,55.8557,37.480877,178.1053,NaN,,0.8806,3.0,75.6771,30 / 30,,3310,2021-05-20 22:07:02:772
2.875524,0.883487,7.130151,0.369672,0.373558,9.792558,1.355915,-0.403237,0.0797,-15.36,-3.3,-41.7,96.4173,-1.9774,-3.367,984.74,55.8557,37.480877,178.1053,NaN,,0.8806,3.0,75.6771,30 / 30,,3319,2021-05-20 22:07:02:781
3.507613,2.073442,4.946572,0.400009,0.63744,9.777732,0.934418,-0.669574,-0.199466,-15.36,-3.3,-41.7,96.4173,-1.9774,-3.367,984.74,55.8557,37.480877,178.1053,NaN,,0.8806,3.0,75.6771,30 / 30,,3330,2021-05-20 22:07:02:792
2.904256,1.759792,6.083853,0.400009,0.63744,9.777732,0.134185,-0.620705,-0.51284,-15.06,-4.02,-42.6,95.0066,-3.7269,-2.3427,984.74,55.8557,37.480877,178.1053,NaN,,0.8806,3.0,75.6771,30 / 30,,3340,2021-05-20 22:07:02:802
2.904256,1.759792,6.083853,0.52799,0.772998,9.761868,-0.434531,-0.293892,-0.6118,-15.06,-4.02,-42.6,95.0066,-3.7269,-2.3427,984.74,55.8557,37.480877,178.1053,NaN,,0.8806,3.0,75.6771,30 / 30,,3349,2021-05-20 22:07:02:811
1.48445,0.366324,8.188421,0.52799,0.772998,9.761868,-0.856028,0.167922,-0.517116,-15.36,-4.86,-43.26,95.0066,-3.7269,-2.3427,984.74,55.8557,37.480877,178.1053,NaN,,0.8806,3.0,75.6771,30 / 30,,3359,2021-05-20 22:07:02:821
0.684763,-0.689551,9.294575,0.568813,0.688017,9.765934,-0.962319,0.372562,-0.392499,-15.36,-4.86,-43.26,95.0066,-3.7269,-2.3427,984.74,55.8557,37.480877,178.1053,NaN,,0.8806,3.0,75.6771,30 / 30,,3370,2021-05-20 22:07:02:832
0.304073,-1.197137,10.26665,0.568813,0.688017,9.765934,-0.962319,0.372562,-0.392499,-15.24,-4.8,-43.02,98.7267,-4.0231,-3.3334,984.74,55.8557,37.480877,178.1053,NaN,,0.8806,3.0,75.6771,30 / 30,,3379,2021-05-20 22:07:02:841
0.33041,-1.242629,10.532414,0.499432,0.508966,9.780691,-0.761955,0.456861,-0.210461,-15.3,-4.68,-42.54,98.7267,-4.0231,-3.3334,984.74,55.8557,37.480904,178.1758,NaN,,1.1905,3.0,77.3091,30 / 30,,3389,2021-05-20 22:07:02:851
0.33041,-1.242629,10.532414,0.499432,0.508966,9.780691,-0.372223,0.419598,-0.080958,-15.3,-4.68,-42.54,98.7267,-4.0231,-3.3334,984.74,55.8557,37.480904,178.1758,NaN,,1.1905,3.0,77.3091,30 / 30,,3399,2021-05-20 22:07:02:861
0.89067,-0.466884,9.550762,0.413971,0.404459,9.789557,-0.051519,0.31453,-0.077904,-14.82,-3.78,-42.18,98.7267,-4.0231,-3.3334,984.74,55.8557,37.480904,178.1758,NaN,,1.1905,3.0,77.3091,30 / 30,,3409,2021-05-20 22:07:02:871
1.149252,0.428575,7.798153,0.383608,0.398859,9.791024,0.217873,0.152039,-0.142655,-14.82,-3.78,-42.18,98.7267,-4.0231,-3.3334,984.74,55.8557,37.480904,178.1758,NaN,,1.1905,3.0,77.3091,30 / 30,,3419,2021-05-20 22:07:02:881
1.077424,1.134886,6.407079,0.383608,0.398859,9.791024,0.412128,0.023758,-0.218403,-14.64,-3.36,-42.12,95.4226,-2.331,-2.2437,984.74,55.8557,37.480904,178.1758,NaN,,1.1905,3.0,77.3091,30 / 30,,3429,2021-05-20 22:07:02:891
0.837996,1.692752,5.394301,0.366513,0.460524,9.788972,0.49093,-0.03855,-0.302702,-14.64,-3.36,-42.12,95.4226,-2.331,-2.2437,984.74,55.8557,37.480904,178.1758,NaN,,1.1905,3.0,77.3091,30 / 30,,3439,2021-05-20 22:07:02:901
0.837996,1.692752,5.394301,0.366513,0.460524,9.788972,0.460997,-0.051379,-0.386391,-15.0,-3.66,-42.66,95.4226,-2.331,-2.2437,984.74,55.8557,37.480904,178.1758,NaN,,1.1905,3.0,77.3091,30 / 30,,3449,2021-05-20 22:07:02:911
0.311256,1.8819,4.54194,0.373577,0.5558,9.783757,0.302172,-0.002509,-0.44259,-15.0,-3.66,-42.66,95.4226,-2.331,-2.2437,984.74,55.8557,37.480904,178.1758,NaN,,1.1905,3.0,77.3091,30 / 30,,3459,2021-05-20 22:07:02:921
-0.150839,1.891477,4.288146,0.373577,0.5558,9.783757,0.10975,0.061631,-0.457862,-14.34,-4.5,-42.84,97.0536,-3.249,-2.1867,984.7488,55.8557,37.480904,178.1758,NaN,,1.1905,3.0,77.3091,30 / 30,,3470,2021-05-20 22:07:02:932
-0.488432,1.704724,4.750242,0.365796,0.60494,9.781137,-0.111383,0.191135,-0.432816,-14.34,-4.5,-42.84,97.0536,-3.249,-2.1867,984.7488,55.8557,37.480904,178.1758,NaN,,1.1905,3.0,77.3091,30 / 30,,3479,2021-05-20 22:07:02:941
-0.636877,1.448536,5.327262,0.365796,0.60494,9.781137,-0.243941,0.280932,-0.388834,-14.1,-4.8,-42.18,97.0536,-3.249,-2.1867,984.7488,55.8557,37.480904,178.1758,NaN,,1.1905,3.0,77.3091,30 / 30,,3489,2021-05-20 22:07:02:951
-0.536318,1.280937,6.035967,0.32181,0.58528,9.783878,-0.325797,0.306588,-0.357069,-14.1,-4.8,-42.18,97.0536,-3.249,-2.1867,984.7488,55.8557,37.480904,178.1758,NaN,,1.1905,3.0,77.3091,30 / 30,,3500,2021-05-20 22:07:02:962
-0.536318,1.280937,6.035967,0.32181,0.58528,9.783878,-0.34229,0.270547,-0.3363,-14.52,-5.1,-42.36,100.2299,-3.4216,-1.8839,984.7488,55.8557,37.480904,178.1758,NaN,,1.1905,3.0,77.3091,30 / 30,,3509,2021-05-20 22:07:02:971
-0.450124,1.106155,6.914666,0.259475,0.526575,9.789064,-0.301362,0.196022,-0.326526,-14.52,-5.1,-42.36,100.2299,-3.4216,-1.8839,984.7488,55.8557,37.480904,178.1758,NaN,,1.1905,3.0,77.3091,30 / 30,,3519,2021-05-20 22:07:02:981
-0.366324,1.127703,7.580274,0.259475,0.526575,9.789064,-0.256158,0.108668,-0.317363,-14.4,-5.28,-42.78,100.2299,-3.4216,-1.8839,984.7488,55.8557,37.480904,178.1758,NaN,,1.1905,3.0,77.3091,30 / 30,,3530,2021-05-20 22:07:02:992
-0.114925,1.127703,8.293768,0.217267,0.471578,9.792895,-0.240887,0.064075,-0.313698,-14.4,-5.28,-42.78,100.2299,-3.4216,-1.8839,984.7488,55.8557,37.480904,178.1758,NaN,,1.1905,3.0,77.3091,30 / 30,,3540,2021-05-20 22:07:03:002
0.011971,0.960104,8.880365,0.217267,0.471578,9.792895,-0.253104,0.064075,-0.299037,-13.92,-4.98,-43.38,102.5859,-2.7563,-1.271,984.7488,55.8557,37.480904,178.1758,NaN,,1.1905,3.0,77.3091,30 / 30,,3550,2021-05-20 22:07:03:012
0.011971,0.960104,8.880365,0.200203,0.427304,9.795291,-0.305028,0.108668,-0.261774,-13.92,-4.98,-43.38,102.5859,-2.7563,-1.271,984.7488,55.8557,37.480904,178.1758,NaN,,1.1905,3.0,77.3091,30 / 30,,3560,2021-05-20 22:07:03:022
-0.045491,0.830813,9.766247,0.200203,0.427304,9.795291,-0.320299,0.177696,-0.211683,-13.86,-4.98,-43.2,102.5859,-2.7563,-1.271,984.7485,55.8557,37.480904,178.1758,NaN,,1.1905,3.0,77.3091,30 / 30,,3569,2021-05-20 22:07:03:031
-0.098165,0.878699,10.719169,0.178267,0.372985,9.797934,-0.279982,0.219846,-0.175031,-13.86,-4.98,-43.2,102.5859,-2.7563,-1.271,984.7485,55.8557,37.480904,178.1758,NaN,,1.1905,3.0,77.3091,30 / 30,,3579,2021-05-20 22:07:03:041
-0.217879,0.936161,11.140561,0.178267,0.372985,9.797934,-0.204846,0.232674,-0.143877,-13.92,-4.68,-42.96,104.2305,-2.1797,-1.0423,984.7485,55.8557,37.480904,178.1758,NaN,,1.1905,3.0,77.3091,30 / 30,,3589,2021-05-20 22:07:03:051
-0.217879,0.936161,11.140561,0.136457,0.317247,9.800567,-0.204846,0.232674,-0.143877,-13.92,-4.68,-42.96,104.2305,-2.1797,-1.0423,984.7485,55.8557,37.480904,178.1758,NaN,,1.1905,3.0,77.3091,30 / 30,,3599,2021-05-20 22:07:03:061
-0.440547,0.988836,11.142955,0.136457,0.317247,9.800567,-0.086949,0.133103,-0.065686,-14.1,-4.62,-43.32,104.2305,-2.1797,-1.0423,984.7485,55.8557,37.480904,178.1758,NaN,,1.1905,3.0,77.3091,30 / 30,,3610,2021-05-20 22:07:03:072
-0.715888,1.084607,11.171686,0.095174,0.288054,9.801956,-0.086949,0.133103,-0.065686,-14.1,-4.62,-43.32,104.2305,-2.1797,-1.0423,984.7485,55.8557,37.480904,178.1758,NaN,,1.1905,3.0,77.3091,30 / 30,,3619,2021-05-20 22:07:03:081
-0.811659,0.986441,11.212389,0.095174,0.288054,9.801956,-0.075953,0.063464,-0.010098,-14.22,-4.26,-42.66,101.3704,-1.6832,-0.5563,984.7485,55.8557,37.480904,178.1758,NaN,,1.1905,3.0,77.3091,30 / 30,,3630,2021-05-20 22:07:03:092
-0.797293,0.92419,11.696033,0.077438,0.273491,9.80253,-0.136429,0.006654,0.069315,-14.22,-4.26,-42.66,101.3704,-1.6832,-0.5563,984.7485,55.8557,37.480904,178.1758,NaN,,1.1905,3.0,77.3091,30 / 30,,3639,2021-05-20 22:07:03:101
-0.691945,0.713494,12.543606,0.077438,0.273491,9.80253,-0.198737,-0.007396,0.131623,-13.74,-3.84,-42.54,101.3704,-1.6832,-0.5563,984.7485,55.8557,37.480904,178.1758,NaN,,1.1905,3.0,77.3091,30 / 30,,3649,2021-05-20 22:07:03:111
-0.691945,0.713494,12.543606,0.077036,0.241856,9.803365,-0.234778,0.005432,0.202484,-13.74,-3.84,-42.54,101.3704,-1.6832,-0.5563,984.7485,55.8557,37.480904,178.1758,NaN,,1.1905,3.0,77.3091,30 / 30,,3659,2021-05-20 22:07:03:121
-0.407027,0.186753,13.609058,0.077036,0.241856,9.803365,-0.228669,0.030477,0.299611,-13.56,-4.26,-42.9,102.1273,-1.4132,-0.4502,984.7485,55.8557,37.480904,178.1758,NaN,,1.1905,3.0,77.3091,30 / 30,,3669,2021-05-20 22:07:03:131
-0.519558,0.007183,14.712819,0.074032,0.196356,9.804404,-0.120546,0.115998,0.409567,-13.56,-4.26,-42.9,102.1273,-1.4132,-0.4502,984.7485,55.8557,37.480904,178.1758,NaN,,1.1905,3.0,77.3091,30 / 30,,3679,2021-05-20 22:07:03:141
-0.761379,0.320833,14.779859,0.074032,0.196356,9.804404,0.016898,0.199076,0.522577,-13.8,-4.26,-42.36,102.1273,-1.4132,-0.4502,984.7485,55.8557,37.480904,178.1758,NaN,,1.1905,3.0,77.3091,30 / 30,,3690,2021-05-20 22:07:03:152
-0.761379,0.320833,14.779859,0.050697,0.176021,9.804939,0.142126,0.203352,0.610542,-13.8,-4.26,-42.36,102.1273,-1.4132,-0.4502,984.7485,55.8557,37.480904,178.1758,NaN,,1.1905,3.0,77.3091,30 / 30,,3699,2021-05-20 22:07:03:161
-0.34717,0.227456,13.999325,0.050697,0.176021,9.804939,0.195882,0.118442,0.653302,-13.62,-3.54,-42.3,103.2453,-1.0285,-0.2962,984.7485,55.8557,37.480904,178.1758,NaN,,1.1905,3.0,77.3091,30 / 30,,3710,2021-05-20 22:07:03:172
0.72786,-0.093377,13.759897,0.015827,0.203795,9.80452,0.219706,0.04636,0.645972,-13.62,-3.54,-42.3,103.2453,-1.0285,-0.2962,984.7485,55.8557,37.480904,178.1758,NaN,,1.1905,3.0,77.3091,30 / 30,,3719,2021-05-20 22:07:03:181
1.242629,-0.258582,14.645779,0.015827,0.203795,9.80452,0.29362,0.103781,0.603211,-13.44,-3.6,-42.66,103.2453,-1.0285,-0.2962,984.7485,55.8557,37.480904,178.1758,NaN,,1.1905,3.0,77.3091,30 / 30,,3729,2021-05-20 22:07:03:191
0.830813,-0.373507,15.036046,0.006138,0.248881,9.80349,0.578894,0.321249,0.583053,-13.44,-3.6,-42.66,103.2453,-1.0285,-0.2962,984.7485,55.8557,37.480904,178.1758,NaN,,1.1905,3.0,77.3091,30 / 30,,3739,2021-05-20 22:07:03:201
0.181965,-0.129291,13.479767,0.006138,0.248881,9.80349,0.874553,0.409825,0.583663,-13.38,-3.3,-43.08,98.3647,-1.4543,-0.0359,984.7485,55.8557,37.480904,178.1758,NaN,,1.1905,3.0,77.3091,30 / 30,,3750,2021-05-20 22:07:03:212
0.181965,-0.129291,13.479767,-0.046666,0.356368,9.800062,1.196479,0.365231,0.572668,-13.38,-3.3,-43.08,98.3647,-1.4543,-0.0359,984.7485,55.8557,37.480904,178.1758,NaN,,1.1905,3.0,77.3091,30 / 30,,3759,2021-05-20 22:07:03:221
-0.624906,0.579415,10.621003,-0.046666,0.356368,9.800062,1.196479,0.365231,0.572668,-13.14,-2.94,-43.26,98.3647,-1.4543,-0.0359,984.749,55.8557,37.480904,178.1758,NaN,,1.1905,3.0,77.3091,30 / 30,,3769,2021-05-20 22:07:03:231
-1.043904,1.486845,7.309721,-0.113762,0.577407,9.788976,1.330259,0.211904,0.520133,-13.14,-2.94,-43.26,98.3647,-1.4543,-0.0359,984.749,55.8557,37.480904,178.1758,NaN,,1.1905,3.0,77.3091,30 / 30,,3779,2021-05-20 22:07:03:241
-1.156435,2.099779,4.728693,-0.113762,0.577407,9.788976,0.856227,-0.267625,0.299,-12.42,-3.96,-43.14,96.7061,-3.3755,0.6658,984.749,55.8557,37.480904,178.1758,NaN,,1.1905,3.0,77.3091,30 / 30,,3790,2021-05-20 22:07:03:252
-1.156435,2.099779,4.728693,-0.115259,0.821417,9.771508,0.856227,-0.267625,0.299,-12.42,-3.96,-43.14,96.7061,-3.3755,0.6658,984.749,55.8557,37.480904,178.1758,NaN,,1.1905,3.0,77.3091,30 / 30,,3799,2021-05-20 22:07:03:261
-1.089395,1.783735,4.881927,-0.115259,0.821417,9.771508,0.199547,-0.4405,0.168275,-11.88,-5.4,-43.5,96.7061,-3.3755,0.6658,984.749,55.8557,37.480904,178.1758,NaN,,1.1905,3.0,77.3091,30 / 30,,3809,2021-05-20 22:07:03:271
-0.52674,0.67758,7.340847,-0.037254,0.904265,9.764799,-0.537156,-0.372694,0.066261,-11.88,-5.4,-43.5,96.7061,-3.3755,0.6658,984.749,55.8557,37.480904,178.1758,NaN,,1.1905,3.0,77.3091,30 / 30,,3819,2021-05-20 22:07:03:281
-0.52674,0.67758,7.340847,-0.037254,0.904265,9.764799,-1.052727,-0.188823,-0.013763,-12.42,-5.94,-43.38,99.3998,-5.2907,0.2186,984.749,55.8557,37.480904,178.1758,NaN,,1.1905,3.0,77.3091,30 / 30,,3829,2021-05-20 22:07:03:291
-0.256187,-0.806871,10.008069,0.016873,0.749329,9.777966,-1.416192,0.028645,-0.073017,-12.42,-5.94,-43.38,99.3998,-5.2907,0.2186,984.749,55.8557,37.480904,178.1758,NaN,,1.1905,3.0,77.3091,30 / 30,,3840,2021-05-20 22:07:03:302
-0.500403,-2.250618,12.318543,0.016873,0.749329,9.777966,-1.489495,0.233895,-0.067519,-12.42,-5.46,-43.2,99.3998,-5.2907,0.2186,984.749,55.8557,37.480904,178.1758,NaN,,1.1905,3.0,77.3091,30 / 30,,3850,2021-05-20 22:07:03:312
-0.739831,-3.06946,13.838908,-0.00869,0.463547,9.795685,-1.285466,0.353014,-0.008265,-12.42,-5.46,-43.2,99.3998,-5.2907,0.2186,984.749,55.8557,37.480904,178.1758,NaN,,1.1905,3.0,77.3091,30 / 30,,3859,2021-05-20 22:07:03:321
-0.92419,-3.292128,13.472585,-0.00869,0.463547,9.795685,-0.749127,0.367675,0.105967,-12.12,-4.86,-43.44,103.8247,-2.7093,0.0508,984.75,55.8557,37.480904,178.1758,NaN,,1.1905,3.0,77.3091,30 / 30,,3869,2021-05-20 22:07:03:331
-0.92419,-3.292128,13.472585,-0.081321,0.250328,9.803118,-0.242719,0.197244,0.220199,-12.12,-4.86,-43.44,103.8247,-2.7093,0.0508,984.75,55.8557,37.480904,178.1758,NaN,,1.1905,3.0,77.3091,30 / 30,,3879,2021-05-20 22:07:03:341
-0.816448,-2.770176,11.403931,-0.081321,0.250328,9.803118,0.122578,-0.016559,0.295946,-12.42,-3.78,-43.14,103.8247,-2.7093,0.0508,984.75,55.8557,37.480904,178.1758,NaN,,1.1905,3.0,77.3091,30 / 30,,3889,2021-05-20 22:07:03:351
-0.105348,-1.762186,9.419077,-0.104068,0.223634,9.803548,0.579505,-0.364142,0.354589,-12.42,-3.78,-43.14,103.8247,-2.7093,0.0508,984.75,55.8557,37.480904,178.1758,NaN,,1.1905,3.0,77.3091,30 / 30,,3899,2021-05-20 22:07:03:361
0.691945,-0.620117,7.680834,-0.104068,0.223634,9.803548,0.740163,-0.463713,0.3552,-12.72,-2.7,-42.96,98.5453,-1.3067,0.6082,984.75,55.8557,37.480904,178.1758,NaN,,1.1905,3.0,77.3091,30 / 30,,3909,2021-05-20 22:07:03:371
0.869122,0.22985,6.414263,-0.027841,0.341354,9.800668,0.723669,-0.41912,0.320991,-12.72,-2.7,-42.96,98.5453,-1.3067,0.6082,984.75,55.8557,37.480904,178.1758,NaN,,1.1905,3.0,77.3091,30 / 30,,3919,2021-05-20 22:07:03:381
0.869122,0.22985,6.414263,-0.027841,0.341354,9.800668,0.600275,-0.285951,0.288005,-12.96,-2.88,-43.44,98.5453,-1.3067,0.6082,984.75,55.8557,37.480904,178.1758,NaN,,1.1905,3.0,77.3091,30 / 30,,3929,2021-05-20 22:07:03:391
0.114925,0.806871,5.67922,0.04425,0.469264,9.795317,0.41335,-0.076424,0.296557,-12.96,-2.88,-43.44,98.5453,-1.3067,0.6082,984.75,55.8557,37.480904,178.1758,NaN,,1.1905,3.0,77.3091,30 / 30,,3939,2021-05-20 22:07:03:401
-0.514769,1.156435,5.226702,0.04425,0.469264,9.795317,0.220927,0.116609,0.344204,-13.02,-3.48,-43.86,93.9695,-2.7427,-0.2588,984.75,55.8557,37.480904,178.1758,NaN,,1.1905,3.0,77.3091,30 / 30,,3949,2021-05-20 22:07:03:411
-0.799688,1.376708,5.073468,0.043323,0.528839,9.792285,0.048663,0.277267,0.433391,-13.02,-3.48,-43.86,93.9695,-2.7427,-0.2588,984.75,55.8557,37.480904,178.1758,NaN,,1.1905,3.0,77.3091,30 / 30,,3959,2021-05-20 22:07:03:421
-0.773351,1.561067,5.106988,0.043323,0.528839,9.792285,-0.003871,0.288262,0.497531,-13.14,-3.9,-43.98,93.9695,-2.7427,-0.2588,984.75,55.8557,37.480904,178.1758,NaN,,1.1905,3.0,77.3091,30 / 30,,3969,2021-05-20 22:07:03:431
-0.773351,1.561067,5.106988,-0.006941,0.535065,9.79204,0.023007,0.174641,0.505473,-13.14,-3.9,-43.98,93.9695,-2.7427,-0.2588,984.75,55.8557,37.480904,178.1758,NaN,,1.1905,3.0,77.3091,30 / 30,,3979,2021-05-20 22:07:03:441
-0.64406,1.60177,5.317684,-0.006941,0.535065,9.79204,0.08165,0.017649,0.48226,-12.78,-4.08,-43.5,97.2098,-3.1277,0.0406,984.75,55.8557,37.480904,178.1758,NaN,,1.1905,3.0,77.3091,30 / 30,,3989,2021-05-20 22:07:03:451
-0.107742,1.800495,5.770202,-0.036897,0.540981,9.791648,0.125022,-0.148506,0.396128,-12.78,-4.08,-43.5,97.2098,-3.1277,0.0406,984.75,55.8557,37.480904,178.1758,NaN,,1.1905,3.0,77.3091,30 / 30,,3999,2021-05-20 22:07:03:461
0.095771,1.680781,6.313703,-0.036897,0.540981,9.791648,0.125022,-0.148506,0.396128,-12.6,-3.72,-42.9,97.2098,-3.1277,0.0406,984.75,55.8557,37.480904,178.1758,NaN,,1.1905,3.0,77.3091,30 / 30,,4009,2021-05-20 22:07:03:471
0.045491,1.350371,7.192402,-0.009167,0.565689,9.790317,0.028505,-0.286562,0.22814,-12.6,-3.72,-42.9,97.2098,-3.1277,0.0406,984.75,55.8557,37.480904,178.1758,NaN,,1.1905,3.0,77.3091,30 / 30,,4019,2021-05-20 22:07:03:481
0.045491,1.350371,7.192402,-0.009167,0.565689,9.790317,-0.029527,-0.279842,0.182325,-12.9,-3.84,-43.2,96.6209,-3.3069,0.0536,984.75,55.8557,37.480904,178.1758,NaN,,1.1905,3.0,77.3091,30 / 30,,4030,2021-05-20 22:07:03:492
-0.186753,1.098972,8.085467,0.047588,0.577164,9.789536,-0.029527,-0.279842,0.182325,-12.9,-3.84,-43.2,96.6209,-3.3069,0.0536,984.75,55.8557,37.480904,178.1758,NaN,,1.1905,3.0,77.3091,30 / 30,,4039,2021-05-20 22:07:03:501
-0.411815,0.718282,9.268238,0.047588,0.577164,9.789536,-0.080229,-0.29206,0.170108,-12.96,-4.02,-43.5,96.6209,-3.3069,0.0536,984.75,55.8557,37.480904,178.1758,NaN,,1.1905,3.0,77.3091,30 / 30,,4049,2021-05-20 22:07:03:511
-0.481249,0.57702,10.38397,0.104336,0.566488,9.789719,-0.086338,-0.27862,0.181103,-12.96,-4.02,-43.5,96.6209,-3.3069,0.0536,984.75,55.8557,37.480904,178.1758,NaN,,1.1905,3.0,77.3091,30 / 30,,4059,2021-05-20 22:07:03:521
-0.481249,0.57702,10.38397,0.104336,0.566488,9.789719,-0.020364,-0.274344,0.203094,-13.2,-3.78,-43.5,96.8275,-3.3116,-0.6106,984.7415,55.8557,37.480904,178.1758,NaN,,1.1905,3.0,77.3091,30 / 30,,4069,2021-05-20 22:07:03:531
-0.249005,0.493221,10.788602,0.159274,0.557142,9.789515,0.0395,-0.284729,0.218977,-13.2,-3.78,-43.5,96.8275,-3.3116,-0.6106,984.7415,55.8557,37.480904,178.1758,NaN,,1.1905,3.0,77.3091,30 / 30,,4080,2021-05-20 22:07:03:542
0.299284,0.548289,11.083098,0.159274,0.557142,9.789515,0.08837,-0.334209,0.212868,-13.08,-3.96,-43.02,96.8275,-3.3116,-0.6106,984.7415,55.8557,37.480904,178.1758,NaN,,1.1905,3.0,77.3091,30 / 30,,4089,2021-05-20 22:07:03:551
0.926584,0.579415,11.303371,0.221316,0.569537,9.787596,0.095089,-0.394074,0.149949,-13.08,-3.96,-43.02,96.8275,-3.3116,-0.6106,984.7415,55.8557,37.480904,178.1758,NaN,,1.1905,3.0,77.3091,30 / 30,,4099,2021-05-20 22:07:03:561
0.926584,0.579415,11.303371,0.221316,0.569537,9.787596,0.03217,-0.377581,0.071147,-13.38,-4.38,-42.66,97.0145,-3.3294,-1.2953,984.7415,55.8557,37.480904,178.1758,NaN,,1.1905,3.0,77.3091,30 / 30,,4109,2021-05-20 22:07:03:571
1.405439,0.490826,11.808563,0.298374,0.58584,9.784587,-0.079007,-0.32749,-0.035754,-13.38,-4.38,-42.66,97.0145,-3.3294,-1.2953,984.7415,55.8557,37.480904,178.1758,NaN,,1.1905,3.0,77.3091,30 / 30,,4120,2021-05-20 22:07:03:582
1.122915,0.047885,12.747119,0.298374,0.58584,9.784587,-0.138872,-0.279231,-0.112112,-13.62,-3.72,-42.72,97.0145,-3.3294,-1.2953,984.7415,55.8557,37.480904,178.1758,NaN,,1.1905,3.0,77.3091,30 / 30,,4130,2021-05-20 22:07:03:592
0.220273,-0.146051,13.795812,0.361534,0.57167,9.783296,-0.110772,-0.206538,-0.119442,-13.62,-3.72,-42.72,97.0145,-3.3294,-1.2953,984.7415,55.8557,37.480904,178.1758,NaN,,1.1905,3.0,77.3091,30 / 30,,4139,2021-05-20 22:07:03:601
0.220273,-0.146051,13.795812,0.361534,0.57167,9.783296,0.041944,-0.158891,-0.107836,-13.56,-3.12,-42.96,92.1233,-3.3419,-2.1164,984.7415,55.8557,37.480904,178.1758,NaN,,1.1905,3.0,77.3091,30 / 30,,4150,2021-05-20 22:07:03:612
-0.581809,0.586597,13.293014,0.399824,0.555226,9.782753,0.112804,-0.212647,-0.051636,-13.56,-3.12,-42.96,92.1233,-3.3419,-2.1164,984.7415,55.8557,37.480904,178.1758,NaN,,1.1905,3.0,77.3091,30 / 30,,4159,2021-05-20 22:07:03:621
-0.198725,0.926584,12.234744,0.399824,0.555226,9.782753,0.057826,-0.300001,-0.08218,-14.04,-3.24,-43.2,92.1233,-3.3419,-2.1164,984.7441,55.8557,37.480904,178.1758,NaN,,1.1905,3.0,77.3091,30 / 30,,4169,2021-05-20 22:07:03:631
0.938556,0.442941,10.91071,0.439058,0.574078,9.779982,-0.259824,-0.439278,-0.178696,-14.04,-3.24,-43.2,92.1233,-3.3419,-2.1164,984.7441,55.8557,37.480904,178.1758,NaN,,1.1905,3.0,77.3091,30 / 30,,4180,2021-05-20 22:07:03:642
0.938556,0.442941,10.91071,0.439058,0.574078,9.779982,-0.259824,-0.439278,-0.178696,-14.46,-3.66,-43.02,96.8185,-3.356,-2.5705,984.7441,55.8557,37.480904,178.1758,NaN,,1.1905,3.0,77.3091,30 / 30,,4189,2021-05-20 22:07:03:651
2.243436,-0.92419,12.6298,0.513811,0.546643,9.777912,-1.052727,-0.146063,-0.335689,-14.46,-3.66,-43.02,96.8185,-3.356,-2.5705,984.7441,55.8557,37.480904,178.1758,NaN,,1.1905,3.0,77.3091,30 / 30,,4200,2021-05-20 22:07:03:662
2.303292,-3.15326,16.338531,0.513811,0.546643,9.777912,-1.052727,-0.146063,-0.335689,-14.58,-4.44,-42.36,96.8185,-3.356,-2.5705,984.7441,55.8557,37.480904,178.1758,NaN,,1.1905,3.0,77.3091,30 / 30,,4210,2021-05-20 22:07:03:672
1.201926,-4.37434,19.008148,0.559486,0.367998,9.783759,-1.033179,0.32186,-0.248335,-14.58,-4.44,-42.36,96.8185,-3.356,-2.5705,984.7441,55.8557,37.480904,178.1758,NaN,,1.1905,3.0,77.3091,30 / 30,,4219,2021-05-20 22:07:03:681
1.201926,-4.37434,19.008148,0.559486,0.367998,9.783759,-0.528604,0.706094,-0.024758,-15.18,-3.36,-42.42,96.3165,-2.1506,-3.2729,984.7441,55.8557,37.480904,178.1758,NaN,,1.1905,3.0,77.3091,30 / 30,,4230,2021-05-20 22:07:03:692
0.210696,-3.64648,17.389618,0.458381,0.215274,9.793566,0.282625,0.831933,0.246466,-15.18,-3.36,-42.42,96.3165,-2.1506,-3.2729,984.7441,55.8557,37.480904,178.1758,NaN,,1.1905,3.0,77.3091,30 / 30,,4240,2021-05-20 22:07:03:702
1.149252,-1.549096,11.669696,0.458381,0.215274,9.793566,1.0908,0.429983,0.372304,-15.72,-2.46,-42.3,96.3165,-2.1506,-3.2729,984.7441,55.8557,37.480904,178.1758,NaN,,1.1905,3.0,77.3091,30 / 30,,4250,2021-05-20 22:07:03:712
2.286533,0.579415,7.039168,0.325881,0.334177,9.795535,1.336978,0.04636,0.316715,-15.72,-2.46,-42.3,96.3165,-2.1506,-3.2729,984.7441,55.8557,37.480904,178.1758,NaN,,1.1905,3.0,77.3091,30 / 30,,4260,2021-05-20 22:07:03:722
2.286533,0.579415,7.039168,0.325881,0.334177,9.795535,1.206253,-0.518691,0.062595,-15.3,-2.52,-42.3,96.5077,-1.9528,-1.9054,984.7441,55.8557,37.480904,178.1758,NaN,,1.1905,3.0,77.3091,30 / 30,,4269,2021-05-20 22:07:03:731
3.201146,2.150059,4.467717,0.366079,0.586521,9.782248,0.842177,-0.741046,-0.165257,-15.3,-2.52,-42.3,96.5077,-1.9528,-1.9054,984.7441,55.8557,37.480904,178.1758,NaN,,1.1905,3.0,77.3091,30 / 30,,4279,2021-05-20 22:07:03:741
3.007209,1.980065,5.470918,0.366079,0.586521,9.782248,0.071876,-0.693398,-0.467025,-14.88,-2.52,-43.2,96.5077,-1.9528,-1.9054,984.7441,55.8557,37.480904,178.1758,NaN,,1.1905,3.0,77.3091,30 / 30,,4289,2021-05-20 22:07:03:751
1.747821,1.089395,7.529995,0.506617,0.68436,9.769615,-0.598243,-0.305499,-0.593474,-14.88,-2.52,-43.2,96.5077,-1.9528,-1.9054,984.7441,55.8557,37.480904,178.1758,NaN,,1.1905,3.0,77.3091,30 / 30,,4299,2021-05-20 22:07:03:761
0.919402,-0.579414,9.081485,0.506617,0.68436,9.769615,-0.97759,0.098894,-0.538496,-14.94,-3.42,-43.32,89.7382,-4.0017,-2.9685,984.7441,55.8557,37.480904,178.1758,NaN,,1.1905,3.0,77.3091,30 / 30,,4310,2021-05-20 22:07:03:772
0.919402,-0.579414,9.081485,0.551216,0.568063,9.774654,-1.020962,0.235728,-0.415101,-14.94,-3.42,-43.32,89.7382,-4.0017,-2.9685,984.7441,55.8557,37.480904,178.1758,NaN,,1.1905,3.0,77.3091,30 / 30,,4319,2021-05-20 22:07:03:781
0.407027,-1.573039,10.522838,0.551216,0.568063,9.774654,-0.862137,0.251,-0.263607,-14.88,-4.32,-43.32,89.7382,-4.0017,-2.9685,984.7441,55.8557,37.480904,178.1758,NaN,,1.1905,3.0,77.3091,30 / 30,,4329,2021-05-20 22:07:03:791
0.459701,-1.479662,11.260275,0.508764,0.375781,9.786232,-0.579306,0.244891,-0.137158,-14.88,-4.32,-43.32,89.7382,-4.0017,-2.9685,984.7441,55.8557,37.480904,178.1758,NaN,,1.1905,3.0,77.3091,30 / 30,,4340,2021-05-20 22:07:03:802
1.043904,-0.988835,10.853248,0.508764,0.375781,9.786232,-0.246385,0.200298,-0.09684,-15.42,-3.72,-42.42,100.4472,-2.1961,-2.976,984.7441,55.8557,37.480904,178.1758,NaN,,1.1905,3.0,77.3091,30 / 30,,4349,2021-05-20 22:07:03:811
1.381497,-0.124502,9.447808,0.462234,0.256222,9.792399,0.075541,0.100116,-0.123719,-15.42,-3.72,-42.42,100.4472,-2.1961,-2.976,984.7441,55.8557,37.480904,178.1758,NaN,,1.1905,3.0,77.3091,30 / 30,,4359,2021-05-20 22:07:03:821
1.381497,-0.124502,9.447808,0.462234,0.256222,9.792399,0.324164,-0.049546,-0.217792,-15.66,-2.88,-42.36,100.4472,-2.1961,-2.976,984.7395,55.8557,37.480904,178.1758,NaN,,1.1905,3.0,77.3091,30 / 30,,4369,2021-05-20 22:07:03:831
1.419805,0.761379,7.580274,0.442529,0.265214,9.79307,0.454889,-0.191267,-0.339354,-15.66,-2.88,-42.36,100.4472,-2.1961,-2.976,984.7395,55.8557,37.480904,178.1758,NaN,,1.1905,3.0,77.3091,30 / 30,,4380,2021-05-20 22:07:03:842
1.089395,1.194743,6.737489,0.455335,0.304763,9.791331,0.454889,-0.191267,-0.339354,-14.7,-2.4,-42.78,93.5939,-1.5497,-2.5873,984.7395,55.8557,37.480904,178.1758,NaN,,1.1905,3.0,77.3091,30 / 30,,4389,2021-05-20 22:07:03:851
0.517163,1.589799,5.67922,0.455335,0.304763,9.791331,0.438395,-0.158891,-0.387612,-14.7,-2.4,-42.78,93.5939,-1.5497,-2.5873,984.7395,55.8557,37.480904,178.1758,NaN,,1.1905,3.0,77.3091,30 / 30,,4399,2021-05-20 22:07:03:861
-0.136474,1.704724,5.274588,0.486508,0.393341,9.786674,0.331494,-0.044659,-0.423653,-14.28,-2.46,-42.54,93.5939,-1.5497,-2.5873,984.7395,55.85571,37.48093,178.0953,NaN,,1.3548,3.0,72.7155,30 / 30,,4410,2021-05-20 22:07:03:872
-0.136474,1.704724,5.274588,0.486508,0.393341,9.786674,0.1519,0.120274,-0.369286,-14.28,-2.46,-42.54,93.5939,-1.5497,-2.5873,984.7395,55.85571,37.48093,178.0953,NaN,,1.3548,3.0,72.7155,30 / 30,,4419,2021-05-20 22:07:03:881
-0.167599,1.515576,5.186,0.473922,0.441595,9.785233,0.002848,0.210683,-0.335689,-14.64,-2.82,-42.12,95.6911,-2.2987,-2.8459,984.7395,55.85571,37.48093,178.0953,NaN,,1.3548,3.0,72.7155,30 / 30,,4429,2021-05-20 22:07:03:891
-0.05028,1.50121,5.602603,0.473922,0.441595,9.785233,-0.092447,0.245502,-0.3082,-14.64,-2.82,-42.12,95.6911,-2.2987,-2.8459,984.7395,55.85571,37.48093,178.0953,NaN,,1.3548,3.0,72.7155,30 / 30,,4440,2021-05-20 22:07:03:902
0.134079,1.292908,6.555525,0.427174,0.4371,9.787586,-0.11627,0.247334,-0.29415,-14.82,-3.12,-42.42,95.6911,-2.2987,-2.8459,984.7395,55.85571,37.48093,178.0953,NaN,,1.3548,3.0,72.7155,30 / 30,,4449,2021-05-20 22:07:03:911
0.117319,1.127703,6.778192,0.427174,0.4371,9.787586,-0.082062,0.243058,-0.291706,-14.82,-3.12,-42.42,95.6911,-2.2987,-2.8459,984.7395,55.85571,37.48093,178.0953,NaN,,1.3548,3.0,72.7155,30 / 30,,4460,2021-05-20 22:07:03:922
0.117319,1.127703,6.778192,0.376489,0.421335,9.790359,-0.044188,0.191746,-0.284376,-15.12,-3.6,-42.72,98.8958,-2.5546,-2.4991,984.7485,55.85571,37.48093,178.0953,NaN,,1.3548,3.0,72.7155,30 / 30,,4471,2021-05-20 22:07:03:933
0.081405,1.30488,6.969734,0.376489,0.421335,9.790359,0.005903,0.093396,-0.256276,-15.12,-3.6,-42.72,98.8958,-2.5546,-2.4991,984.7485,55.85571,37.48093,178.0953,NaN,,1.3548,3.0,72.7155,30 / 30,,4479,2021-05-20 22:07:03:941
0.5435,1.460508,6.926637,0.345175,0.420732,9.791538,0.012011,0.012762,-0.272159,-15.06,-4.08,-42.78,98.8958,-2.5546,-2.4991,984.7485,55.85571,37.48093,178.0953,NaN,,1.3548,3.0,72.7155,30 / 30,,4489,2021-05-20 22:07:03:951
0.699128,1.458113,7.537177,0.345175,0.420732,9.791538,-0.063736,-0.068483,-0.324082,-15.06,-4.08,-42.78,98.8958,-2.5546,-2.4991,984.7485,55.85571,37.48093,178.0953,NaN,,1.3548,3.0,72.7155,30 / 30,,4500,2021-05-20 22:07:03:962
0.699128,1.458113,7.537177,0.347339,0.421972,9.791409,-0.142537,-0.048935,-0.346073,-14.64,-3.78,-43.2,98.9818,-2.4589,-2.019,984.7485,55.85571,37.48093,178.0953,NaN,,1.3548,3.0,72.7155,30 / 30,,4509,2021-05-20 22:07:03:971
0.375901,1.436565,8.46855,0.347339,0.421972,9.791409,-0.206067,0.002988,-0.303924,-14.64,-3.78,-43.2,98.9818,-2.4589,-2.019,984.7485,55.85571,37.48093,178.0953,NaN,,1.3548,3.0,72.7155,30 / 30,,4520,2021-05-20 22:07:03:982
0.275342,1.087001,9.352037,0.350656,0.395939,9.792377,-0.228059,0.03964,-0.261774,-14.76,-3.54,-42.96,98.9818,-2.4589,-2.019,984.7485,55.85571,37.48093,178.0953,NaN,,1.3548,3.0,72.7155,30 / 30,,4529,2021-05-20 22:07:03:991
0.10056,0.969681,10.28341,0.350656,0.395939,9.792377,-0.210954,0.093396,-0.198244,-14.76,-3.54,-42.96,98.9818,-2.4589,-2.019,984.7485,55.85571,37.48093,178.0953,NaN,,1.3548,3.0,72.7155,30 / 30,,4540,2021-05-20 22:07:04:002
0.105348,1.039115,10.568329,0.339001,0.356614,9.794299,-0.188963,0.130048,-0.13899,-14.76,-4.32,-42.48,99.5967,-2.3139,-2.0508,984.7485,55.85571,37.48093,178.0953,NaN,,1.3548,3.0,72.7155,30 / 30,,4550,2021-05-20 22:07:04:012
0.105348,1.039115,10.568329,0.339001,0.356614,9.794299,-0.173692,0.14532,-0.101117,-14.76,-4.32,-42.48,99.5967,-2.3139,-2.0508,984.7485,55.85571,37.48093,178.0953,NaN,,1.3548,3.0,72.7155,30 / 30,,4559,2021-05-20 22:07:04:021
0.06704,0.933767,11.109435,0.311853,0.322802,9.796373,-0.148646,0.12394,-0.068741,-14.64,-4.08,-42.36,99.5967,-2.3139,-2.0508,984.7485,55.85571,37.48093,178.0953,NaN,,1.3548,3.0,72.7155,30 / 30,,4569,2021-05-20 22:07:04:031
0.081405,0.821236,11.576319,0.311853,0.322802,9.796373,-0.108329,0.078125,-0.046139,-14.64,-4.08,-42.36,99.5967,-2.3139,-2.0508,984.7485,55.85571,37.48093,178.0953,NaN,,1.3548,3.0,72.7155,30 / 30,,4579,2021-05-20 22:07:04:041
-0.076617,0.816448,12.177281,0.288308,0.296752,9.797918,-0.062514,0.056744,-0.005822,-14.58,-3.42,-42.42,96.6861,-1.8863,-1.8233,984.7485,55.85571,37.48093,178.0953,NaN,,1.3548,3.0,72.7155,30 / 30,,4589,2021-05-20 22:07:04:051
-0.052674,0.536318,12.835708,0.288308,0.296752,9.797918,-0.022808,0.042695,0.024722,-14.58,-3.42,-42.42,96.6861,-1.8863,-1.8233,984.7485,55.85571,37.48093,178.0953,NaN,,1.3548,3.0,72.7155,30 / 30,,4599,2021-05-20 22:07:04:061
-0.052674,0.536318,12.835708,0.276573,0.285235,9.798599,0.013233,0.077514,0.084587,-14.04,-3.18,-42.78,96.6861,-1.8863,-1.8233,984.7485,55.85571,37.48093,178.0953,NaN,,1.3548,3.0,72.7155,30 / 30,,4609,2021-05-20 22:07:04:071
-0.019154,0.36393,13.223579,0.276573,0.285235,9.798599,0.036446,0.13799,0.146895,-14.04,-3.18,-42.78,96.6861,-1.8863,-1.8233,984.7485,55.85571,37.48093,178.0953,NaN,,1.3548,3.0,72.7155,30 / 30,,4620,2021-05-20 22:07:04:082
-0.253793,-0.043097,13.577932,0.262089,0.287553,9.798929,0.061492,0.263828,0.266624,-13.8,-3.3,-43.14,97.6587,-1.6803,-1.5321,984.7485,55.85571,37.48093,178.0953,NaN,,1.3548,3.0,72.7155,30 / 30,,4629,2021-05-20 22:07:04:091
-0.687157,0.090982,13.549201,0.24529,0.29171,9.799241,0.081039,0.337743,0.402236,-13.8,-3.24,-42.78,97.6587,-1.6803,-1.5321,984.7485,55.85571,37.48093,178.0953,NaN,,1.3548,3.0,72.7155,30 / 30,,4640,2021-05-20 22:07:04:102
-0.864333,0.430969,12.761485,0.24529,0.29171,9.799241,0.081039,0.337743,0.402236,-13.8,-3.24,-42.78,97.6587,-1.6803,-1.5321,984.7485,55.85571,37.48093,178.0953,NaN,,1.3548,3.0,72.7155,30 / 30,,4649,2021-05-20 22:07:04:111
-0.864333,0.430969,12.761485,0.185799,0.304623,9.800157,0.059048,0.249167,0.483482,-13.98,-3.42,-42.6,97.6587,-1.6803,-1.5321,984.7485,55.85571,37.48093,178.0953,NaN,,1.3548,3.0,72.7155,30 / 30,,4660,2021-05-20 22:07:04:122
0.210696,0.040703,12.639377,0.185799,0.304623,9.800157,-0.011812,0.040251,0.502418,-13.98,-3.42,-42.6,97.6587,-1.6803,-1.5321,984.7524,55.85571,37.48093,178.0953,NaN,,1.3548,3.0,72.7155,30 / 30,,4669,2021-05-20 22:07:04:131
0.921796,-0.533923,14.583528,0.1619,0.307135,9.800502,-0.014867,0.031088,0.50364,-13.98,-3.54,-43.32,101.3847,-1.7801,-1.0861,984.7524,55.85571,37.48093,178.0953,NaN,,1.3548,3.0,72.7155,30 / 30,,4680,2021-05-20 22:07:04:142
0.883487,-0.679974,15.273079,0.160211,0.304798,9.800603,0.107306,0.177085,0.490812,-14.16,-3.18,-43.32,101.3847,-1.7801,-1.0861,984.7524,55.85571,37.48093,178.0953,NaN,,1.3548,3.0,72.7155,30 / 30,,4689,2021-05-20 22:07:04:151
0.883487,-0.679974,15.273079,0.160211,0.304798,9.800603,0.547129,0.37806,0.473708,-14.16,-3.18,-43.32,101.3847,-1.7801,-1.0861,984.7524,55.85571,37.48093,178.0953,NaN,,1.3548,3.0,72.7155,30 / 30,,4699,2021-05-20 22:07:04:161
0.354353,-0.301679,13.051192,0.111716,0.349738,9.799775,0.756045,0.293149,0.44744,-13.8,-3.18,-43.02,101.3847,-1.7801,-1.0861,984.7524,55.85571,37.48093,178.0953,NaN,,1.3548,3.0,72.7155,30 / 30,,4709,2021-05-20 22:07:04:171
-0.339987,0.622511,10.204399,0.111716,0.349738,9.799775,0.868445,0.176474,0.39796,-13.8,-3.18,-43.02,101.3847,-1.7801,-1.0861,984.7524,55.85571,37.48093,178.0953,NaN,,1.3548,3.0,72.7155,30 / 30,,4719,2021-05-20 22:07:04:181
-0.735042,1.438959,7.089448,0.055088,0.490542,9.794219,0.868445,0.176474,0.39796,-13.38,-3.48,-42.84,96.6544,-2.0438,-0.6531,984.7524,55.85571,37.48093,178.0953,NaN,,1.3548,3.0,72.7155,30 / 30,,4729,2021-05-20 22:07:04:191
-0.984047,1.941757,5.770202,0.055088,0.490542,9.794219,0.666859,-0.080089,0.288616,-13.38,-3.48,-42.84,96.6544,-2.0438,-0.6531,984.7524,55.85571,37.48093,178.0953,NaN,,1.3548,3.0,72.7155,30 / 30,,4739,2021-05-20 22:07:04:201
-0.984047,1.941757,5.770202,0.058153,0.63429,9.785943,0.282014,-0.251742,0.189044,-12.78,-3.72,-43.08,96.6544,-2.0438,-0.6531,984.7524,55.85571,37.48093,178.0953,NaN,,1.3548,3.0,72.7155,30 / 30,,4750,2021-05-20 22:07:04:212
-0.744619,1.561067,6.517216,0.058153,0.63429,9.785943,-0.173081,-0.331155,0.089473,-12.78,-3.72,-43.08,96.6544,-2.0438,-0.6531,984.7524,55.85571,37.48093,178.0953,NaN,,1.3548,3.0,72.7155,30 / 30,,4759,2021-05-20 22:07:04:221
-0.725465,0.612934,9.179649,0.118879,0.623367,9.786096,-0.618401,-0.206538,0.00212,-12.78,-4.02,-43.02,95.7155,-3.6445,-0.696,984.7512,55.85571,37.48093,178.0953,NaN,,1.3548,3.0,72.7155,30 / 30,,4769,2021-05-20 22:07:04:231
-0.390267,-0.56026,10.642551,0.118879,0.623367,9.786096,-0.800439,-0.10208,-0.071795,-12.78,-4.02,-43.02,95.7155,-3.6445,-0.696,984.7512,55.85571,37.48093,178.0953,NaN,,1.3548,3.0,72.7155,30 / 30,,4779,2021-05-20 22:07:04:241
-0.239427,-1.901054,11.743917,0.149261,0.487099,9.793407,-0.83648,-0.081311,-0.101117,-13.44,-3.96,-43.26,95.7155,-3.6445,-0.696,984.7512,55.85571,37.48093,178.0953,NaN,,1.3548,3.0,72.7155,30 / 30,,4790,2021-05-20 22:07:04:252
-0.239427,-1.901054,11.743917,0.149261,0.487099,9.793407,-0.786389,-0.072148,-0.087677,-13.44,-3.96,-43.26,95.7155,-3.6445,-0.696,984.7512,55.85571,37.48093,178.0953,NaN,,1.3548,3.0,72.7155,30 / 30,,4800,2021-05-20 22:07:04:262
0.06704,-2.746233,12.682474,0.163427,0.326308,9.799857,-0.630008,0.020093,-0.032089,-13.68,-3.54,-43.2,97.889,-2.8471,-0.8732,984.7512,55.85571,37.48093,178.0953,NaN,,1.3548,3.0,72.7155,30 / 30,,4809,2021-05-20 22:07:04:271
0.225062,-2.949746,12.964998,0.163427,0.326308,9.799857,-0.395436,0.098283,0.028387,-13.68,-3.54,-43.2,97.889,-2.8471,-0.8732,984.7512,55.85571,37.48093,178.0953,NaN,,1.3548,3.0,72.7155,30 / 30,,4819,2021-05-20 22:07:04:281
0.232245,-2.590605,11.930672,0.158981,0.203652,9.803246,-0.00998,0.108057,0.119406,-13.8,-3.24,-43.08,97.889,-2.8471,-0.8732,984.7512,55.85571,37.48093,178.0953,NaN,,1.3548,3.0,72.7155,30 / 30,,4829,2021-05-20 22:07:04:291
0.201119,-1.802889,9.857229,0.158981,0.203652,9.803246,0.27896,0.043916,0.190266,-13.8,-3.24,-43.08,97.889,-2.8471,-0.8732,984.7512,55.85571,37.48093,178.0953,NaN,,1.3548,3.0,72.7155,30 / 30,,4839,2021-05-20 22:07:04:301
0.416604,-0.82363,7.659285,0.13853,0.190433,9.803823,0.492762,-0.055044,0.248298,-13.32,-2.88,-43.26,99.6976,-1.1899,-0.9291,984.7512,55.85571,37.48093,178.0953,NaN,,1.3548,3.0,72.7155,30 / 30,,4849,2021-05-20 22:07:04:311
0.416604,-0.82363,7.659285,0.138161,0.224625,9.803103,0.589279,-0.141176,0.264181,-13.26,-2.64,-42.78,99.6976,-1.1899,-0.9291,984.7512,55.85571,37.48093,178.0953,NaN,,1.3548,3.0,72.7155,30 / 30,,4859,2021-05-20 22:07:04:321
0.634483,0.167599,5.832454,0.138161,0.224625,9.803103,0.577062,-0.182715,0.254407,-13.26,-2.64,-42.78,99.6976,-1.1899,-0.9291,984.7546,55.85571,37.48093,178.0953,NaN,,1.3548,3.0,72.7155,30 / 30,,4870,2021-05-20 22:07:04:332
0.596174,1.151646,4.642499,0.164407,0.332884,9.79962,0.446948,-0.144841,0.217755,-13.32,-2.58,-42.18,99.6976,-1.1899,-0.9291,984.7546,55.85571,37.48093,178.0953,NaN,,1.3548,3.0,72.7155,30 / 30,,4880,2021-05-20 22:07:04:342
0.05028,1.565856,3.996045,0.164407,0.332884,9.79962,0.256968,-0.049546,0.213479,-13.32,-2.58,-42.18,99.6976,-1.1899,-0.9291,984.7546,55.85571,37.48093,178.0953,NaN,,1.3548,3.0,72.7155,30 / 30,,4889,2021-05-20 22:07:04:351
0.05028,1.565856,3.996045,0.197419,0.425608,9.795421,0.256968,-0.049546,0.213479,-13.5,-2.94,-42.12,97.2566,-1.9453,-0.9612,984.7546,55.85571,37.48093,178.0953,NaN,,1.3548,3.0,72.7155,30 / 30,,4899,2021-05-20 22:07:04:361
-0.605751,1.845986,4.079845,0.197419,0.425608,9.795421,0.052329,0.071405,0.251964,-13.5,-2.94,-42.12,97.2566,-1.9453,-0.9612,984.7546,55.85571,37.48093,178.0953,NaN,,1.3548,3.0,72.7155,30 / 30,,4909,2021-05-20 22:07:04:371
-0.624906,1.874717,4.573065,0.192196,0.444164,9.794701,-0.163918,0.171587,0.304498,-13.2,-3.12,-42.78,97.2566,-1.9453,-0.9612,984.7546,55.85571,37.48093,178.0953,NaN,,1.3548,3.0,72.7155,30 / 30,,4919,2021-05-20 22:07:04:381
-0.622511,1.905843,5.514015,0.192196,0.444164,9.794701,-0.221339,0.140433,0.308774,-13.2,-3.12,-42.78,97.2566,-1.9453,-0.9612,984.7546,55.85571,37.48093,178.0953,NaN,,1.3548,3.0,72.7155,30 / 30,,4930,2021-05-20 22:07:04:392
-0.421392,1.829226,6.208355,0.163646,0.40633,9.796862,-0.168805,0.021925,0.286172,-13.32,-3.18,-42.84,94.8823,-2.5959,-1.1241,984.7546,55.85571,37.48093,178.0953,NaN,,1.3548,3.0,72.7155,30 / 30,,4939,2021-05-20 22:07:04:401
-0.421392,1.829226,6.208355,0.163646,0.40633,9.796862,-0.086338,-0.11552,0.233638,-13.32,-3.18,-42.84,94.8823,-2.5959,-1.1241,984.7546,55.85571,37.48093,178.0953,NaN,,1.3548,3.0,72.7155,30 / 30,,4949,2021-05-20 22:07:04:411
-0.21309,1.733455,6.701576,0.173874,0.382725,9.797636,-0.026473,-0.271901,0.140786,-13.26,-2.7,-42.84,94.8823,-2.5959,-1.1241,984.7546,55.85571,37.48093,178.0953,NaN,,1.3548,3.0,72.7155,30 / 30,,4959,2021-05-20 22:07:04:421
-0.03352,1.465296,7.515629,0.173874,0.382725,9.797636,-0.022197,-0.354979,0.060763,-13.26,-2.7,-42.84,94.8823,-2.5959,-1.1241,984.7495,55.85571,37.48093,178.0953,NaN,,1.3548,3.0,72.7155,30 / 30,,4970,2021-05-20 22:07:04:432
-0.102954,1.118126,8.514041,0.231053,0.379725,9.796572,-0.053962,-0.381857,0.007617,-12.9,-2.16,-42.84,91.4588,-2.2367,-1.0167,984.7495,55.85571,37.48093,178.0953,NaN,,1.3548,3.0,72.7155,30 / 30,,4980,2021-05-20 22:07:04:442
-0.39745,0.763774,9.653716,0.231053,0.379725,9.796572,-0.092447,-0.359866,-0.022926,-12.9,-2.16,-42.84,91.4588,-2.2367,-1.0167,984.7495,55.85571,37.48093,178.0953,NaN,,1.3548,3.0,72.7155,30 / 30,,4989,2021-05-20 22:07:04:451
-0.39745,0.763774,9.653716,0.302595,0.368013,9.79507,-0.109551,-0.312218,-0.013763,-13.74,-2.58,-43.32,91.4588,-2.2367,-1.0167,984.7495,55.85571,37.48093,178.0953,NaN,,1.3548,3.0,72.7155,30 / 30,,4999,2021-05-20 22:07:04:461
-0.600963,0.445335,10.570724,0.302595,0.368013,9.79507,-0.085116,-0.294503,0.019835,-13.74,-2.58,-43.32,91.4588,-2.2367,-1.0167,984.7495,55.85571,37.48093,178.0953,NaN,,1.3548,3.0,72.7155,30 / 30,,5009,2021-05-20 22:07:04:471
-0.416604,0.287313,11.279428,0.361295,0.350925,9.793707,-0.015477,-0.316494,0.049156,-14.04,-3.06,-43.26,96.1681,-2.1506,-1.7695,984.7495,55.85571,37.48093,178.0953,NaN,,1.3548,3.0,72.7155,30 / 30,,5019,2021-05-20 22:07:04:481
0.090982,0.356747,11.770255,0.361295,0.350925,9.793707,0.036446,-0.34887,0.038772,-14.04,-3.06,-43.26,96.1681,-2.1506,-1.7695,984.7495,55.85571,37.48093,178.0953,NaN,,1.3548,3.0,72.7155,30 / 30,,5029,2021-05-20 22:07:04:491
0.653637,0.294496,12.24911,0.42423,0.351394,9.791166,0.054161,-0.354368,-0.001545,-14.04,-3.36,-43.02,96.1681,-2.1506,-1.7695,984.7495,55.85571,37.48093,178.0953,NaN,,1.3548,3.0,72.7155,30 / 30,,5039,2021-05-20 22:07:04:501
0.804476,-0.040703,12.850073,0.42423,0.351394,9.791166,0.054772,-0.342761,-0.071795,-14.04,-3.36,-43.02,96.1681,-2.1506,-1.7695,984.7495,55.85571,37.48093,178.0953,NaN,,1.3548,3.0,72.7155,30 / 30,,5049,2021-05-20 22:07:04:511
0.804476,-0.040703,12.850073,0.49129,0.362757,9.787616,0.043166,-0.303666,-0.109669,-14.4,-3.24,-43.2,96.6716,-2.1199,-2.8736,984.7495,55.85571,37.48093,178.0953,NaN,,1.3548,3.0,72.7155,30 / 30,,5059,2021-05-20 22:07:04:521
0.69434,-0.411815,13.542018,0.49129,0.362757,9.787616,0.043776,-0.17966,-0.135936,-14.4,-3.24,-43.2,96.6716,-2.1199,-2.8736,984.7515,55.85571,37.48093,178.0953,NaN,,1.3548,3.0,72.7155,30 / 30,,5070,2021-05-20 22:07:04:532
0.531529,-0.502798,13.752714,0.54033,0.371638,9.784698,0.087759,-0.072759,-0.152429,-15.06,-2.76,-43.02,96.6716,-2.1199,-2.8736,984.7515,55.85571,37.48093,178.0953,NaN,,1.3548,3.0,72.7155,30 / 30,,5080,2021-05-20 22:07:04:542
0.308861,-0.639271,13.585115,0.54033,0.371638,9.784698,0.183054,-0.001288,-0.130438,-15.06,-2.76,-43.02,96.6716,-2.1199,-2.8736,984.7515,55.85571,37.48093,178.0953,NaN,,1.3548,3.0,72.7155,30 / 30,,5090,2021-05-20 22:07:04:552
0.308861,-0.639271,13.585115,0.550485,0.392914,9.7833,0.317444,-0.019003,-0.107225,-15.48,-2.7,-42.18,96.208,-2.1718,-3.1608,984.7515,55.85571,37.48093,178.0953,NaN,,1.3548,3.0,72.7155,30 / 30,,5099,2021-05-20 22:07:04:561
-0.047885,-0.124502,12.756696,0.550485,0.392914,9.7833,0.497649,-0.092307,-0.08218,-15.48,-2.7,-42.18,96.208,-2.1718,-3.1608,984.7515,55.85571,37.48093,178.0953,NaN,,1.3548,3.0,72.7155,30 / 30,,5110,2021-05-20 22:07:04:572
0.043097,1.336005,11.049579,0.553936,0.460044,9.780179,0.579505,-0.230973,-0.121886,-15.48,-3.3,-42.36,96.208,-2.1718,-3.1608,984.7515,55.85571,37.48093,178.0953,NaN,,1.3548,3.0,72.7155,30 / 30,,5119,2021-05-20 22:07:04:581
0.632089,1.781341,9.098245,0.553936,0.460044,9.780179,0.579505,-0.230973,-0.121886,-15.48,-3.3,-42.36,96.208,-2.1718,-3.1608,984.7515,55.85571,37.48093,178.0953,NaN,,1.3548,3.0,72.7155,30 / 30,,5129,2021-05-20 22:07:04:591
1.206715,1.228263,9.543579,0.596451,0.567581,9.772025,0.351653,-0.417287,-0.231231,-15.3,-3.42,-43.26,94.2988,-2.6888,-3.2417,984.7515,55.85571,37.48093,178.0953,NaN,,1.3548,3.0,72.7155,30 / 30,,5139,2021-05-20 22:07:04:601
1.206715,1.228263,9.543579,0.596451,0.567581,9.772025,-0.152922,-0.389187,-0.340576,-15.3,-3.42,-43.26,94.2988,-2.6888,-3.2417,984.7515,55.85571,37.48093,178.0953,NaN,,1.3548,3.0,72.7155,30 / 30,,5150,2021-05-20 22:07:04:612
1.429382,-0.316044,12.498115,0.673277,0.582152,9.766175,-0.506613,-0.109411,-0.369897,-15.12,-2.94,-42.96,94.2988,-2.6888,-3.2417,984.7515,55.85571,37.48093,178.0953,NaN,,1.3548,3.0,72.7155,30 / 30,,5159,2021-05-20 22:07:04:621
1.364737,-2.056682,15.045623,0.673277,0.582152,9.766175,-0.675212,0.269936,-0.274602,-15.12,-2.94,-42.96,94.2988,-2.6888,-3.2417,984.7427,55.85571,37.48093,178.0953,NaN,,1.3548,3.0,72.7155,30 / 30,,5169,2021-05-20 22:07:04:631
1.154041,-2.897072,16.72401,0.660315,0.471411,9.773031,-0.598243,0.471522,-0.178696,-16.08,-3.42,-42.3,91.9366,-3.4032,-3.9437,984.7427,55.85571,37.48093,178.0953,NaN,,1.3548,3.0,72.7155,30 / 30,,5180,2021-05-20 22:07:04:642
1.154041,-2.897072,16.72401,0.660315,0.471411,9.773031,-0.102831,0.687768,0.012504,-16.08,-3.42,-42.3,91.9366,-3.4032,-3.9437,984.7427,55.85571,37.48093,178.0953,NaN,,1.3548,3.0,72.7155,30 / 30,,5189,2021-05-20 22:07:04:651
1.369525,-2.272167,15.081537,0.547557,0.390268,9.783571,0.384639,0.5265,0.075424,-16.14,-3.48,-42.54,91.9366,-3.4032,-3.9437,984.7427,55.85571,37.48093,178.0953,NaN,,1.3548,3.0,72.7155,30 / 30,,5199,2021-05-20 22:07:04:661
2.274561,-0.754197,11.657724,0.49285,0.421282,9.785192,0.684574,0.203352,0.015559,-15.6,-3.54,-42.78,91.9366,-3.4032,-3.9437,984.7427,55.85571,37.48093,178.0953,NaN,,1.3548,3.0,72.7155,30 / 30,,5209,2021-05-20 22:07:04:671
2.638491,0.696734,8.08786,0.49285,0.421282,9.785192,0.78048,-0.191267,-0.168312,-15.6,-3.54,-42.78,91.9366,-3.4032,-3.9437,984.7427,55.85571,37.48093,178.0953,NaN,,1.3548,3.0,72.7155,30 / 30,,5219,2021-05-20 22:07:04:681
2.638491,0.696734,8.08786,0.483746,0.565957,9.778347,0.421291,-0.314662,-0.340576,-14.82,-3.42,-42.84,94.9933,-2.4621,-2.8834,984.7427,55.85571,37.48093,178.0953,NaN,,1.3548,3.0,72.7155,30 / 30,,5229,2021-05-20 22:07:04:691
2.22907,1.206715,7.288173,0.483746,0.565957,9.778347,0.138461,-0.246245,-0.410214,-14.82,-3.42,-42.84,94.9933,-2.4621,-2.8834,984.7427,55.85571,37.48093,178.0953,NaN,,1.3548,3.0,72.7155,30 / 30,,5240,2021-05-20 22:07:04:702
1.022355,0.754197,7.934627,0.538786,0.657093,9.769766,-0.289145,-0.019003,-0.429762,-15.18,-3.72,-42.6,94.9933,-2.4621,-2.8834,984.7427,55.85571,37.48093,178.0953,NaN,,1.3548,3.0,72.7155,30 / 30,,5249,2021-05-20 22:07:04:711
0.371113,0.208302,8.408693,0.538786,0.657093,9.769766,-0.471794,0.103781,-0.37906,-15.18,-3.72,-42.6,94.9933,-2.4621,-2.8834,984.7427,55.85571,37.48093,178.0953,NaN,,1.3548,3.0,72.7155,30 / 30,,5260,2021-05-20 22:07:04:722
0.371113,0.208302,8.408693,0.543891,0.614871,9.772231,-0.516998,0.084844,-0.313087,-15.18,-4.26,-42.72,94.7999,-3.842,-3.1566,984.7424,55.85571,37.48093,178.0953,NaN,,1.3548,3.0,72.7155,30 / 30,,5270,2021-05-20 22:07:04:732
0.035914,-0.299284,8.590658,0.543891,0.614871,9.772231,-0.516998,0.084844,-0.313087,-15.18,-4.26,-42.72,94.7999,-3.842,-3.1566,984.7424,55.85571,37.48093,178.0953,NaN,,1.3548,3.0,72.7155,30 / 30,,5279,2021-05-20 22:07:04:741
0.289707,-0.620117,8.796566,0.52508,0.518706,9.778835,-0.487676,0.017038,-0.209851,-15.18,-4.8,-42.72,94.7999,-3.842,-3.1566,984.7424,55.85571,37.48093,178.0953,NaN,,1.3548,3.0,72.7155,30 / 30,,5289,2021-05-20 22:07:04:751
0.885882,-0.59378,9.256267,0.52508,0.518706,9.778835,-0.463242,0.013984,-0.146931,-15.18,-4.8,-42.72,94.7999,-3.842,-3.1566,984.7424,55.85571,37.48093,178.0953,NaN,,1.3548,3.0,72.7155,30 / 30,,5299,2021-05-20 22:07:04:761
0.885882,-0.59378,9.256267,0.521407,0.427359,9.783449,-0.388716,0.083012,-0.121275,-15.18,-4.74,-42.72,101.9378,-3.032,-3.0736,984.7424,55.85571,37.48093,178.0953,NaN,,1.3548,3.0,72.7155,30 / 30,,5309,2021-05-20 22:07:04:771
1.000807,-0.251399,9.371192,0.521407,0.427359,9.783449,-0.269597,0.110501,-0.132271,-15.18,-4.74,-42.72,101.9378,-3.032,-3.0736,984.7424,55.85571,37.48093,178.0953,NaN,,1.3548,3.0,72.7155,30 / 30,,5319,2021-05-20 22:07:04:781
