ACCELEROMETER X (m/s²),ACCELEROMETER Y (m/s²),ACCELEROMETER Z (m/s²),GRAVITY X (m/s²),GRAVITY Y (m/s²),GRAVITY Z (m/s²),GYROSCOPE X (rad/s),GYROSCOPE Y (rad/s),GYROSCOPE Z (rad/s),MAGNETIC FIELD X (μT),MAGNETIC FIELD Y (μT),MAGNETIC FIELD Z (μT),ORIENTATION Z (azimuth °),ORIENTATION X (pitch °),ORIENTATION Y (roll °),ATMOSPHERIC PRESSURE (hPa),LOCATION Latitude : ,LOCATION Longitude : ,LOCATION Altitude ( m),LOCATION Altitude-google ( m),LOCATION Altitude-atmospheric pressure ( m),LOCATION Speed ( m/s),LOCATION Accuracy ( m),LOCATION ORIENTATION (°),Satellites in range,GPS NMEA,Time since start in ms ,YYYY-MO-DD HH-MI-SS_SSS
0.079011,1.168406,9.687236,0.378557,1.281528,9.715182,-0.009369,-0.096583,-0.008265,-1958.94,-1941.12,1858.56,136.7788,-7.4899,-2.1417,984.9834,55.855835,37.48527,174.5871,NaN,,0.0101,6.0,275.5635,23 / 27,,10,2021-05-20 21:42:47:329
0.442941,1.108549,9.840469,0.39538,1.282331,9.714406,-0.035636,-0.043437,0.033274,-1958.46,-1940.64,1858.44,136.7788,-7.4899,-2.1417,984.9834,55.855835,37.48527,174.5871,NaN,,0.0101,6.0,275.5635,23 / 27,,20,2021-05-20 21:42:47:339
0.555472,1.273754,9.766247,0.39538,1.282331,9.714406,-0.050908,-0.00312,0.057708,-1958.46,-1940.64,1858.44,136.7788,-7.4899,-2.1417,984.9834,55.855835,37.48527,174.5871,NaN,,0.0101,6.0,275.5635,23 / 27,,31,2021-05-20 21:42:47:350
0.555472,1.273754,9.766247,0.401977,1.274475,9.715169,-0.057016,0.034142,0.061985,-1958.46,-1941.06,1857.48,136.7046,-7.5136,-2.3307,984.9834,55.855835,37.48527,174.5871,NaN,,0.0101,6.0,275.5635,23 / 27,,40,2021-05-20 21:42:47:359
0.378295,1.470085,9.514848,0.401977,1.274475,9.715169,-0.077786,-0.006785,0.070537,-1958.46,-1941.06,1857.48,136.7046,-7.5136,-2.3307,984.9834,55.855835,37.48527,174.5871,NaN,,0.0101,6.0,275.5635,23 / 27,,51,2021-05-20 21:42:47:370
0.268159,1.692752,9.07909,0.398302,1.262628,9.716867,-0.121768,-0.06665,0.069926,-1958.82,-1940.76,1857.48,136.7046,-7.5136,-2.3307,984.9834,55.855835,37.48527,174.5871,NaN,,0.0101,6.0,275.5635,23 / 27,,60,2021-05-20 21:42:47:379
0.28013,1.61853,9.356826,0.398302,1.262628,9.716867,-0.145592,-0.10147,0.07298,-1958.82,-1940.76,1857.48,136.7046,-7.5136,-2.3307,984.9834,55.855835,37.48527,174.5871,NaN,,0.0101,6.0,275.5635,23 / 27,,70,2021-05-20 21:42:47:389
0.332804,1.455719,9.545974,0.412777,1.239101,9.719292,-0.174302,-0.078868,0.091306,-1958.76,-1940.22,1858.2,136.6296,-7.3975,-2.3473,984.9863,55.855835,37.48527,174.5871,NaN,,0.0101,6.0,275.5635,23 / 27,,80,2021-05-20 21:42:47:399
0.160416,1.422199,9.093455,0.412777,1.239101,9.719292,-0.211565,-0.105746,0.11513,-1958.76,-1940.22,1858.2,136.6296,-7.3975,-2.3473,984.9863,55.855835,37.48527,174.5871,NaN,,0.0101,6.0,275.5635,23 / 27,,90,2021-05-20 21:42:47:409
0.160416,1.422199,9.093455,0.432005,1.204872,9.722759,-0.211565,-0.105746,0.11513,-1958.5198,-1940.46,1858.0198,136.6296,-7.3975,-2.3473,984.9863,55.855835,37.48527,174.5871,NaN,,0.0101,6.0,275.5635,23 / 27,,101,2021-05-20 21:42:47:420
0.0838,1.529942,9.565128,0.432005,1.204872,9.722759,-0.272652,-0.223032,0.148727,-1958.5198,-1940.46,1858.0198,136.6296,-7.3975,-2.3473,984.9863,55.855835,37.48527,174.5871,NaN,,0.0101,6.0,275.5635,23 / 27,,110,2021-05-20 21:42:47:429
0.186753,1.546702,10.063137,0.476565,1.151155,9.727184,-0.296475,-0.247466,0.184768,-1958.76,-1940.94,1857.78,136.4258,-7.0573,-2.5441,984.9863,55.855835,37.48527,174.5871,NaN,,0.0101,6.0,275.5635,23 / 27,,120,2021-05-20 21:42:47:439
0.433364,1.532336,10.676071,0.476565,1.151155,9.727184,-0.262878,-0.322603,0.198207,-1958.76,-1940.94,1857.78,136.4258,-7.0573,-2.5441,984.9863,55.855835,37.48527,174.5871,NaN,,0.0101,6.0,275.5635,23 / 27,,130,2021-05-20 21:42:47:449
0.433364,1.532336,10.676071,0.537482,1.095749,9.730408,-0.171859,-0.149117,0.187212,-1959.18,-1940.64,1858.32,136.4258,-7.0573,-2.5441,984.9863,55.855835,37.48527,174.5871,NaN,,0.0101,6.0,275.5635,23 / 27,,140,2021-05-20 21:42:47:459
0.679974,1.482056,10.884374,0.537482,1.095749,9.730408,-0.020975,0.150818,0.146895,-1959.18,-1940.64,1858.32,136.4258,-7.0573,-2.5441,984.9863,55.855835,37.48527,174.5871,NaN,,0.0101,6.0,275.5635,23 / 27,,150,2021-05-20 21:42:47:469
0.512375,1.431776,10.386364,0.546376,1.073026,9.732445,0.097533,0.319417,0.112686,-1959.36,-1940.1,1858.32,135.8847,-6.4154,-3.1617,984.9863,55.855835,37.48527,174.5871,NaN,,0.0101,6.0,275.5635,23 / 27,,161,2021-05-20 21:42:47:480
0.421392,1.611347,10.237919,0.546376,1.073026,9.732445,0.197714,0.39211,0.075424,-1959.36,-1940.1,1858.32,135.8847,-6.4154,-3.1617,984.9863,55.855835,37.48527,174.5871,NaN,,0.0101,6.0,275.5635,23 / 27,,170,2021-05-20 21:42:47:489
0.227456,1.745426,10.326508,0.48254,1.097344,9.733108,0.280792,0.382947,0.036328,-1959.0,-1939.86,1857.6,135.8847,-6.4154,-3.1617,984.9802,55.855835,37.48527,174.5871,NaN,,0.0101,6.0,275.5635,23 / 27,,180,2021-05-20 21:42:47:499
0.282524,1.647261,10.1206,0.48254,1.097344,9.733108,0.330272,0.39211,0.011283,-1959.0,-1939.86,1857.6,135.8847,-6.4154,-3.1617,984.9802,55.855835,37.48527,174.5871,NaN,,0.0101,6.0,275.5635,23 / 27,,190,2021-05-20 21:42:47:509
0.282524,1.647261,10.1206,0.407237,1.156514,9.729698,0.341268,0.355458,-0.030256,-1958.46,-1940.28,1857.9,136.0576,-6.4247,-2.8382,984.9802,55.855835,37.48527,174.5871,NaN,,0.0101,6.0,275.5635,23 / 27,,200,2021-05-20 21:42:47:519
0.095771,1.450931,9.44302,0.407237,1.156514,9.729698,0.282625,0.188081,-0.037587,-1958.46,-1940.28,1857.9,136.0576,-6.4247,-2.8382,984.9802,55.855835,37.48527,174.5871,NaN,,0.0101,6.0,275.5635,23 / 27,,210,2021-05-20 21:42:47:529
-0.081405,1.347977,9.074302,0.346707,1.22077,9.724192,0.140293,-0.001899,-0.013763,-1958.58,-1940.5198,1858.14,136.0576,-6.4247,-2.8382,984.9802,55.855835,37.48527,174.5871,NaN,,0.0101,6.0,275.5635,23 / 27,,220,2021-05-20 21:42:47:539
0.090982,1.398257,9.835681,0.346707,1.22077,9.724192,0.029116,-0.019614,0.001509,-1958.58,-1940.5198,1858.14,136.0576,-6.4247,-2.8382,984.9802,55.855835,37.48527,174.5871,NaN,,0.0101,6.0,275.5635,23 / 27,,230,2021-05-20 21:42:47:549
0.282524,1.474873,10.278622,0.345853,1.246789,9.720921,-0.001428,0.086677,-0.003989,-1959.0,-1940.28,1858.0198,136.6946,-7.151,-2.042,984.9802,55.855835,37.48527,174.5871,NaN,,0.0101,6.0,275.5635,23 / 27,,240,2021-05-20 21:42:47:559
0.148445,1.374314,10.33369,0.345853,1.246789,9.720921,0.008957,0.219235,-0.01193,-1959.0,-1940.28,1858.0198,136.6946,-7.151,-2.042,984.9802,55.855835,37.48527,174.5871,NaN,,0.0101,6.0,275.5635,23 / 27,,251,2021-05-20 21:42:47:570
0.148445,1.374314,10.33369,0.326712,1.248087,9.721416,0.044998,0.341408,-0.007043,-1959.0,-1940.64,1858.56,136.6946,-7.151,-2.042,984.9802,55.855835,37.48527,174.5871,NaN,,0.0101,6.0,275.5635,23 / 27,,260,2021-05-20 21:42:47:579
0.217879,1.199532,10.264256,0.326712,1.248087,9.721416,0.091424,0.404327,-0.019261,-1959.0,-1940.64,1858.56,136.6946,-7.151,-2.042,984.9802,55.855835,37.48527,174.5871,NaN,,0.0101,6.0,275.5635,23 / 27,,271,2021-05-20 21:42:47:590
0.39745,1.336005,10.30017,0.259762,1.258242,9.722126,0.170836,0.465413,-0.066908,-1958.46,-1940.46,1858.32,136.8246,-7.3118,-1.9248,984.9802,55.855835,37.48527,174.5871,NaN,,0.0101,6.0,275.5635,23 / 27,,280,2021-05-20 21:42:47:599
0.399844,1.510787,10.213976,0.259762,1.258242,9.722126,0.239253,0.479463,-0.107836,-1958.46,-1940.46,1858.32,136.8246,-7.3118,-1.9248,984.9802,55.855835,37.48527,174.5871,NaN,,0.0101,6.0,275.5635,23 / 27,,290,2021-05-20 21:42:47:609
0.275342,1.587404,9.912297,0.1685,1.290539,9.719902,0.307059,0.41349,-0.136547,-1957.44,-1940.22,1858.68,136.8246,-7.3118,-1.9248,984.9802,55.855835,37.48527,174.5871,NaN,,0.0101,6.0,275.5635,23 / 27,,300,2021-05-20 21:42:47:619
0.117319,1.51797,9.613013,0.1685,1.290539,9.719902,0.354707,0.324303,-0.157927,-1957.44,-1940.22,1858.68,136.8246,-7.3118,-1.9248,984.9802,55.855835,37.48527,174.5871,NaN,,0.0101,6.0,275.5635,23 / 27,,310,2021-05-20 21:42:47:629
0.117319,1.51797,9.613013,0.083239,1.348586,9.713124,0.354707,0.324303,-0.157927,-1957.56,-1940.76,1859.04,137.403,-7.562,-0.9932,984.9802,55.855835,37.48527,174.5871,NaN,,0.0101,6.0,275.5635,23 / 27,,321,2021-05-20 21:42:47:640
-0.086194,1.438959,8.605023,0.083239,1.348586,9.713124,0.335159,0.107446,-0.178696,-1957.56,-1940.76,1859.04,137.403,-7.562,-0.9932,984.9802,55.855835,37.48527,174.5871,NaN,,0.0101,6.0,275.5635,23 / 27,,330,2021-05-20 21:42:47:649
-0.39745,1.331217,8.133352,0.047082,1.414254,9.704022,0.206877,-0.133235,-0.171977,-1957.62,-1941.54,1858.74,137.403,-7.562,-0.9932,984.9802,55.855835,37.48527,174.5871,NaN,,0.0101,6.0,275.5635,23 / 27,,340,2021-05-20 21:42:47:659
-0.351958,1.324034,8.612206,0.047082,1.414254,9.704022,0.030337,-0.279231,-0.137158,-1957.62,-1941.54,1858.74,137.403,-7.562,-0.9932,984.9802,55.855835,37.48527,174.5871,NaN,,0.0101,6.0,275.5635,23 / 27,,351,2021-05-20 21:42:47:670
-0.189148,1.264177,9.387952,0.089201,1.428958,9.701572,-0.124822,-0.265792,-0.091954,-1957.74,-1942.0198,1858.98,138.0501,-8.2918,-0.278,984.9802,55.855835,37.48527,174.5871,NaN,,0.0101,6.0,275.5635,23 / 27,,360,2021-05-20 21:42:47:679
-0.189148,1.264177,9.387952,0.089201,1.428958,9.701572,-0.220728,-0.147895,-0.019871,-1957.74,-1942.0198,1858.98,138.0501,-8.2918,-0.278,984.9802,55.855835,37.48527,174.5871,NaN,,0.0101,6.0,275.5635,23 / 27,,370,2021-05-20 21:42:47:689
-0.03352,1.405439,9.620196,0.125805,1.392477,9.70647,-0.211565,-0.084365,0.028998,-1957.8,-1941.78,1858.74,138.0501,-8.2918,-0.278,984.9885,55.855835,37.48527,174.5871,NaN,,0.0101,6.0,275.5635,23 / 27,,380,2021-05-20 21:42:47:699
0.158022,1.391074,9.505271,0.125805,1.392477,9.70647,-0.188963,-0.116741,0.043048,-1957.8,-1941.78,1858.74,138.0501,-8.2918,-0.278,984.9885,55.855835,37.48527,174.5871,NaN,,0.0101,6.0,275.5635,23 / 27,,390,2021-05-20 21:42:47:709
0.402238,1.285726,10.271439,0.145304,1.352292,9.711879,-0.118714,-0.048935,0.043659,-1957.44,-1941.36,1858.74,137.761,-8.1632,-0.7426,984.9885,55.855835,37.48527,174.5871,NaN,,0.0101,6.0,275.5635,23 / 27,,401,2021-05-20 21:42:47:720
0.359141,1.364737,9.794978,0.145304,1.352292,9.711879,-0.030138,0.055523,0.022278,-1957.44,-1941.36,1858.74,137.761,-8.1632,-0.7426,984.9885,55.855835,37.48527,174.5871,NaN,,0.0101,6.0,275.5635,23 / 27,,410,2021-05-20 21:42:47:729
0.359141,1.364737,9.794978,0.147464,1.335539,9.714164,0.015066,0.078125,-0.002767,-1957.32,-1940.88,1859.5198,137.761,-8.1632,-0.7426,984.9885,55.855835,37.48527,174.5871,NaN,,0.0101,6.0,275.5635,23 / 27,,420,2021-05-20 21:42:47:739
0.193936,1.467691,9.368797,0.147464,1.335539,9.714164,0.046831,0.045138,-0.024148,-1957.32,-1940.88,1859.5198,137.761,-8.1632,-0.7426,984.9885,55.855835,37.48527,174.5871,NaN,,0.0101,6.0,275.5635,23 / 27,,431,2021-05-20 21:42:47:750
0.004789,1.498816,9.107821,0.134156,1.34122,9.713573,0.063935,-0.003731,-0.048582,-1957.44,-1940.7,1859.7,137.5776,-7.8273,-0.8697,984.9885,55.855835,37.48527,174.5871,NaN,,0.0101,6.0,275.5635,23 / 27,,440,2021-05-20 21:42:47:759
-0.265764,1.556279,8.415876,0.134156,1.34122,9.713573,0.03217,-0.116741,-0.056523,-1957.44,-1940.7,1859.7,137.5776,-7.8273,-0.8697,984.9885,55.855835,37.48527,174.5871,NaN,,0.0101,6.0,275.5635,23 / 27,,450,2021-05-20 21:42:47:769
-0.323227,1.709512,8.444607,0.139355,1.352694,9.711909,-0.061903,-0.254797,-0.07546,-1957.2,-1941.24,1858.92,137.5776,-7.8273,-0.8697,984.9885,55.855835,37.48527,174.5871,NaN,,0.0101,6.0,275.5635,23 / 27,,461,2021-05-20 21:42:47:780
-0.323227,1.709512,8.444607,0.139355,1.352694,9.711909,-0.148035,-0.409957,-0.091954,-1957.2,-1941.24,1858.92,137.5776,-7.8273,-0.8697,984.9885,55.855835,37.48527,174.5871,NaN,,0.0101,6.0,275.5635,23 / 27,,470,2021-05-20 21:42:47:789
-0.22985,1.762186,8.803748,0.187733,1.34147,9.712652,-0.222561,-0.487536,-0.088288,-1957.08,-1941.84,1858.68,137.6496,-7.9285,-0.8221,984.9897,55.855835,37.48527,174.5871,NaN,,0.0101,6.0,275.5635,23 / 27,,480,2021-05-20 21:42:47:799
-0.035914,1.750215,9.395134,0.2315,1.322745,9.714274,-0.254937,-0.588329,-0.082791,-1957.74,-1941.6,1858.92,137.6496,-7.9285,-0.8221,984.9897,55.855835,37.48527,174.5871,NaN,,0.0101,6.0,275.5635,23 / 27,,491,2021-05-20 21:42:47:810
0.366324,1.659233,9.742304,0.2315,1.322745,9.714274,-0.323964,-0.75143,-0.078515,-1957.74,-1941.6,1858.92,137.6496,-7.9285,-0.8221,984.9897,55.855835,37.48527,174.5871,NaN,,0.0101,6.0,275.5635,23 / 27,,500,2021-05-20 21:42:47:819
0.569837,1.599376,10.640158,0.356014,1.270067,9.717539,-0.303195,-0.481428,-0.059578,-1958.16,-1941.12,1858.74,137.6496,-7.9285,-0.8221,984.9897,55.855835,37.48527,174.5871,NaN,,0.0101,6.0,275.5635,23 / 27,,511,2021-05-20 21:42:47:830
0.569837,1.599376,10.640158,0.356014,1.270067,9.717539,-0.220117,-0.177217,-0.07546,-1958.16,-1941.12,1858.74,137.6496,-7.9285,-0.8221,984.9897,55.855835,37.48527,174.5871,NaN,,0.0101,6.0,275.5635,23 / 27,,520,2021-05-20 21:42:47:839
0.869122,1.108549,10.295382,0.438551,1.214964,9.72121,-0.086949,-0.094139,-0.08218,-1958.04,-1941.18,1858.74,136.7978,-7.4413,-2.0982,984.9897,55.855835,37.48527,174.5871,NaN,,0.0101,6.0,275.5635,22 / 28,,530,2021-05-20 21:42:47:849
0.806871,1.218686,10.158908,0.438551,1.214964,9.72121,-0.002038,-0.069094,-0.081569,-1958.04,-1941.18,1858.74,136.7978,-7.4413,-2.0982,984.9897,55.855835,37.48527,174.5871,NaN,,0.0101,6.0,275.5635,22 / 28,,541,2021-05-20 21:42:47:860
0.617723,1.573039,9.871595,0.455676,1.196275,9.72274,-0.002038,-0.069094,-0.081569,-1958.7,-1940.94,1858.62,136.7978,-7.4413,-2.0982,984.9897,55.855835,37.48527,174.5871,NaN,,0.0101,6.0,275.5635,22 / 28,,550,2021-05-20 21:42:47:869
0.320833,1.592193,9.641745,0.455676,1.196275,9.72274,0.027894,-0.095972,-0.04675,-1958.7,-1940.94,1858.62,136.7978,-7.4413,-2.0982,984.9897,55.855835,37.48527,174.5871,NaN,,0.0101,6.0,275.5635,22 / 28,,560,2021-05-20 21:42:47:879
0.165205,1.628107,9.924269,0.471688,1.200257,9.721485,0.077374,-0.262127,0.032052,-1958.94,-1940.88,1858.56,136.3406,-7.0067,-2.6833,984.9897,55.855835,37.48527,174.5871,NaN,,0.0101,6.0,275.5635,22 / 28,,572,2021-05-20 21:42:47:891
0.165205,1.628107,9.924269,0.471688,1.200257,9.721485,0.077374,-0.262127,0.032052,-1958.94,-1940.88,1858.56,136.3406,-7.0067,-2.6833,984.9897,55.855835,37.48527,174.5871,NaN,,0.0101,6.0,275.5635,22 / 28,,580,2021-05-20 21:42:47:899
0.153234,1.575433,10.288198,0.517,1.213968,9.717478,0.165949,-0.22181,0.046713,-1958.94,-1940.7,1858.08,136.3406,-7.0067,-2.6833,984.9897,55.855835,37.48527,174.5871,NaN,,0.0101,6.0,275.5635,22 / 28,,590,2021-05-20 21:42:47:909
0.153234,1.575433,10.288198,0.517,1.213968,9.717478,0.283236,-0.070315,0.054654,-1958.94,-1940.7,1858.08,136.3406,-7.0067,-2.6833,984.9897,55.855835,37.48527,174.5871,NaN,,0.0101,6.0,275.5635,22 / 28,,601,2021-05-20 21:42:47:920
0.718282,1.556279,10.427067,0.541422,1.261099,9.710143,0.364481,0.096451,0.039993,-1959.42,-1941.06,1857.3,136.1989,-7.1109,-3.0454,984.9897,55.855835,37.48527,174.5871,NaN,,0.0101,6.0,275.5635,22 / 28,,610,2021-05-20 21:42:47:929
0.852362,1.84838,9.759064,0.541422,1.261099,9.710143,0.40663,0.209461,0.01617,-1959.42,-1941.06,1857.3,136.1989,-7.1109,-3.0454,984.9897,55.855835,37.48527,174.5871,NaN,,0.0101,6.0,275.5635,22 / 28,,620,2021-05-20 21:42:47:939
0.837996,2.032739,9.203592,0.510433,1.336716,9.701703,0.40663,0.199687,0.003341,-1959.84,-1940.88,1858.2,136.1989,-7.1109,-3.0454,984.9897,55.855835,37.48527,174.5871,NaN,,0.0101,6.0,275.5635,22 / 28,,630,2021-05-20 21:42:47:949
0.938556,2.360755,9.239507,0.491139,1.376366,9.697153,0.379752,0.099505,0.0235,-1959.36,-1940.82,1858.14,136.1989,-7.1109,-3.0454,984.9897,55.855835,37.48527,174.5871,NaN,,0.0101,6.0,275.5635,22 / 28,,640,2021-05-20 21:42:47:959
0.938556,2.360755,9.239507,0.491139,1.376366,9.697153,0.302172,-0.151561,-0.016206,-1959.36,-1940.82,1858.14,136.1989,-7.1109,-3.0454,984.9897,55.855835,37.48527,174.5871,NaN,,0.0101,6.0,275.5635,22 / 28,,650,2021-05-20 21:42:47:969
1.489239,1.412622,9.299363,0.483322,1.44636,9.687354,0.191606,-0.036718,-0.071795,-1959.3,-1941.06,1858.5,136.6012,-8.0681,-2.8994,984.9897,55.855835,37.48527,174.5871,NaN,,0.0101,6.0,275.5635,22 / 28,,660,2021-05-20 21:42:47:979
0.802082,3.050306,9.220352,0.483322,1.44636,9.687354,0.097533,0.00421,-0.058356,-1959.3,-1941.06,1858.5,136.6012,-8.0681,-2.8994,984.9897,55.855835,37.48527,174.5871,NaN,,0.0101,6.0,275.5635,22 / 28,,670,2021-05-20 21:42:47:989
0.196331,3.313676,9.201198,0.490662,1.487213,9.680798,0.097533,0.00421,-0.058356,-1959.48,-1941.6,1858.56,136.6012,-8.0681,-2.8994,984.9861,55.855835,37.48527,174.5871,NaN,,0.0101,6.0,275.5635,22 / 28,,680,2021-05-20 21:42:47:999
0.198725,2.810879,9.47654,0.490662,1.487213,9.680798,-0.022808,-0.284729,0.038161,-1959.48,-1941.6,1858.56,136.6012,-8.0681,-2.8994,984.9861,55.855835,37.48527,174.5871,NaN,,0.0101,6.0,275.5635,22 / 28,,690,2021-05-20 21:42:48:009
0.198725,2.810879,9.47654,0.526843,1.49139,9.678252,-0.176135,-0.445387,0.128569,-1959.48,-1941.84,1858.38,136.8302,-8.7228,-2.9015,984.9861,55.855835,37.48527,174.5871,NaN,,0.0101,6.0,275.5635,22 / 28,,701,2021-05-20 21:42:48:020
0.586597,2.336812,9.457385,0.526843,1.49139,9.678252,-0.378331,-0.430115,0.215923,-1959.48,-1941.84,1858.38,136.8302,-8.7228,-2.9015,984.9861,55.855835,37.48527,174.5871,NaN,,0.0101,6.0,275.5635,22 / 28,,710,2021-05-20 21:42:48:029
1.324034,2.181184,9.294575,0.616623,1.430175,9.682188,-0.614125,-0.463713,0.204316,-1960.0198,-1942.56,1858.38,136.8302,-8.7228,-2.9015,984.9861,55.855835,37.48527,174.5871,NaN,,0.0101,6.0,275.5635,22 / 28,,720,2021-05-20 21:42:48:039
1.098972,1.867534,9.450203,0.664427,1.370424,9.687665,-0.747294,-0.464324,0.202484,-1959.48,-1942.44,1858.2,136.8302,-8.7228,-2.9015,984.9861,55.855835,37.48527,174.5871,NaN,,0.0101,6.0,275.5635,22 / 28,,730,2021-05-20 21:42:48:049
1.098972,1.867534,9.450203,0.664427,1.370424,9.687665,-0.785779,-0.393463,0.207981,-1959.48,-1942.44,1858.2,136.8302,-8.7228,-2.9015,984.9861,55.855835,37.48527,174.5871,NaN,,0.0101,6.0,275.5635,22 / 28,,740,2021-05-20 21:42:48:059
1.072635,2.099779,9.577099,0.754721,1.22091,9.701039,-0.706366,-0.37025,0.175605,-1959.6,-1941.9,1857.78,136.0889,-8.0331,-3.9235,984.9861,55.855835,37.48527,174.5871,NaN,,0.0101,6.0,275.5635,22 / 28,,750,2021-05-20 21:42:48:069
0.84039,2.066259,9.689631,0.754721,1.22091,9.701039,-0.538989,-0.588329,0.112075,-1959.6,-1941.9,1857.78,136.0889,-8.0331,-3.9235,984.9861,55.855835,37.48527,174.5871,NaN,,0.0101,6.0,275.5635,22 / 28,,761,2021-05-20 21:42:48:080
0.979258,1.704724,10.202005,0.83953,1.088956,9.709776,-0.29953,-0.879101,-0.008876,-1960.08,-1940.58,1858.26,136.0889,-8.0331,-3.9235,984.9861,55.855835,37.48527,174.5871,NaN,,0.0101,6.0,275.5635,22 / 28,,771,2021-05-20 21:42:48:090
1.031933,1.125309,10.36721,0.83953,1.088956,9.709776,-0.135207,-0.829621,-0.118221,-1960.08,-1940.58,1858.26,136.0889,-8.0331,-3.9235,984.9941,55.855835,37.48527,174.5871,NaN,,0.0101,6.0,275.5635,22 / 28,,780,2021-05-20 21:42:48:099
1.031933,1.125309,10.36721,0.99951,1.030721,9.700978,-0.021586,-0.739824,-0.164036,-1960.8,-1940.04,1857.84,135.014,-6.3754,-4.9416,984.9941,55.855835,37.48527,174.5871,NaN,,0.0101,6.0,275.5635,22 / 28,,790,2021-05-20 21:42:48:109
1.055875,1.2546,9.845258,0.99951,1.030721,9.700978,0.178778,-0.665909,-0.074849,-1960.8,-1940.04,1857.84,135.014,-6.3754,-4.9416,984.9941,55.855835,37.48527,174.5871,NaN,,0.0101,6.0,275.5635,22 / 28,,800,2021-05-20 21:42:48:119
0.888276,1.58501,9.888355,1.139152,1.03582,9.685029,0.330883,-0.496089,0.038161,-1961.88,-1939.86,1856.7,135.014,-6.3754,-4.9416,984.9941,55.855835,37.48527,174.5871,NaN,,0.0101,6.0,275.5635,22 / 28,,810,2021-05-20 21:42:48:129
0.984047,1.505999,9.864412,1.139152,1.03582,9.685029,0.439617,-0.140565,0.147506,-1961.88,-1939.86,1856.7,135.014,-6.3754,-4.9416,984.9941,55.855835,37.48527,174.5871,NaN,,0.0101,6.0,275.5635,22 / 28,,820,2021-05-20 21:42:48:139
1.051087,1.577827,9.428655,1.23611,1.096143,9.666482,0.439617,-0.140565,0.147506,-1962.36,-1939.62,1856.64,134.1168,-6.0631,-6.7083,984.9941,55.855835,37.48527,174.5871,NaN,,0.0101,6.0,275.5635,22 / 28,,831,2021-05-20 21:42:48:150
1.051087,1.577827,9.428655,1.23611,1.096143,9.666482,0.509256,0.383557,0.281896,-1962.36,-1939.62,1856.64,134.1168,-6.0631,-6.7083,984.9941,55.855835,37.48527,174.5871,NaN,,0.0101,6.0,275.5635,22 / 28,,840,2021-05-20 21:42:48:159
1.209109,1.987248,9.158101,1.198131,1.185831,9.660676,0.534301,0.698764,0.34848,-1962.42,-1939.8,1857.3,134.1168,-6.0631,-6.7083,984.9941,55.855835,37.48527,174.5871,NaN,,0.0101,6.0,275.5635,22 / 28,,851,2021-05-20 21:42:48:170
1.223474,2.257801,8.559532,1.198131,1.185831,9.660676,0.511088,0.877137,0.380245,-1962.42,-1939.8,1857.3,134.1168,-6.0631,-6.7083,984.9941,55.855835,37.48527,174.5871,NaN,,0.0101,6.0,275.5635,22 / 28,,860,2021-05-20 21:42:48:179
1.189955,2.530748,8.147718,1.050132,1.278703,9.66605,0.341268,0.847815,0.277009,-1962.42,-1940.76,1857.54,134.2633,-6.9453,-7.0698,984.9941,55.855835,37.48527,174.5871,NaN,,0.0101,6.0,275.5635,22 / 28,,871,2021-05-20 21:42:48:190
1.400651,2.600183,8.190814,1.050132,1.278703,9.66605,0.341268,0.847815,0.277009,-1962.42,-1940.76,1857.54,134.2633,-6.9453,-7.0698,984.9941,55.855835,37.48527,174.5871,NaN,,0.0101,6.0,275.5635,22 / 28,,880,2021-05-20 21:42:48:199
1.400651,2.600183,8.190814,0.892084,1.345626,9.672841,0.267964,0.73114,0.166442,-1962.42,-1940.94,1857.42,134.2633,-6.9453,-7.0698,984.9941,55.855835,37.48527,174.5871,NaN,,0.0101,6.0,275.5635,22 / 28,,890,2021-05-20 21:42:48:209
1.35516,2.473286,8.530801,0.892084,1.345626,9.672841,0.205656,0.613243,0.090084,-1962.42,-1940.94,1857.42,134.2633,-6.9453,-7.0698,984.9941,55.855835,37.48527,174.5871,NaN,,0.0101,6.0,275.5635,22 / 28,,900,2021-05-20 21:42:48:219
1.218686,2.320053,8.638543,0.770018,1.388012,9.677339,0.087759,0.597971,0.054654,-1961.88,-1941.18,1857.24,135.3672,-7.8868,-5.2692,984.9941,55.855835,37.48527,174.5871,NaN,,0.0101,6.0,275.5635,22 / 28,,910,2021-05-20 21:42:48:229
1.252206,2.372727,8.763046,0.770018,1.388012,9.677339,-0.008147,0.63279,0.073591,-1961.88,-1941.18,1857.24,135.3672,-7.8868,-5.2692,984.9941,55.855835,37.48527,174.5871,NaN,,0.0101,6.0,275.5635,22 / 28,,920,2021-05-20 21:42:48:239
1.209109,2.470892,8.751075,0.65382,1.396776,9.684623,-0.086338,0.650506,0.121849,-1961.22,-1941.3,1858.08,135.3672,-7.8868,-5.2692,984.9941,55.855835,37.48527,174.5871,NaN,,0.0101,6.0,275.5635,22 / 28,,931,2021-05-20 21:42:48:250
1.209109,2.470892,8.751075,0.65382,1.396776,9.684623,-0.167583,0.609578,0.179881,-1961.22,-1941.3,1858.08,135.3672,-7.8868,-5.2692,984.9941,55.855835,37.48527,174.5871,NaN,,0.0101,6.0,275.5635,22 / 28,,940,2021-05-20 21:42:48:259
1.235446,2.621731,8.803748,0.537343,1.37252,9.695249,-0.218896,0.473355,0.170108,-1960.5,-1941.0,1857.9,136.1566,-8.1886,-3.8622,984.9941,55.855835,37.48527,174.5871,NaN,,0.0101,6.0,275.5635,22 / 28,,950,2021-05-20 21:42:48:269
1.233052,2.877918,9.091062,0.537343,1.37252,9.695249,-0.226226,0.327969,0.11513,-1960.5,-1941.0,1857.9,136.1566,-8.1886,-3.8622,984.9941,55.855835,37.48527,174.5871,NaN,,0.0101,6.0,275.5635,22 / 28,,960,2021-05-20 21:42:48:279
0.976864,2.961718,9.131764,0.465092,1.33038,9.704853,-0.199348,0.154483,0.033274,-1959.78,-1941.12,1857.96,136.1566,-8.1886,-3.8622,984.9941,55.855835,37.48527,174.5871,NaN,,0.0101,6.0,275.5635,22 / 28,,970,2021-05-20 21:42:48:289
1.000807,2.837216,9.378374,0.465092,1.33038,9.704853,-0.165139,0.10989,-0.01865,-1959.78,-1941.12,1857.96,136.1566,-8.1886,-3.8622,984.9893,55.855835,37.48527,174.5871,NaN,,0.0101,6.0,275.5635,22 / 28,,981,2021-05-20 21:42:48:300
1.000807,2.837216,9.378374,0.438656,1.295555,9.710793,-0.152922,0.130659,-0.069352,-1959.12,-1941.78,1858.32,136.5978,-7.7968,-2.7437,984.9893,55.855835,37.48527,174.5871,NaN,,0.0101,6.0,275.5635,22 / 28,,990,2021-05-20 21:42:48:309
1.098972,2.667222,9.289786,0.438656,1.295555,9.710793,-0.168805,0.125772,-0.088288,-1959.12,-1941.78,1858.32,136.5978,-7.7968,-2.7437,984.9893,55.855835,37.48527,174.5871,NaN,,0.0101,6.0,275.5635,22 / 28,,1000,2021-05-20 21:42:48:319
0.984047,2.734262,9.608225,0.413433,1.268617,9.715455,-0.170637,0.109279,-0.090732,-1958.88,-1941.66,1857.96,136.5978,-7.7968,-2.7437,984.9893,55.855835,37.48527,174.5871,NaN,,0.0101,6.0,275.5635,22 / 28,,1010,2021-05-20 21:42:48:329
0.984047,2.734262,9.608225,0.413433,1.268617,9.715455,-0.170637,0.109279,-0.090732,-1958.88,-1941.66,1857.96,136.5978,-7.7968,-2.7437,984.9893,55.855835,37.48527,174.5871,NaN,,0.0101,6.0,275.5635,22 / 28,,1020,2021-05-20 21:42:48:339
0.919402,2.760599,9.660899,0.389533,1.239733,9.72017,-0.162085,0.117831,-0.107225,-1959.0,-1941.06,1857.48,136.6096,-7.4328,-2.4367,984.9893,55.855835,37.48527,174.5871,NaN,,0.0101,6.0,275.5635,22 / 28,,1030,2021-05-20 21:42:48:349
0.749408,2.834822,9.526819,0.389533,1.239733,9.72017,-0.140094,0.181972,-0.104171,-1959.0,-1941.06,1857.48,136.6096,-7.4328,-2.4367,984.9893,55.855835,37.48527,174.5871,NaN,,0.0101,6.0,275.5635,22 / 28,,1041,2021-05-20 21:42:48:360
0.754197,3.050306,9.395134,0.36489,1.214717,9.724284,-0.140094,0.181972,-0.104171,-1959.24,-1940.64,1857.6,136.6096,-7.4328,-2.4367,984.9893,55.855835,37.48527,174.5871,NaN,,0.0101,6.0,275.5635,22 / 28,,1050,2021-05-20 21:42:48:369
0.790111,3.239454,9.284998,0.36489,1.214717,9.724284,-0.1798,0.302312,-0.080958,-1959.24,-1940.64,1857.6,136.6096,-7.4328,-2.4367,984.9893,55.855835,37.48527,174.5871,NaN,,0.0101,6.0,275.5635,22 / 28,,1061,2021-05-20 21:42:48:380
0.928979,3.25382,9.174861,0.313171,1.186256,9.7296,-0.237222,0.365231,-0.078515,-1958.94,-1940.64,1858.38,136.6418,-7.1153,-2.1489,984.9893,55.855835,37.48527,174.5871,NaN,,0.0101,6.0,275.5635,22 / 28,,1070,2021-05-20 21:42:48:389
0.928979,3.25382,9.174861,0.313171,1.186256,9.7296,-0.280593,0.312086,-0.094397,-1958.94,-1940.64,1858.38,136.6418,-7.1153,-2.1489,984.991,55.855835,37.48527,174.5871,NaN,,0.0101,6.0,275.5635,22 / 28,,1080,2021-05-20 21:42:48:399
0.720677,2.815667,9.553157,0.248231,1.138703,9.737152,-0.287923,0.100727,-0.097451,-1957.74,-1940.7,1858.44,136.6418,-7.1153,-2.1489,984.991,55.855835,37.48527,174.5871,NaN,,0.0101,6.0,275.5635,22 / 28,,1090,2021-05-20 21:42:48:409
0.509981,2.808484,10.446221,0.248231,1.138703,9.737152,-0.236611,-0.114909,-0.05408,-1957.74,-1940.7,1858.44,136.6418,-7.1153,-2.1489,984.991,55.855835,37.48527,174.5871,NaN,,0.0101,6.0,275.5635,22 / 28,,1101,2021-05-20 21:42:48:420
0.969681,4.051113,11.538011,0.249138,1.091597,9.742522,-0.100999,-0.344594,-0.050415,-1957.08,-1940.22,1858.32,136.8404,-6.668,-1.4603,984.991,55.855835,37.48527,174.5871,NaN,,0.0101,6.0,275.5635,22 / 28,,1110,2021-05-20 21:42:48:429
0.969681,4.051113,11.538011,0.249138,1.091597,9.742522,0.04622,-0.267625,-0.114556,-1957.08,-1940.22,1858.32,136.8404,-6.668,-1.4603,984.991,55.855835,37.48527,174.5871,NaN,,0.0101,6.0,275.5635,22 / 28,,1120,2021-05-20 21:42:48:439
0.129291,2.937775,10.867614,0.311272,1.088478,9.741084,0.077374,-0.252964,-0.079125,-1957.0198,-1940.22,1858.38,136.8404,-6.668,-1.4603,984.991,55.855835,37.48527,174.5871,NaN,,0.0101,6.0,275.5635,22 / 28,,1130,2021-05-20 21:42:48:449
0.962499,3.004815,10.398335,0.311272,1.088478,9.741084,0.100587,-0.541903,-0.016817,-1957.0198,-1940.22,1858.38,136.8404,-6.668,-1.4603,984.991,55.855835,37.48527,174.5871,NaN,,0.0101,6.0,275.5635,22 / 28,,1140,2021-05-20 21:42:48:459
0.871516,3.155654,10.774237,0.382098,1.108279,9.736329,0.18733,-0.650027,0.021667,-1957.8,-1940.64,1858.86,136.5469,-6.3726,-1.8302,984.991,55.855835,37.48527,174.5871,NaN,,0.0101,6.0,275.5635,22 / 28,,1151,2021-05-20 21:42:48:470
0.766168,3.165231,10.79818,0.445022,1.126091,9.731611,0.247805,-0.620705,0.061374,-1958.16,-1940.58,1858.5,136.5469,-6.3726,-1.8302,984.991,55.855835,37.48527,174.5871,NaN,,0.0101,6.0,275.5635,22 / 28,,1160,2021-05-20 21:42:48:479
0.766168,3.165231,10.79818,0.445022,1.126091,9.731611,0.234366,-0.386744,0.042437,-1958.16,-1940.58,1858.5,136.5469,-6.3726,-1.8302,984.991,55.855835,37.48527,174.5871,NaN,,0.0101,6.0,275.5635,22 / 28,,1170,2021-05-20 21:42:48:489
0.703917,3.498036,10.656918,0.547666,1.176869,9.720362,0.1519,-0.160724,0.021057,-1958.46,-1940.04,1858.2,136.5469,-6.3726,-1.8302,984.9924,55.855835,37.48527,174.5871,NaN,,0.0101,6.0,275.5635,22 / 28,,1180,2021-05-20 21:42:48:499
0.629694,3.565075,10.089474,0.547666,1.176869,9.720362,0.043166,0.012762,0.013726,-1958.46,-1940.04,1858.2,136.5469,-6.3726,-1.8302,984.9924,55.855835,37.48527,174.5871,NaN,,0.0101,6.0,275.5635,22 / 28,,1190,2021-05-20 21:42:48:509
0.584203,3.505218,9.725544,0.566778,1.201774,9.716218,-0.068623,0.040862,0.002731,-1958.88,-1940.16,1857.78,136.0235,-6.8925,-3.2248,984.9924,55.855835,37.48527,174.5871,NaN,,0.0101,6.0,275.5635,22 / 28,,1200,2021-05-20 21:42:48:519
0.418998,3.158049,10.041589,0.566778,1.201774,9.716218,-0.185298,0.005432,-0.018039,-1958.88,-1940.16,1857.78,136.0235,-6.8925,-3.2248,984.9924,55.855835,37.48527,174.5871,NaN,,0.0101,6.0,275.5635,22 / 28,,1210,2021-05-20 21:42:48:529
0.418998,3.158049,10.041589,0.561493,1.186033,9.718459,-0.324575,0.022536,-0.001545,-1959.06,-1940.7,1857.48,136.0235,-6.8925,-3.2248,984.9924,55.855835,37.48527,174.5871,NaN,,0.0101,6.0,275.5635,22 / 28,,1221,2021-05-20 21:42:48:540
0.490826,2.355966,10.982538,0.561493,1.186033,9.718459,-0.411929,0.090953,0.022889,-1959.06,-1940.7,1857.48,136.0235,-6.8925,-3.2248,984.9924,55.855835,37.48527,174.5871,NaN,,0.0101,6.0,275.5635,22 / 28,,1230,2021-05-20 21:42:48:549
0.402238,1.443748,12.342486,0.554025,1.122028,9.726484,-0.388105,0.185026,0.088252,-1959.3,-1940.1,1857.84,136.003,-6.9465,-3.3066,984.9924,55.855835,37.48527,174.5871,NaN,,0.0101,6.0,275.5635,22 / 28,,1240,2021-05-20 21:42:48:559
0.531529,0.931373,12.871621,0.554025,1.122028,9.726484,-0.302584,0.169755,0.097415,-1959.3,-1940.1,1857.84,136.003,-6.9465,-3.3066,984.9924,55.855835,37.48527,174.5871,NaN,,0.0101,6.0,275.5635,22 / 28,,1250,2021-05-20 21:42:48:569
0.725465,0.433364,13.211608,0.5212,1.051075,9.736219,-0.141927,0.107446,0.061374,-1959.66,-1939.38,1858.08,136.003,-6.9465,-3.3066,984.9924,55.855835,37.48527,174.5871,NaN,,0.0101,6.0,275.5635,22 / 28,,1260,2021-05-20 21:42:48:579
0.6273,0.126897,12.948238,0.5212,1.051075,9.736219,0.08898,0.066518,0.019835,-1959.66,-1939.38,1858.08,136.003,-6.9465,-3.3066,984.9924,55.855835,37.48527,174.5871,NaN,,0.0101,6.0,275.5635,22 / 28,,1270,2021-05-20 21:42:48:589
0.6273,0.126897,12.948238,0.501877,1.029783,9.739511,0.08898,0.066518,0.019835,-1959.42,-1939.44,1858.2,135.8234,-6.1528,-3.0642,985.0032,55.855835,37.48527,174.5871,NaN,,0.0101,6.0,275.5635,22 / 28,,1280,2021-05-20 21:42:48:599
0.299284,-0.208302,12.076722,0.501877,1.029783,9.739511,0.254525,0.11722,-0.026591,-1959.42,-1939.44,1858.2,135.8234,-6.1528,-3.0642,985.0032,55.855835,37.48527,174.5871,NaN,,0.0101,6.0,275.5635,22 / 28,,1290,2021-05-20 21:42:48:609
-0.090982,-0.201119,10.843671,0.48271,1.07025,9.736115,0.322331,0.144098,-0.044917,-1959.42,-1940.4,1858.14,135.8234,-6.1528,-3.0642,985.0032,55.855835,37.48527,174.5871,NaN,,0.0101,6.0,275.5635,22 / 28,,1300,2021-05-20 21:42:48:619
-0.090982,-0.201119,10.843671,0.48271,1.07025,9.736115,0.368757,0.18747,-0.049193,-1959.42,-1940.4,1858.14,135.8234,-6.1528,-3.0642,985.0032,55.855835,37.48527,174.5871,NaN,,0.0101,6.0,275.5635,22 / 28,,1310,2021-05-20 21:42:48:629
-0.512375,0.009577,9.895537,0.448371,1.139807,9.729861,0.343711,0.241837,-0.017428,-1959.0,-1940.94,1858.2,135.9994,-6.2655,-2.8384,985.0032,55.855835,37.48527,174.5871,NaN,,0.0101,6.0,275.5635,22 / 28,,1320,2021-05-20 21:42:48:639
-0.794899,0.656031,9.007262,0.424298,1.173018,9.726993,0.339435,0.256497,-0.010098,-1959.06,-1940.4,1858.2,135.9994,-6.2655,-2.8384,985.0032,55.855835,37.48527,174.5871,NaN,,0.0101,6.0,275.5635,22 / 28,,1330,2021-05-20 21:42:48:649
-0.794899,0.656031,9.007262,0.424298,1.173018,9.726993,0.339435,0.256497,-0.010098,-1959.06,-1940.4,1858.2,135.9994,-6.2655,-2.8384,985.0032,55.855835,37.48527,174.5871,NaN,,0.0101,6.0,275.5635,22 / 28,,1341,2021-05-20 21:42:48:660
-1.137281,1.015173,8.329683,0.373396,1.238529,9.720957,0.336992,0.241837,0.007617,-1958.58,-1939.86,1858.26,135.9994,-6.2655,-2.8384,985.0032,55.855835,37.48527,174.5871,NaN,,0.0101,6.0,275.5635,22 / 28,,1350,2021-05-20 21:42:48:669
-0.814053,1.223474,7.448589,0.373396,1.238529,9.720957,0.143347,0.050025,0.002731,-1958.58,-1939.86,1858.26,135.9994,-6.2655,-2.8384,985.0032,55.855835,37.48527,174.5871,NaN,,0.0101,6.0,275.5635,22 / 28,,1360,2021-05-20 21:42:48:679
-0.814053,1.223474,7.448589,0.344231,1.285085,9.71599,-0.013645,-0.062985,-0.01193,-1958.28,-1940.4,1858.38,136.6672,-7.2555,-2.1997,985.0032,55.855835,37.48527,174.5871,NaN,,0.0101,6.0,275.5635,22 / 28,,1370,2021-05-20 21:42:48:689
-0.598569,1.077424,7.719142,0.344231,1.285085,9.71599,-0.155366,-0.151561,8.98E-4,-1958.28,-1940.4,1858.38,136.6672,-7.2555,-2.1997,985.0137,55.855835,37.48527,174.5871,NaN,,0.0101,6.0,275.5635,22 / 28,,1380,2021-05-20 21:42:48:699
-0.349564,0.797294,8.150111,0.352282,1.284635,9.71576,-0.281815,-0.226697,0.00212,-1958.28,-1941.24,1858.5,136.6672,-7.2555,-2.1997,985.0137,55.855835,37.48527,174.5871,NaN,,0.0101,6.0,275.5635,22 / 28,,1391,2021-05-20 21:42:48:710
-0.134079,0.703917,8.863605,0.352282,1.284635,9.71576,-0.360616,-0.229751,-0.019871,-1958.28,-1941.24,1858.5,136.6672,-7.2555,-2.1997,985.0137,55.855835,37.48527,174.5871,NaN,,0.0101,6.0,275.5635,22 / 28,,1400,2021-05-20 21:42:48:719
0.009577,0.612934,9.143736,0.392182,1.232549,9.720978,-0.360616,-0.229751,-0.019871,-1958.34,-1941.36,1858.44,136.8375,-7.5272,-2.0766,985.0137,55.855835,37.48527,174.5871,NaN,,0.0101,6.0,275.5635,22 / 28,,1410,2021-05-20 21:42:48:729
0.009577,0.612934,9.143736,0.392182,1.232549,9.720978,-0.392992,-0.20776,-0.036976,-1958.34,-1941.36,1858.44,136.8375,-7.5272,-2.0766,985.0137,55.855835,37.48527,174.5871,NaN,,0.0101,6.0,275.5635,22 / 28,,1421,2021-05-20 21:42:48:740
0.06704,0.423787,9.380769,0.43141,1.157036,9.728594,-0.433309,-0.188823,-0.06141,-1958.58,-1941.06,1857.84,136.8375,-7.5272,-2.0766,985.0137,55.855835,37.48527,174.5871,NaN,,0.0101,6.0,275.5635,22 / 28,,1430,2021-05-20 21:42:48:749
-0.043097,0.141262,10.079897,0.43141,1.157036,9.728594,-0.457744,-0.163167,-0.088288,-1958.58,-1941.06,1857.84,136.8375,-7.5272,-2.0766,985.0137,55.855835,37.48527,174.5871,NaN,,0.0101,6.0,275.5635,22 / 28,,1440,2021-05-20 21:42:48:759
-0.289707,-0.095771,10.424672,0.46193,1.069698,9.737184,-0.453468,-0.053822,-0.073628,-1958.88,-1940.34,1857.3,136.314,-6.7758,-2.5391,985.0137,55.855835,37.48527,174.5871,NaN,,0.0101,6.0,275.5635,22 / 28,,1450,2021-05-20 21:42:48:769
-0.471672,-0.124502,10.611426,0.46193,1.069698,9.737184,-0.432088,0.022536,-0.022315,-1958.88,-1940.34,1857.3,136.314,-6.7758,-2.5391,985.0137,55.855835,37.48527,174.5871,NaN,,0.0101,6.0,275.5635,22 / 28,,1460,2021-05-20 21:42:48:779
-0.471672,-0.124502,10.611426,0.462613,0.982878,9.746298,-0.375277,0.087899,0.082754,-1959.6,-1939.8,1857.9,136.314,-6.7758,-2.5391,985.0137,55.855835,37.48527,174.5871,NaN,,0.0101,6.0,275.5635,22 / 28,,1470,2021-05-20 21:42:48:789
-0.392661,0.019154,10.41749,0.462613,0.982878,9.746298,-0.300141,0.153261,0.170108,-1959.6,-1939.8,1857.9,136.314,-6.7758,-2.5391,985.0151,55.855835,37.48527,174.5871,NaN,,0.0101,6.0,275.5635,22 / 28,,1481,2021-05-20 21:42:48:800
-0.495615,0.06704,9.675264,0.441214,0.913479,9.754039,-0.225004,0.166089,0.2709,-1959.66,-1939.68,1858.32,135.8421,-5.7522,-2.7175,985.0151,55.855835,37.48527,174.5871,NaN,,0.0101,6.0,275.5635,22 / 28,,1491,2021-05-20 21:42:48:810
-0.189148,0.725465,9.11261,0.441214,0.913479,9.754039,-0.122379,0.059188,0.396128,-1959.66,-1939.68,1858.32,135.8421,-5.7522,-2.7175,985.0151,55.855835,37.48527,174.5871,NaN,,0.0101,6.0,275.5635,22 / 28,,1500,2021-05-20 21:42:48:819
-0.189148,0.725465,9.11261,0.419983,0.872115,9.758761,-0.019754,-0.065429,0.457214,-1959.0,-1939.38,1857.72,135.8421,-5.7522,-2.7175,985.0151,55.855835,37.48527,174.5871,NaN,,0.0101,6.0,275.5635,22 / 28,,1510,2021-05-20 21:42:48:829
-0.031126,1.455719,8.712766,0.419983,0.872115,9.758761,0.118302,-0.213869,0.459047,-1959.0,-1939.38,1857.72,135.8421,-5.7522,-2.7175,985.0151,55.85583,37.48527,174.0297,NaN,,0.4925,6.0,272.9102,24 / 28,,1521,2021-05-20 21:42:48:840
0.31365,1.838803,8.028004,0.453783,0.87695,9.756814,0.176945,-0.296946,0.375358,-1958.5198,-1939.14,1857.24,135.7191,-5.1021,-2.4643,985.0151,55.85583,37.48527,174.0297,NaN,,0.4925,6.0,272.9102,24 / 28,,1530,2021-05-20 21:42:48:849
0.354353,1.934574,7.678439,0.453783,0.87695,9.756814,0.137239,-0.276788,0.297168,-1958.5198,-1939.14,1857.24,135.7191,-5.1021,-2.4643,985.0151,55.85583,37.48527,174.0297,NaN,,0.4925,6.0,272.9102,24 / 28,,1541,2021-05-20 21:42:48:860
0.354353,1.934574,7.678439,0.516227,0.906073,9.751047,0.114637,-0.169276,0.229972,-1958.88,-1939.26,1857.9,135.7191,-5.1021,-2.4643,985.0151,55.85583,37.48527,174.0297,NaN,,0.4925,6.0,272.9102,24 / 28,,1550,2021-05-20 21:42:48:869
0.471672,2.367938,8.004061,0.516227,0.906073,9.751047,0.101198,0.048803,0.198207,-1958.88,-1939.26,1857.9,135.7191,-5.1021,-2.4643,985.0151,55.85583,37.48527,174.0297,NaN,,0.4925,6.0,272.9102,24 / 28,,1560,2021-05-20 21:42:48:879
0.105348,2.051894,7.843644,0.548467,0.926363,9.74738,0.03217,0.274213,0.24952,-1958.76,-1939.32,1858.38,135.5261,-5.3013,-3.0304,985.0151,55.85583,37.48527,174.0297,NaN,,0.4925,6.0,272.9102,24 / 28,,1570,2021-05-20 21:42:48:889
-0.181965,1.750215,6.902694,0.548467,0.926363,9.74738,-0.075953,0.257108,0.3271,-1958.76,-1939.32,1858.38,135.5261,-5.3013,-3.0304,985.0007,55.85583,37.48527,174.0297,NaN,,0.4925,6.0,272.9102,24 / 28,,1580,2021-05-20 21:42:48:899
0.172388,2.018374,7.144516,0.505815,0.932195,9.749131,-0.075953,0.257108,0.3271,-1959.3,-1939.26,1858.56,135.5261,-5.3013,-3.0304,985.0007,55.85583,37.48527,174.0297,NaN,,0.4925,6.0,272.9102,24 / 28,,1591,2021-05-20 21:42:48:910
0.41421,2.21231,7.82449,0.505815,0.932195,9.749131,-0.181022,0.247945,0.297779,-1959.3,-1939.26,1858.56,135.5261,-5.3013,-3.0304,985.0007,55.85583,37.48527,174.0297,NaN,,0.4925,6.0,272.9102,24 / 28,,1601,2021-05-20 21:42:48:920
0.41421,2.21231,7.82449,0.46186,0.902162,9.754137,-0.204235,0.183194,0.19271,-1959.6,-1939.68,1858.0198,135.6114,-5.4546,-2.97,985.0007,55.85583,37.48527,174.0297,NaN,,0.4925,6.0,272.9102,24 / 28,,1610,2021-05-20 21:42:48:929
0.737437,2.238647,8.308133,0.46186,0.902162,9.754137,-0.128488,-0.010451,0.046713,-1959.6,-1939.68,1858.0198,135.6114,-5.4546,-2.97,985.0007,55.85583,37.48527,174.0297,NaN,,0.4925,6.0,272.9102,24 / 28,,1620,2021-05-20 21:42:48:939
0.835602,2.332024,9.04557,0.44326,0.868692,9.758037,0.041944,-0.154004,-0.079736,-1959.0,-1939.98,1857.78,135.6114,-5.4546,-2.97,985.0007,55.85583,37.48527,174.0297,NaN,,0.4925,6.0,272.9102,24 / 28,,1630,2021-05-20 21:42:48:949
0.603357,2.341601,9.179649,0.44326,0.868692,9.758037,0.162284,-0.201041,-0.16709,-1959.0,-1939.98,1857.78,135.6114,-5.4546,-2.97,985.0007,55.85583,37.48527,174.0297,NaN,,0.4925,6.0,272.9102,24 / 28,,1640,2021-05-20 21:42:48:959
0.603357,2.341601,9.179649,0.471891,0.883251,9.755387,0.211154,-0.220588,-0.236729,-1959.36,-1939.68,1858.0198,135.6606,-5.082,-2.6009,985.0007,55.85583,37.48527,174.0297,NaN,,0.4925,6.0,272.9102,24 / 28,,1650,2021-05-20 21:42:48:969
0.22985,2.360755,8.945011,0.491321,0.9055,9.752387,0.194049,-0.224254,-0.273991,-1959.6,-1939.44,1858.14,135.6606,-5.082,-2.6009,985.0007,55.85583,37.48527,174.0297,NaN,,0.4925,6.0,272.9102,24 / 28,,1660,2021-05-20 21:42:48:979
0.040703,2.367938,8.870789,0.491321,0.9055,9.752387,0.127465,-0.242579,-0.281322,-1959.6,-1939.44,1858.14,135.6606,-5.082,-2.6009,985.0007,55.85583,37.48527,174.0297,NaN,,0.4925,6.0,272.9102,24 / 28,,1670,2021-05-20 21:42:48:989
-0.126897,2.427795,9.387952,0.530378,0.946559,9.746441,0.047442,-0.255408,-0.258109,-1958.94,-1939.8,1858.26,135.6606,-5.082,-2.6009,985.0061,55.85583,37.48527,174.0297,NaN,,0.4925,6.0,272.9102,24 / 28,,1681,2021-05-20 21:42:49:000
-0.126897,2.427795,9.387952,0.530378,0.946559,9.746441,-0.004482,-0.233416,-0.236118,-1958.94,-1939.8,1858.26,135.6606,-5.082,-2.6009,985.0061,55.85583,37.48527,174.0297,NaN,,0.4925,6.0,272.9102,24 / 28,,1690,2021-05-20 21:42:49:009
-0.119714,2.552297,10.144543,0.573558,0.961742,9.742508,-0.013034,-0.233416,-0.231842,-1958.76,-1940.16,1857.84,135.5882,-5.5389,-3.1148,985.0061,55.85583,37.48527,174.0297,NaN,,0.4925,6.0,272.9102,24 / 28,,1701,2021-05-20 21:42:49:020
-0.03352,2.415823,10.855642,0.573558,0.961742,9.742508,0.01812,-0.29267,-0.231842,-1958.76,-1940.16,1857.84,135.5882,-5.5389,-3.1148,985.0061,55.85583,37.48527,174.0297,NaN,,0.4925,6.0,272.9102,24 / 28,,1710,2021-05-20 21:42:49:029
-0.03352,2.415823,10.855642,0.615303,0.965198,9.739619,0.01812,-0.29267,-0.231842,-1960.14,-1939.92,1858.56,135.5882,-5.5389,-3.1148,985.0061,55.85583,37.48527,174.0297,NaN,,0.4925,6.0,272.9102,24 / 28,,1720,2021-05-20 21:42:49:039
-0.047885,2.322447,11.822929,0.615303,0.965198,9.739619,0.092035,-0.279231,-0.207407,-1960.14,-1939.92,1858.56,135.5882,-5.5389,-3.1148,985.0061,55.85583,37.48527,174.0297,NaN,,0.4925,6.0,272.9102,24 / 28,,1731,2021-05-20 21:42:49:050
0.06704,2.219493,11.803775,0.665038,0.985434,9.734322,0.143347,-0.190656,-0.182972,-1960.38,-1939.38,1858.74,135.3668,-5.6484,-3.6149,985.0061,55.85583,37.48527,174.0297,NaN,,0.4925,6.0,272.9102,24 / 28,,1740,2021-05-20 21:42:49:059
0.320833,2.090202,11.928277,0.665038,0.985434,9.734322,0.122578,-0.182715,-0.166479,-1960.38,-1939.38,1858.74,135.3668,-5.6484,-3.6149,985.0061,55.85583,37.48527,174.0297,NaN,,0.4925,6.0,272.9102,24 / 28,,1750,2021-05-20 21:42:49:069
0.320833,2.090202,11.928277,0.69545,1.016059,9.729047,0.120745,-0.167443,-0.177475,-1960.32,-1939.2,1858.44,135.3668,-5.6484,-3.6149,985.0061,55.85583,37.48527,174.0297,NaN,,0.4925,6.0,272.9102,24 / 28,,1760,2021-05-20 21:42:49:079
0.332804,2.025557,12.273052,0.69545,1.016059,9.729047,0.196493,-0.304277,-0.175031,-1960.32,-1939.2,1858.44,135.3668,-5.6484,-3.6149,985.0061,55.85583,37.48527,174.0297,NaN,,0.4925,6.0,272.9102,24 / 28,,1771,2021-05-20 21:42:49:090
0.282524,1.860352,13.192454,0.730887,1.0474,9.723124,0.272851,-0.273734,-0.108447,-1960.62,-1939.5,1858.26,135.2405,-5.947,-4.0887,985.0071,55.85583,37.48527,174.0297,NaN,,0.4925,6.0,272.9102,24 / 28,,1780,2021-05-20 21:42:49:099
-0.320833,1.245023,13.63779,0.730887,1.0474,9.723124,0.189162,0.042695,0.131623,-1960.62,-1939.5,1858.26,135.2405,-5.947,-4.0887,985.0071,55.85583,37.48527,174.0297,NaN,,0.4925,6.0,272.9102,24 / 28,,1790,2021-05-20 21:42:49:109
-0.320833,1.245023,13.63779,0.767013,1.098655,9.714681,-0.046632,0.154483,0.426671,-1960.74,-1939.86,1857.6,135.2405,-5.947,-4.0887,985.0071,55.85583,37.48527,174.0297,NaN,,0.4925,6.0,272.9102,24 / 28,,1800,2021-05-20 21:42:49:119
-0.878699,1.460508,12.273052,0.767013,1.098655,9.714681,-0.33496,0.382947,0.689954,-1960.74,-1939.86,1857.6,135.2405,-5.947,-4.0887,985.0071,55.85583,37.48527,174.0297,NaN,,0.4925,6.0,272.9102,24 / 28,,1810,2021-05-20 21:42:49:129
-0.155628,2.494835,11.669696,0.733369,1.074666,9.719961,-0.387494,0.240615,0.721719,-1960.92,-1939.62,1857.48,135.2283,-6.4324,-4.5144,985.0071,55.85583,37.48527,174.0297,NaN,,0.4925,6.0,272.9102,24 / 28,,1821,2021-05-20 21:42:49:140
0.663214,2.808484,12.184464,0.70817,1.031893,9.726463,-0.352064,0.149596,0.562894,-1961.16,-1939.86,1857.48,135.2283,-6.4324,-4.5144,985.0071,55.85583,37.48527,174.0297,NaN,,0.4925,6.0,272.9102,24 / 28,,1830,2021-05-20 21:42:49:149
0.663214,2.808484,12.184464,0.70817,1.031893,9.726463,-0.352064,0.149596,0.562894,-1961.16,-1939.86,1857.48,135.2283,-6.4324,-4.5144,985.0071,55.85583,37.48527,174.0297,NaN,,0.4925,6.0,272.9102,24 / 28,,1840,2021-05-20 21:42:49:159
1.819649,2.063865,13.041615,0.685748,0.956591,9.735763,-0.267765,0.140433,0.333209,-1960.8,-1939.74,1858.0198,135.2283,-6.4324,-4.5144,985.0071,55.85583,37.48527,174.0297,NaN,,0.4925,6.0,272.9102,24 / 28,,1850,2021-05-20 21:42:49:169
1.996825,0.87391,13.079924,0.685748,0.956591,9.735763,-0.132764,0.128216,0.099247,-1960.8,-1939.74,1858.0198,135.2283,-6.4324,-4.5144,985.0071,55.85583,37.48527,174.0297,NaN,,0.4925,6.0,272.9102,24 / 28,,1860,2021-05-20 21:42:49:179
1.719089,0.167599,12.912324,0.66321,0.923551,9.740513,0.027283,0.044527,-0.034532,-1960.62,-1939.74,1857.6,135.1561,-5.5978,-4.029,985.0071,55.85583,37.48527,174.0297,NaN,,0.4925,6.0,272.9102,24 / 28,,1871,2021-05-20 21:42:49:190
1.479662,-0.079011,12.522058,0.660375,0.932088,9.739893,0.253914,-0.056266,-0.13166,-1960.68,-1939.92,1857.48,135.1561,-5.5978,-4.029,985.0098,55.85583,37.48527,174.0297,NaN,,0.4925,6.0,272.9102,24 / 28,,1880,2021-05-20 21:42:49:199
1.479662,-0.079011,12.522058,0.660375,0.932088,9.739893,0.556292,-0.20776,-0.212294,-1960.68,-1939.92,1857.48,135.1561,-5.5978,-4.029,985.0098,55.85583,37.48527,174.0297,NaN,,0.4925,6.0,272.9102,24 / 28,,1891,2021-05-20 21:42:49:210
1.412622,-0.081405,11.712792,0.685988,1.01955,9.729354,0.712674,-0.230973,-0.236118,-1960.5,-1939.8,1856.94,135.1561,-5.5978,-4.029,985.0098,55.85583,37.48527,174.0297,NaN,,0.4925,6.0,272.9102,24 / 28,,1900,2021-05-20 21:42:49:219
1.347977,-0.155628,10.606637,0.685988,1.01955,9.729354,0.714506,-0.152782,-0.221457,-1960.5,-1939.8,1856.94,135.1561,-5.5978,-4.029,985.0098,55.85583,37.48527,174.0297,NaN,,0.4925,6.0,272.9102,24 / 28,,1910,2021-05-20 21:42:49:229
1.297697,-0.10056,9.483723,0.718738,1.160613,9.711168,0.570953,-0.004953,-0.17442,-1960.2,-1939.74,1857.96,135.3008,-5.9676,-4.0331,985.0098,55.85583,37.48527,174.0297,NaN,,0.4925,6.0,272.9102,24 / 28,,1920,2021-05-20 21:42:49:239
1.441354,-0.181965,8.631361,0.718738,1.160613,9.711168,0.386472,0.123329,-0.132271,-1960.2,-1939.74,1857.96,135.3008,-5.9676,-4.0331,985.0098,55.85583,37.48527,174.0297,NaN,,0.4925,6.0,272.9102,24 / 28,,1930,2021-05-20 21:42:49:249
1.661627,-0.138868,8.612206,0.70157,1.248557,9.701509,0.070655,0.233285,-0.080958,-1960.14,-1939.86,1858.08,135.3008,-5.9676,-4.0331,985.0098,55.85583,37.48527,174.0297,NaN,,0.4925,6.0,272.9102,24 / 28,,1941,2021-05-20 21:42:49:260
1.661627,-0.138868,8.612206,0.70157,1.248557,9.701509,-0.170026,0.293149,-0.081569,-1960.14,-1939.86,1858.08,135.3008,-5.9676,-4.0331,985.0098,55.85583,37.48527,174.0297,NaN,,0.4925,6.0,272.9102,24 / 28,,1950,2021-05-20 21:42:49:269
1.929786,-0.090982,9.313729,0.649506,1.23819,9.706463,-0.324575,0.362788,-0.132882,-1960.14,-1940.88,1857.66,135.7343,-7.3146,-4.1362,985.0098,55.85583,37.48527,174.0297,NaN,,0.4925,6.0,272.9102,24 / 28,,1960,2021-05-20 21:42:49:279
1.939363,-0.201119,9.569917,0.649506,1.23819,9.706463,-0.372223,0.411046,-0.189081,-1960.14,-1940.88,1857.66,135.7343,-7.3146,-4.1362,985.0098,55.85583,37.48527,174.0297,NaN,,0.4925,6.0,272.9102,24 / 28,,1970,2021-05-20 21:42:49:289
1.632896,-0.268159,9.340066,0.57209,1.170506,9.719723,-0.348399,0.395164,-0.234285,-1959.9,-1940.7,1857.36,135.7343,-7.3146,-4.1362,985.0208,55.85583,37.48527,174.0297,NaN,,0.4925,6.0,272.9102,24 / 28,,1980,2021-05-20 21:42:49:299
1.632896,-0.268159,9.340066,0.57209,1.170506,9.719723,-0.283036,0.294371,-0.252611,-1959.9,-1940.7,1857.36,135.7343,-7.3146,-4.1362,985.0208,55.85583,37.48527,174.0297,NaN,,0.4925,6.0,272.9102,24 / 28,,1991,2021-05-20 21:42:49:310
1.58501,-0.004789,8.954588,0.498519,1.108605,9.731026,-0.228669,0.15937,-0.284987,-1959.84,-1939.68,1857.18,135.9267,-6.8551,-3.3685,985.0208,55.85583,37.48527,174.0297,NaN,,0.4925,6.0,272.9102,24 / 28,,2000,2021-05-20 21:42:49:319
1.628107,0.375901,8.913885,0.498519,1.108605,9.731026,-0.168805,0.083012,-0.332024,-1959.84,-1939.68,1857.18,135.9267,-6.8551,-3.3685,985.0208,55.85583,37.48527,174.0297,NaN,,0.4925,6.0,272.9102,24 / 28,,2010,2021-05-20 21:42:49:329
1.656838,0.64406,8.633755,0.467178,1.068918,9.73702,-0.138261,0.061631,-0.390056,-1959.66,-1939.86,1857.9,135.9267,-6.8551,-3.3685,985.0208,55.85583,37.48527,174.0297,NaN,,0.4925,6.0,272.9102,24 / 28,,2020,2021-05-20 21:42:49:339
1.434171,0.684763,8.267432,0.467178,1.068918,9.73702,-0.149257,0.062853,-0.419377,-1959.66,-1939.86,1857.9,135.9267,-6.8551,-3.3685,985.0208,55.85583,37.48527,174.0297,NaN,,0.4925,6.0,272.9102,24 / 28,,2030,2021-05-20 21:42:49:349
1.434171,0.684763,8.267432,0.449127,1.04329,9.740647,-0.166972,0.069573,-0.417545,-1959.36,-1939.62,1858.56,136.028,-6.2576,-2.7469,985.0208,55.85583,37.48527,174.0297,NaN,,0.4925,6.0,272.9102,24 / 28,,2040,2021-05-20 21:42:49:359
0.981653,0.7111,8.109409,0.449127,1.04329,9.740647,-0.176746,0.099505,-0.396775,-1959.36,-1939.62,1858.56,136.028,-6.2576,-2.7469,985.0208,55.85583,37.48527,174.0297,NaN,,0.4925,6.0,272.9102,24 / 28,,2051,2021-05-20 21:42:49:370
0.462095,0.852362,7.89153,0.428384,1.013487,9.744728,-0.19385,0.124551,-0.368065,-1959.06,-1939.5,1857.96,136.028,-6.2576,-2.7469,985.0208,55.85583,37.48527,174.0297,NaN,,0.4925,6.0,272.9102,24 / 28,,2060,2021-05-20 21:42:49:379
0.112531,0.881093,7.690411,0.428384,1.013487,9.744728,-0.19385,0.124551,-0.368065,-1959.06,-1939.5,1857.96,136.028,-6.2576,-2.7469,985.0208,55.85583,37.48527,174.0297,NaN,,0.4925,6.0,272.9102,24 / 28,,2070,2021-05-20 21:42:49:389
-0.057463,0.921796,7.690411,0.399228,0.978372,9.749554,-0.203624,0.12394,-0.305145,-1958.82,-1939.08,1857.42,136.0048,-5.9319,-2.5171,985.0222,55.85583,37.48527,174.0297,NaN,,0.4925,6.0,272.9102,24 / 28,,2080,2021-05-20 21:42:49:399
-0.057463,0.921796,7.690411,0.399228,0.978372,9.749554,-0.15842,0.096451,-0.228787,-1958.82,-1939.08,1857.42,136.0048,-5.9319,-2.5171,985.0222,55.85583,37.48527,174.0297,NaN,,0.4925,6.0,272.9102,24 / 28,,2090,2021-05-20 21:42:49:409
-0.021548,1.194743,7.570697,0.374555,0.94499,9.753824,-0.100388,0.068962,-0.16709,-1958.88,-1938.3,1857.84,136.0048,-5.9319,-2.5171,985.0222,55.85583,37.48527,174.0297,NaN,,0.4925,6.0,272.9102,24 / 28,,2100,2021-05-20 21:42:49:419
0.220273,1.415016,7.371972,0.374555,0.94499,9.753824,-0.054573,0.034142,-0.119442,-1958.88,-1938.3,1857.84,136.0048,-5.9319,-2.5171,985.0222,55.85583,37.48527,174.0297,NaN,,0.4925,6.0,272.9102,24 / 28,,2110,2021-05-20 21:42:49:429
0.457306,1.654444,7.29775,0.362504,0.930981,9.755627,-0.014256,0.051247,-0.086456,-1958.64,-1938.42,1858.26,135.996,-5.5297,-2.1991,985.0222,55.85583,37.48527,174.0297,NaN,,0.4925,6.0,272.9102,24 / 28,,2121,2021-05-20 21:42:49:440
0.691945,1.987248,7.412675,0.362504,0.930981,9.755627,0.019953,0.075681,-0.080347,-1958.64,-1938.42,1858.26,135.996,-5.5297,-2.1991,985.0222,55.85583,37.48527,174.0297,NaN,,0.4925,6.0,272.9102,24 / 28,,2130,2021-05-20 21:42:49:449
0.691945,1.987248,7.412675,0.350621,0.930832,9.756076,0.117691,0.101338,-0.12494,-1958.22,-1939.08,1858.38,135.996,-5.5297,-2.1991,985.0222,55.85583,37.48527,174.0297,NaN,,0.4925,6.0,272.9102,24 / 28,,2140,2021-05-20 21:42:49:459
0.588992,2.097385,7.501263,0.350621,0.930832,9.756076,0.232534,0.11722,-0.135936,-1958.22,-1939.08,1858.38,135.996,-5.5297,-2.1991,985.0222,55.85583,37.48527,174.0297,NaN,,0.4925,6.0,272.9102,24 / 28,,2150,2021-05-20 21:42:49:469
0.208302,2.013585,7.070294,0.329278,0.956688,9.754318,0.334548,0.028034,-0.126773,-1958.88,-1938.72,1858.56,136.0474,-5.4466,-2.0583,985.0222,55.85583,37.48527,174.0297,NaN,,0.4925,6.0,272.9102,24 / 28,,2160,2021-05-20 21:42:49:479
-0.287313,1.920209,6.706364,0.329278,0.956688,9.754318,0.495817,-0.238914,-0.077293,-1958.88,-1938.72,1858.56,136.0474,-5.4466,-2.0583,985.0222,55.85583,37.48527,174.0297,NaN,,0.4925,6.0,272.9102,24 / 28,,2171,2021-05-20 21:42:49:490
-0.579414,1.781341,6.416657,0.328479,1.028229,9.747063,0.610659,-0.505862,-0.002156,-1959.36,-1938.48,1857.96,136.0474,-5.4466,-2.0583,985.0068,55.85583,37.48527,174.0297,NaN,,0.4925,6.0,272.9102,24 / 28,,2180,2021-05-20 21:42:49:499
-0.579414,1.781341,6.416657,0.328479,1.028229,9.747063,0.633872,-0.736769,0.054654,-1959.36,-1938.48,1857.96,136.0474,-5.4466,-2.0583,985.0068,55.85583,37.48527,174.0297,NaN,,0.4925,6.0,272.9102,24 / 28,,2190,2021-05-20 21:42:49:509
-0.184359,1.996825,6.612987,0.419972,1.14471,9.730553,0.633872,-0.736769,0.054654,-1958.94,-1938.96,1857.12,136.3234,-6.0185,-1.9302,985.0068,55.85583,37.48527,174.0297,NaN,,0.4925,6.0,272.9102,24 / 28,,2200,2021-05-20 21:42:49:519
0.933767,2.399063,7.484504,0.419972,1.14471,9.730553,0.572786,-0.865051,0.079089,-1958.94,-1938.96,1857.12,136.3234,-6.0185,-1.9302,985.0068,55.85583,37.48527,174.0297,NaN,,0.4925,6.0,272.9102,24 / 28,,2211,2021-05-20 21:42:49:530
1.903449,3.050306,8.492493,0.582381,1.261683,9.707697,0.495206,-0.750819,0.03083,-1959.18,-1938.96,1857.3,136.3234,-6.0185,-1.9302,985.0068,55.85583,37.48527,174.0297,NaN,,0.4925,6.0,272.9102,24 / 28,,2220,2021-05-20 21:42:49:539
2.121328,3.225088,8.696006,0.582381,1.261683,9.707697,0.374255,-0.449663,-0.069962,-1959.18,-1938.96,1857.3,136.3234,-6.0185,-1.9302,985.0068,55.85583,37.48527,174.0297,NaN,,0.4925,6.0,272.9102,24 / 28,,2230,2021-05-20 21:42:49:549
1.800495,3.225088,8.581081,0.69567,1.347887,9.688634,0.210543,-0.105746,-0.163425,-1960.0198,-1939.8,1856.82,136.0816,-7.3919,-3.4332,985.0068,55.85583,37.48527,174.0297,NaN,,0.4925,6.0,272.9102,24 / 28,,2241,2021-05-20 21:42:49:560
1.800495,3.225088,8.581081,0.69567,1.347887,9.688634,0.040722,0.149596,-0.228176,-1960.0198,-1939.8,1856.82,136.0816,-7.3919,-3.4332,985.0068,55.85583,37.48527,174.0297,NaN,,0.4925,6.0,272.9102,24 / 28,,2250,2021-05-20 21:42:49:569
0.950527,3.258608,8.655303,0.68705,1.378034,9.685007,-0.113827,0.303534,-0.270937,-1960.62,-1940.58,1856.82,136.0816,-7.3919,-3.4332,985.0068,55.85583,37.48527,174.0297,NaN,,0.4925,6.0,272.9102,24 / 28,,2260,2021-05-20 21:42:49:579
0.390267,2.966507,9.253872,0.68705,1.378034,9.685007,-0.198737,0.255887,-0.236118,-1960.62,-1940.58,1856.82,136.0816,-7.3919,-3.4332,985.0068,55.85583,37.48527,174.0297,NaN,,0.4925,6.0,272.9102,24 / 28,,2270,2021-05-20 21:42:49:589
0.349564,2.952141,10.319324,0.625008,1.357185,9.692152,-0.212787,0.211293,-0.187859,-1960.56,-1939.92,1857.54,135.9994,-8.078,-4.0577,984.9954,55.85583,37.48527,174.0297,NaN,,0.4925,6.0,272.9102,24 / 28,,2281,2021-05-20 21:42:49:600
0.349564,2.952141,10.319324,0.625008,1.357185,9.692152,-0.182244,0.196633,-0.144488,-1960.56,-1939.92,1857.54,135.9994,-8.078,-4.0577,984.9954,55.85583,37.48527,174.0297,NaN,,0.4925,6.0,272.9102,24 / 28,,2290,2021-05-20 21:42:49:609
0.318439,2.770176,11.2914,0.579646,1.322708,9.699734,-0.129098,0.170365,-0.071184,-1960.08,-1939.92,1857.36,135.9994,-8.078,-4.0577,984.9954,55.85583,37.48527,174.0297,NaN,,0.4925,6.0,272.9102,24 / 28,,2300,2021-05-20 21:42:49:619
0.387873,2.693559,11.96898,0.579646,1.322708,9.699734,-0.074121,0.148374,-0.023537,-1960.08,-1939.92,1857.36,135.9994,-8.078,-4.0577,984.9954,55.85583,37.48527,174.0297,NaN,,0.4925,6.0,272.9102,24 / 28,,2310,2021-05-20 21:42:49:629
0.586597,2.937775,12.385584,0.544947,1.30203,9.704542,-0.029527,0.128827,-0.007043,-1960.38,-1940.4,1856.64,136.2104,-7.7516,-3.4199,984.9954,55.85583,37.48527,174.0297,NaN,,0.4925,6.0,272.9102,24 / 28,,2321,2021-05-20 21:42:49:640
0.658426,3.287339,12.66332,0.544947,1.30203,9.704542,-0.048464,0.158148,-0.024148,-1960.38,-1940.4,1856.64,136.2104,-7.7516,-3.4199,984.9954,55.85583,37.48527,174.0297,NaN,,0.4925,6.0,272.9102,24 / 28,,2330,2021-05-20 21:42:49:649
0.658426,3.287339,12.66332,0.518506,1.298136,9.706512,-0.048464,0.158148,-0.024148,-1960.56,-1939.74,1857.0,136.2104,-7.7516,-3.4199,984.9954,55.85583,37.48527,174.0297,NaN,,0.4925,6.0,272.9102,24 / 28,,2341,2021-05-20 21:42:49:660
0.502798,3.51719,12.641771,0.499949,1.29238,9.708254,-0.141927,0.249778,-0.057745,-1960.74,-1939.62,1857.54,136.2104,-7.7516,-3.4199,984.9954,55.85583,37.48527,174.0297,NaN,,0.4925,6.0,272.9102,24 / 28,,2350,2021-05-20 21:42:49:669
0.29689,3.189174,12.4622,0.499949,1.29238,9.708254,-0.39849,0.298647,-0.079125,-1960.74,-1939.62,1857.54,136.2104,-7.7516,-3.4199,984.9954,55.85583,37.48527,174.0297,NaN,,0.4925,6.0,272.9102,24 / 28,,2360,2021-05-20 21:42:49:679
0.588992,2.303292,13.319351,0.442615,1.237888,9.718133,-0.645279,0.316973,-0.085234,-1959.72,-1939.5,1857.36,136.366,-7.5728,-2.948,984.9954,55.85583,37.48527,174.0297,NaN,,0.4925,6.0,272.9102,24 / 28,,2370,2021-05-20 21:42:49:689
0.7111,1.383891,14.880418,0.442615,1.237888,9.718133,-0.879241,0.380503,-0.104782,-1959.72,-1939.5,1857.36,136.366,-7.5728,-2.948,984.9937,55.85583,37.48527,174.0297,NaN,,0.4925,6.0,272.9102,24 / 28,,2380,2021-05-20 21:42:49:699
0.7111,1.383891,14.880418,0.372653,1.092739,9.738452,-1.000192,0.589419,-0.112112,-1959.06,-1939.2,1857.3,136.366,-7.5728,-2.948,984.9937,55.85583,37.48527,174.0297,NaN,,0.4925,6.0,272.9102,24 / 28,,2391,2021-05-20 21:42:49:710
0.615329,0.117319,16.463034,0.372653,1.092739,9.738452,-0.898789,0.789172,-0.095008,-1959.06,-1939.2,1857.3,136.366,-7.5728,-2.948,984.9937,55.85583,37.48527,174.0297,NaN,,0.4925,6.0,272.9102,24 / 28,,2400,2021-05-20 21:42:49:719
0.316044,-1.300091,16.475004,0.236471,0.909739,9.761497,-0.562813,0.913788,-0.029034,-1958.94,-1938.96,1857.18,136.3346,-6.3977,-2.1914,984.9937,55.85583,37.48527,174.0297,NaN,,0.4925,6.0,272.9102,24 / 28,,2410,2021-05-20 21:42:49:729
0.023943,-1.687964,15.127028,0.236471,0.909739,9.761497,-0.247606,0.877137,0.022889,-1958.94,-1938.96,1857.18,136.3346,-6.3977,-2.1914,984.9937,55.85583,37.48527,174.0297,NaN,,0.4925,6.0,272.9102,24 / 28,,2420,2021-05-20 21:42:49:739
-0.167599,-1.604164,13.597087,0.062342,0.826308,9.771577,0.11708,0.706094,0.06565,-1958.5198,-1937.88,1857.18,136.3346,-6.3977,-2.1914,984.9937,55.85583,37.48527,174.0297,NaN,,0.4925,6.0,272.9102,24 / 28,,2430,2021-05-20 21:42:49:749
-0.167599,-1.604164,13.597087,0.062342,0.826308,9.771577,0.525749,0.415933,0.091917,-1958.5198,-1937.88,1857.18,136.3346,-6.3977,-2.1914,984.9937,55.85583,37.48527,174.0297,NaN,,0.4925,6.0,272.9102,24 / 28,,2440,2021-05-20 21:42:49:759
-0.301679,-1.233051,11.911517,-0.051609,0.88081,9.766877,0.71695,0.228398,0.085197,-1957.92,-1937.16,1857.72,136.6356,-4.8335,-0.3655,984.9937,55.85583,37.48527,174.0297,NaN,,0.4925,6.0,272.9102,24 / 28,,2450,2021-05-20 21:42:49:769
-0.615329,-0.632089,10.225947,-0.051609,0.88081,9.766877,0.887992,0.021925,0.056487,-1957.92,-1937.16,1857.72,136.6356,-4.8335,-0.3655,984.9937,55.85583,37.48527,174.0297,NaN,,0.4925,6.0,272.9102,24 / 28,,2460,2021-05-20 21:42:49:779
-0.928979,-0.232245,8.561927,-0.077634,1.033533,9.751727,0.880662,-0.081311,0.039993,-1957.44,-1937.58,1858.14,136.6356,-4.8335,-0.3655,984.9937,55.85583,37.48527,174.0297,NaN,,0.4925,6.0,272.9102,24 / 28,,2470,2021-05-20 21:42:49:789
-1.058269,-0.052674,7.491686,-0.077634,1.033533,9.751727,0.774982,-0.158891,0.032052,-1957.44,-1937.58,1858.14,136.6356,-4.8335,-0.3655,985.0063,55.85583,37.48527,174.0297,NaN,,0.4925,6.0,272.9102,24 / 28,,2480,2021-05-20 21:42:49:799
-1.156435,0.079011,7.21395,-0.055531,1.194629,9.733457,0.545297,-0.18638,0.035717,-1956.72,-1938.12,1857.72,137.5696,-6.0497,0.4561,985.0063,55.85583,37.48527,174.0297,NaN,,0.4925,6.0,272.9102,24 / 28,,2491,2021-05-20 21:42:49:810
-1.156435,0.079011,7.21395,-0.055531,1.194629,9.733457,0.369368,-0.141176,0.052211,-1956.72,-1938.12,1857.72,137.5696,-6.0497,0.4561,985.0063,55.85583,37.48527,174.0297,NaN,,0.4925,6.0,272.9102,24 / 28,,2500,2021-05-20 21:42:49:819
-1.142069,0.292102,7.139728,-0.020849,1.29402,9.720878,0.200769,-0.043437,0.08031,-1956.9,-1938.96,1857.12,137.5696,-6.0497,0.4561,985.0063,55.85583,37.48527,174.0297,NaN,,0.4925,6.0,272.9102,24 / 28,,2511,2021-05-20 21:42:49:830
-0.988835,0.430969,6.893117,-0.020849,1.29402,9.720878,-0.005093,0.067129,0.121849,-1956.9,-1938.96,1857.12,137.5696,-6.0497,0.4561,985.0063,55.85583,37.48527,174.0297,NaN,,0.4925,6.0,272.9102,24 / 28,,2520,2021-05-20 21:42:49:839
-0.581809,0.5435,6.706364,-0.013069,1.326242,9.716548,-0.16575,0.149596,0.132234,-1957.56,-1939.92,1857.36,137.98,-7.5825,0.1229,985.0063,55.85583,37.485256,173.7381,NaN,,0.8018,6.0,289.8415,27 / 29,,2531,2021-05-20 21:42:49:850
-0.581809,0.5435,6.706364,-0.013069,1.326242,9.716548,-0.312358,0.215569,0.099247,-1957.56,-1939.92,1857.36,137.98,-7.5825,0.1229,985.0063,55.85583,37.485256,173.7381,NaN,,0.8018,6.0,289.8415,27 / 29,,2540,2021-05-20 21:42:49:859
-0.277736,0.696734,6.641719,-0.03899,1.294224,9.720795,-0.431477,0.273602,0.028387,-1957.14,-1940.04,1857.54,137.98,-7.5825,0.1229,985.0063,55.85583,37.485256,173.7381,NaN,,0.8018,6.0,289.8415,27 / 29,,2550,2021-05-20 21:42:49:869
-0.234639,0.682368,6.780586,-0.03899,1.294224,9.720795,-0.487676,0.276045,-0.013152,-1957.14,-1940.04,1857.54,137.98,-7.5825,0.1229,985.0063,55.85583,37.485256,173.7381,NaN,,0.8018,6.0,289.8415,27 / 29,,2560,2021-05-20 21:42:49:879
-0.555472,0.428575,7.022408,-0.090125,1.211787,9.731075,-0.487676,0.276045,-0.013152,-1956.48,-1939.56,1858.2,138.0685,-7.5837,0.2298,985.0063,55.85583,37.485256,173.7381,NaN,,0.8018,6.0,289.8415,27 / 29,,2571,2021-05-20 21:42:49:890
-0.897853,0.426181,7.211556,-0.090125,1.211787,9.731075,-0.484622,0.248556,-0.006432,-1956.48,-1939.56,1858.2,138.0685,-7.5837,0.2298,985.0046,55.85583,37.485256,173.7381,NaN,,0.8018,6.0,289.8415,27 / 29,,2580,2021-05-20 21:42:49:899
-0.897853,0.426181,7.211556,-0.140807,1.116824,9.741831,-0.379553,0.15937,0.024722,-1956.84,-1939.38,1858.08,138.0685,-7.5837,0.2298,985.0046,55.85583,37.485256,173.7381,NaN,,0.8018,6.0,289.8415,27 / 29,,2590,2021-05-20 21:42:49:909
-1.149252,0.371113,7.240287,-0.140807,1.116824,9.741831,-0.22928,0.030477,0.080921,-1956.84,-1939.38,1858.08,138.0685,-7.5837,0.2298,985.0046,55.85583,37.485256,173.7381,NaN,,0.8018,6.0,289.8415,27 / 29,,2601,2021-05-20 21:42:49:920
-1.295303,0.411815,6.957763,-0.159571,1.056506,9.748267,-0.058849,-0.106967,0.153003,-1957.2,-1939.14,1857.48,137.9685,-6.5393,0.8281,985.0046,55.85583,37.485256,173.7381,NaN,,0.8018,6.0,289.8415,27 / 29,,2610,2021-05-20 21:42:49:929
-1.168406,0.442941,6.124555,-0.159571,1.056506,9.748267,0.077374,-0.274344,0.247077,-1957.2,-1939.14,1857.48,137.9685,-6.5393,0.8281,985.0046,55.85583,37.485256,173.7381,NaN,,0.8018,6.0,289.8415,27 / 29,,2620,2021-05-20 21:42:49:939
-0.797293,0.450124,6.000053,-0.120151,1.057794,9.748693,0.076152,-0.425228,0.330154,-1956.84,-1938.48,1857.66,137.9685,-6.5393,0.8281,985.0046,55.85583,37.485256,173.7381,NaN,,0.8018,6.0,289.8415,27 / 29,,2631,2021-05-20 21:42:49:950
-0.797293,0.450124,6.000053,-0.120151,1.057794,9.748693,-0.005093,-0.53274,0.402847,-1956.84,-1938.48,1857.66,137.9685,-6.5393,0.8281,985.0046,55.85583,37.485256,173.7381,NaN,,0.8018,6.0,289.8415,27 / 29,,2641,2021-05-20 21:42:49:960
0.03352,0.790111,7.178036,-0.022167,1.065144,9.748609,-0.013645,-0.571225,0.418119,-1956.9,-1938.72,1857.9,137.771,-6.1923,0.7061,985.0046,55.85583,37.485256,173.7381,NaN,,0.8018,6.0,289.8415,27 / 29,,2651,2021-05-20 21:42:49:970
0.373507,1.168406,8.27222,-0.022167,1.065144,9.748609,0.121967,-0.665909,0.343593,-1956.9,-1938.72,1857.9,137.771,-6.1923,0.7061,985.0046,55.85583,37.485256,173.7381,NaN,,0.8018,6.0,289.8415,27 / 29,,2661,2021-05-20 21:42:49:980
0.215485,1.259389,8.813326,0.100707,1.067355,9.747871,0.433508,-0.823512,0.24952,-1957.5,-1938.96,1858.0198,137.771,-6.1923,0.7061,985.0046,55.85583,37.485256,173.7381,NaN,,0.8018,6.0,289.8415,27 / 29,,2670,2021-05-20 21:42:49:989
0.215485,1.259389,8.813326,0.100707,1.067355,9.747871,0.712674,-1.008604,0.193931,-1957.5,-1938.96,1858.0198,137.771,-6.1923,0.7061,985.0005,55.85583,37.485256,173.7381,NaN,,0.8018,6.0,289.8415,27 / 29,,2680,2021-05-20 21:42:49:999
0.059857,1.32164,8.605023,0.263493,1.144151,9.736112,0.960074,-1.170484,0.192099,-1957.8,-1938.54,1857.96,137.0985,-6.2484,-0.5919,985.0005,55.85583,37.485256,173.7381,NaN,,0.8018,6.0,289.8415,27 / 29,,2691,2021-05-20 21:42:50:010
-0.256187,1.446142,8.265037,0.263493,1.144151,9.736112,0.960074,-1.170484,0.192099,-1957.8,-1938.54,1857.96,137.0985,-6.2484,-0.5919,985.0005,55.85583,37.485256,173.7381,NaN,,0.8018,6.0,289.8415,27 / 29,,2700,2021-05-20 21:42:50:019
-0.600963,1.537124,7.817308,0.485704,1.316224,9.705772,0.977179,-1.145438,0.266014,-1957.92,-1939.5,1857.66,137.0985,-6.2484,-0.5919,985.0005,55.85583,37.485256,173.7381,NaN,,0.8018,6.0,289.8415,27 / 29,,2710,2021-05-20 21:42:50:029
-0.600963,1.537124,7.817308,0.485704,1.316224,9.705772,0.822019,-0.996387,0.400404,-1957.92,-1939.5,1857.66,137.0985,-6.2484,-0.5919,985.0005,55.85583,37.485256,173.7381,NaN,,0.8018,6.0,289.8415,27 / 29,,2721,2021-05-20 21:42:50:040
-0.237033,1.810072,7.97533,0.693358,1.478322,9.669758,0.473215,-0.678126,0.604433,-1958.7,-1940.76,1857.6,136.4964,-7.7134,-2.8649,985.0005,55.85583,37.485256,173.7381,NaN,,0.8018,6.0,289.8415,27 / 29,,2730,2021-05-20 21:42:50:049
0.766168,2.497229,8.81572,0.693358,1.478322,9.669758,0.037057,-0.212036,0.733936,-1958.7,-1940.76,1857.6,136.4964,-7.7134,-2.8649,985.0005,55.85583,37.485256,173.7381,NaN,,0.8018,6.0,289.8415,27 / 29,,2740,2021-05-20 21:42:50:059
0.766168,2.497229,8.81572,0.81113,1.528682,9.65275,-0.25738,0.180139,0.676515,-1959.48,-1941.78,1857.3,136.4964,-7.7134,-2.8649,985.0005,55.85583,37.485256,173.7381,NaN,,0.8018,6.0,289.8415,27 / 29,,2750,2021-05-20 21:42:50:069
1.347977,2.885101,9.44302,0.81113,1.528682,9.65275,-0.42659,0.412879,0.5745,-1959.48,-1941.78,1857.3,136.4964,-7.7134,-2.8649,985.0005,55.85583,37.485256,173.7381,NaN,,0.8018,6.0,289.8415,27 / 29,,2761,2021-05-20 21:42:50:080
1.369525,2.751022,9.730332,0.797542,1.471706,9.662732,-0.42659,0.412879,0.5745,-1960.5,-1942.08,1857.18,135.9685,-8.968,-4.8033,985.0005,55.85583,37.485256,173.7381,NaN,,0.8018,6.0,289.8415,27 / 29,,2770,2021-05-20 21:42:50:089
0.900247,2.600183,10.0368,0.797542,1.471706,9.662732,-0.537156,0.44892,0.416286,-1960.5,-1942.08,1857.18,135.9685,-8.968,-4.8033,984.9941,55.85583,37.485256,173.7381,NaN,,0.8018,6.0,289.8415,27 / 29,,2780,2021-05-20 21:42:50:099
0.270553,2.382304,10.537204,0.722763,1.366144,9.684093,-0.537767,0.302923,0.331376,-1961.58,-1940.94,1857.3,135.9685,-8.968,-4.8033,984.9941,55.85583,37.485256,173.7381,NaN,,0.8018,6.0,289.8415,27 / 29,,2790,2021-05-20 21:42:50:109
0.270553,2.382304,10.537204,0.702995,1.313541,9.692822,-0.495007,0.075681,0.296557,-1961.28,-1940.5198,1857.12,135.9685,-8.968,-4.8033,984.9941,55.85583,37.485256,173.7381,NaN,,0.8018,6.0,289.8415,27 / 29,,2800,2021-05-20 21:42:50:119
0.196331,2.353572,11.296188,0.702995,1.313541,9.692822,-0.452246,-0.15828,0.291059,-1961.28,-1940.5198,1857.12,135.9685,-8.968,-4.8033,984.9941,55.85583,37.485256,173.7381,NaN,,0.8018,6.0,289.8415,27 / 29,,2811,2021-05-20 21:42:50:130
0.651243,2.406246,12.062357,0.722966,1.220944,9.703453,-0.449192,-0.252964,0.298389,-1960.98,-1940.5198,1857.18,135.8426,-7.6976,-4.1482,984.9941,55.85583,37.485256,173.7381,NaN,,0.8018,6.0,289.8415,27 / 29,,2821,2021-05-20 21:42:50:140
1.18756,2.604971,12.476566,0.722966,1.220944,9.703453,-0.473626,-0.27129,0.288005,-1960.98,-1940.5198,1857.18,135.8426,-7.6976,-4.1482,984.9941,55.85583,37.485256,173.7381,NaN,,0.8018,6.0,289.8415,27 / 29,,2830,2021-05-20 21:42:50:149
1.18756,2.604971,12.476566,0.778425,1.130044,9.710172,-0.510278,-0.260295,0.22142,-1961.04,-1940.7,1857.42,135.8426,-7.6976,-4.1482,984.9941,55.85583,37.485256,173.7381,NaN,,0.8018,6.0,289.8415,27 / 29,,2840,2021-05-20 21:42:50:159
1.759792,2.724685,13.082317,0.778425,1.130044,9.710172,-0.498672,-0.205928,0.132234,-1961.04,-1940.7,1857.42,135.8426,-7.6976,-4.1482,984.9941,55.85583,37.485256,173.7381,NaN,,0.8018,6.0,289.8415,27 / 29,,2850,2021-05-20 21:42:50:169
1.8819,2.966507,14.001719,0.832804,1.031056,9.716674,-0.403988,-0.102691,0.035717,-1961.64,-1940.7,1857.06,135.2601,-6.617,-4.5834,984.9941,55.85583,37.485256,173.7381,NaN,,0.8018,6.0,289.8415,27 / 29,,2861,2021-05-20 21:42:50:180
1.810072,3.249031,13.795812,0.832804,1.031056,9.716674,-0.403988,-0.102691,0.035717,-1961.64,-1940.7,1857.06,135.2601,-6.617,-4.5834,984.9941,55.85583,37.485256,173.7381,NaN,,0.8018,6.0,289.8415,27 / 29,,2871,2021-05-20 21:42:50:190
2.264984,3.0527,12.677685,0.855652,0.951626,9.722791,-0.443083,0.057355,-0.146931,-1961.82,-1940.22,1856.34,135.2601,-6.617,-4.5834,984.9915,55.85583,37.485256,173.7381,NaN,,0.8018,6.0,289.8415,27 / 29,,2881,2021-05-20 21:42:50:200
2.264984,3.0527,12.677685,0.855652,0.951626,9.722791,-0.443083,0.057355,-0.146931,-1961.82,-1940.22,1856.34,135.2601,-6.617,-4.5834,984.9915,55.85583,37.485256,173.7381,NaN,,0.8018,6.0,289.8415,27 / 29,,2890,2021-05-20 21:42:50:209
2.865947,1.987248,11.76786,0.845689,0.873934,9.730952,-0.739353,0.048192,-0.323471,-1962.0,-1939.2,1856.4,134.6654,-5.5687,-5.0293,984.9915,55.85583,37.485256,173.7381,NaN,,0.8018,6.0,289.8415,27 / 29,,2900,2021-05-20 21:42:50:219
2.968901,0.179571,13.230762,0.845689,0.873934,9.730952,-1.113202,0.049414,-0.485962,-1962.0,-1939.2,1856.4,134.6654,-5.5687,-5.0293,984.9915,55.85583,37.485256,173.7381,NaN,,0.8018,6.0,289.8415,27 / 29,,2910,2021-05-20 21:42:50:229
2.837216,-1.228263,16.077555,0.831183,0.698532,9.746362,-1.269584,0.177085,-0.577591,-1962.18,-1938.9,1856.46,134.6654,-5.5687,-5.0293,984.9915,55.85583,37.485256,173.7381,NaN,,0.8018,6.0,289.8415,27 / 29,,2921,2021-05-20 21:42:50:240
2.14527,-2.008796,17.63144,0.810984,0.580197,9.755822,-1.055781,0.430594,-0.628904,-1961.94,-1938.96,1856.04,134.6654,-5.5687,-5.0293,984.9915,55.85583,37.485256,173.7381,NaN,,0.8018,6.0,289.8415,27 / 29,,2930,2021-05-20 21:42:50:249
2.14527,-2.008796,17.63144,0.810984,0.580197,9.755822,-0.149868,0.575369,-0.580035,-1961.94,-1938.96,1856.04,134.6654,-5.5687,-5.0293,984.9915,55.85583,37.485256,173.7381,NaN,,0.8018,6.0,289.8415,27 / 29,,2940,2021-05-20 21:42:50:259
1.419805,-2.056682,16.872454,0.707961,0.432904,9.771477,0.483599,0.382336,-0.529333,-1962.06,-1938.12,1855.92,133.9686,-3.3918,-4.752,984.9915,55.85583,37.485256,173.7381,NaN,,0.8018,6.0,289.8415,27 / 29,,2950,2021-05-20 21:42:50:269
1.1708,-0.952921,12.835708,0.707961,0.432904,9.771477,0.931364,0.017038,-0.533609,-1962.06,-1938.12,1855.92,133.9686,-3.3918,-4.752,984.9915,55.85583,37.485256,173.7381,NaN,,0.8018,6.0,289.8415,27 / 29,,2960,2021-05-20 21:42:50:279
1.699935,0.102954,9.555551,0.62596,0.515889,9.773046,1.123786,-0.339096,-0.625239,-1962.06,-1936.92,1855.98,133.9686,-3.3918,-4.752,984.9915,55.85583,37.485256,173.7381,NaN,,0.8018,6.0,289.8415,27 / 29,,2971,2021-05-20 21:42:50:290
1.699935,0.102954,9.555551,0.636398,0.620099,9.766313,1.065143,-0.502197,-0.729697,-1962.0,-1936.74,1856.1,133.9686,-3.3918,-4.752,985.001,55.85583,37.485256,173.7381,NaN,,0.8018,6.0,289.8415,27 / 29,,2981,2021-05-20 21:42:50:300
2.015979,0.316044,8.023216,0.636398,0.620099,9.766313,0.737109,-0.465545,-0.828657,-1962.0,-1936.74,1856.1,133.9686,-3.3918,-4.752,985.001,55.85583,37.485256,173.7381,NaN,,0.8018,6.0,289.8415,27 / 29,,2991,2021-05-20 21:42:50:310
1.843592,0.045491,7.774211,0.720061,0.829905,9.744905,0.32172,-0.137511,-0.847594,-1961.34,-1936.98,1855.62,134.5082,-3.6254,-3.7283,985.001,55.85583,37.485256,173.7381,NaN,,0.8018,6.0,289.8415,27 / 29,,3001,2021-05-20 21:42:50:320
1.285726,-0.498009,7.889136,0.720061,0.829905,9.744905,-0.110162,0.374394,-0.792616,-1961.34,-1936.98,1855.62,134.5082,-3.6254,-3.7283,985.001,55.85583,37.485256,173.7381,NaN,,0.8018,6.0,289.8415,27 / 29,,3010,2021-05-20 21:42:50:329
0.478855,-0.933767,7.642525,0.730727,0.903936,9.737522,-0.365503,0.723199,-0.670443,-1961.34,-1937.34,1855.2,134.5082,-3.6254,-3.7283,985.001,55.85583,37.485256,173.7381,NaN,,0.8018,6.0,289.8415,27 / 29,,3020,2021-05-20 21:42:50:339
0.478855,-0.933767,7.642525,0.730727,0.903936,9.737522,-0.365503,0.723199,-0.670443,-1961.34,-1937.34,1855.2,134.5082,-3.6254,-3.7283,985.001,55.85583,37.485256,173.7381,NaN,,0.8018,6.0,289.8415,27 / 29,,3030,2021-05-20 21:42:50:349
0.086194,-1.201926,6.859597,0.594656,0.851162,9.751528,-0.42659,0.8301,-0.551324,-1961.58,-1937.5198,1856.28,134.8826,-5.2888,-4.2916,985.001,55.85583,37.485256,173.7381,NaN,,0.8018,6.0,289.8415,27 / 29,,3040,2021-05-20 21:42:50:359
0.169994,-1.482056,5.997659,0.594656,0.851162,9.751528,-0.477902,0.734194,-0.419377,-1961.58,-1937.5198,1856.28,134.8826,-5.2888,-4.2916,985.001,55.85583,37.485256,173.7381,NaN,,0.8018,6.0,289.8415,27 / 29,,3050,2021-05-20 21:42:50:369
0.986441,-1.300091,6.711152,0.438651,0.763573,9.767033,-0.590302,0.465413,-0.328969,-1960.56,-1937.46,1856.7,134.8826,-5.2888,-4.2916,985.001,55.85583,37.485256,173.7381,NaN,,0.8018,6.0,289.8415,27 / 29,,3061,2021-05-20 21:42:50:380
0.986441,-1.300091,6.711152,0.438651,0.763573,9.767033,-0.609849,0.277267,-0.335078,-1960.56,-1937.46,1856.7,134.8826,-5.2888,-4.2916,985.001,55.85583,37.485256,173.7381,NaN,,0.8018,6.0,289.8415,27 / 29,,3070,2021-05-20 21:42:50:389
1.482056,-0.955316,8.480521,0.362966,0.645833,9.778627,-0.435753,0.175252,-0.415712,-1960.5,-1937.04,1856.04,135.3812,-4.4657,-2.5715,984.9983,55.85583,37.485256,173.7381,NaN,,0.8018,6.0,289.8415,27 / 29,,3080,2021-05-20 21:42:50:399
1.151646,-0.679974,8.877971,0.362966,0.645833,9.778627,-0.160863,0.099505,-0.493903,-1960.5,-1937.04,1856.04,135.3812,-4.4657,-2.5715,984.9983,55.85583,37.485256,173.7381,NaN,,0.8018,6.0,289.8415,27 / 29,,3090,2021-05-20 21:42:50:409
0.519558,-0.433364,8.277008,0.332432,0.58757,9.783385,0.065768,0.076903,-0.530555,-1960.44,-1936.86,1855.44,135.3812,-4.4657,-2.5715,984.9983,55.85583,37.485256,173.7381,NaN,,0.8018,6.0,289.8415,27 / 29,,3100,2021-05-20 21:42:50:419
0.519558,-0.433364,8.277008,0.332432,0.58757,9.783385,0.380363,0.03231,-0.539107,-1960.44,-1936.86,1855.44,135.3812,-4.4657,-2.5715,984.9983,55.85583,37.485256,173.7381,NaN,,0.8018,6.0,289.8415,27 / 29,,3111,2021-05-20 21:42:50:430
-0.148445,-0.01676,6.483696,0.316894,0.63916,9.780667,0.503758,-0.053822,-0.508564,-1960.08,-1936.68,1856.16,135.2648,-3.435,-1.9461,984.9983,55.85583,37.485256,173.7381,NaN,,0.8018,6.0,289.8415,27 / 29,,3120,2021-05-20 21:42:50:439
-0.454912,0.430969,5.497255,0.316894,0.63916,9.780667,0.51964,-0.133235,-0.455418,-1960.08,-1936.68,1856.16,135.2648,-3.435,-1.9461,984.9983,55.85583,37.485256,173.7381,NaN,,0.8018,6.0,289.8415,27 / 29,,3130,2021-05-20 21:42:50:449
-0.548289,0.749408,5.039949,0.329494,0.739695,9.773161,0.465273,-0.154004,-0.369286,-1959.3,-1936.38,1856.76,135.2648,-3.435,-1.9461,984.9983,55.85583,37.485256,173.7381,NaN,,0.8018,6.0,289.8415,27 / 29,,3140,2021-05-20 21:42:50:459
-0.426181,1.060664,4.764607,0.329494,0.739695,9.773161,0.344933,-0.125904,-0.286209,-1959.3,-1936.38,1856.76,135.2648,-3.435,-1.9461,984.9983,55.85583,37.485256,173.7381,NaN,,0.8018,6.0,289.8415,27 / 29,,3150,2021-05-20 21:42:50:469
-0.272947,1.290514,5.384724,0.351275,0.816781,9.766261,0.065157,-0.05932,-0.161592,-1958.94,-1936.38,1856.52,135.6315,-4.3258,-1.9309,984.9983,55.85583,37.485256,173.7381,NaN,,0.8018,6.0,289.8415,27 / 29,,3160,2021-05-20 21:42:50:479
-0.272947,1.290514,5.384724,0.351275,0.816781,9.766261,-0.142537,0.044527,-0.055912,-1958.94,-1936.38,1856.52,135.6315,-4.3258,-1.9309,984.9983,55.85583,37.485256,173.7381,NaN,,0.8018,6.0,289.8415,27 / 29,,3170,2021-05-20 21:42:50:489
-0.119714,1.379102,6.304126,0.35056,0.809145,9.766923,-0.327019,0.175252,0.074813,-1959.78,-1936.56,1856.34,135.6315,-4.3258,-1.9309,984.9934,55.85583,37.485256,173.7381,NaN,,0.8018,6.0,289.8415,27 / 29,,3180,2021-05-20 21:42:50:499
0.184359,1.431776,6.996071,0.35056,0.809145,9.766923,-0.446748,0.203963,0.165221,-1959.78,-1936.56,1856.34,135.6315,-4.3258,-1.9309,984.9934,55.85583,37.485256,173.7381,NaN,,0.8018,6.0,289.8415,27 / 29,,3191,2021-05-20 21:42:50:510
0.529135,1.671204,7.977724,0.31591,0.739942,9.773591,-0.491342,0.145931,0.219588,-1959.84,-1937.16,1855.86,135.7306,-4.7328,-2.0556,984.9934,55.85583,37.485256,173.7381,NaN,,0.8018,6.0,289.8415,27 / 29,,3200,2021-05-20 21:42:50:519
0.529135,1.671204,7.977724,0.31591,0.739942,9.773591,-0.444305,0.029866,0.207981,-1959.84,-1937.16,1855.86,135.7306,-4.7328,-2.0556,984.9934,55.85583,37.485256,173.7381,NaN,,0.8018,6.0,289.8415,27 / 29,,3210,2021-05-20 21:42:50:529
1.233052,2.073442,9.115005,0.292957,0.645369,9.781005,-0.312969,-0.033664,0.107799,-1959.84,-1937.5198,1856.52,135.7306,-4.7328,-2.0556,984.9934,55.85583,37.485256,173.7381,NaN,,0.8018,6.0,289.8415,27 / 29,,3220,2021-05-20 21:42:50:539
1.647261,2.286533,10.170879,0.292957,0.645369,9.781005,-0.312969,-0.033664,0.107799,-1959.84,-1937.5198,1856.52,135.7306,-4.7328,-2.0556,984.9934,55.85583,37.485256,173.7381,NaN,,0.8018,6.0,289.8415,27 / 29,,3230,2021-05-20 21:42:50:549
1.599376,2.29611,10.568329,0.298738,0.578539,9.78501,-0.183465,-0.030609,0.021057,-1960.08,-1937.4,1856.7,135.5126,-3.7733,-1.7156,984.9934,55.85583,37.485256,173.7381,NaN,,0.8018,6.0,289.8415,27 / 29,,3241,2021-05-20 21:42:50:560
1.240234,2.437372,10.836488,0.298738,0.578539,9.78501,-0.08084,-0.009229,-0.065686,-1960.08,-1937.4,1856.7,135.5126,-3.7733,-1.7156,984.9934,55.85583,37.485256,173.7381,NaN,,0.8018,6.0,289.8415,27 / 29,,3251,2021-05-20 21:42:50:570
1.240234,2.437372,10.836488,0.303291,0.55836,9.786043,-0.049686,0.037808,-0.106614,-1959.84,-1936.92,1855.5,135.5126,-3.7733,-1.7156,984.9934,55.85583,37.485256,173.7381,NaN,,0.8018,6.0,289.8415,27 / 29,,3261,2021-05-20 21:42:50:580
0.826025,2.44216,10.992116,0.303291,0.55836,9.786043,-0.03869,0.089731,-0.109058,-1959.84,-1936.92,1855.5,135.5126,-3.7733,-1.7156,984.9934,55.85583,37.485256,173.7381,NaN,,0.8018,6.0,289.8415,27 / 29,,3270,2021-05-20 21:42:50:589
0.105348,2.253013,11.099858,0.290868,0.553057,9.786721,-0.044188,0.119053,-0.038197,-1959.42,-1936.14,1855.56,135.2755,-3.264,-1.7752,984.9932,55.85583,37.485256,173.7381,NaN,,0.8018,6.0,289.8415,27 / 29,,3280,2021-05-20 21:42:50:599
0.105348,2.253013,11.099858,0.290868,0.553057,9.786721,-0.068623,0.115388,0.057098,-1959.42,-1936.14,1855.56,135.2755,-3.264,-1.7752,984.9932,55.85583,37.485256,173.7381,NaN,,0.8018,6.0,289.8415,27 / 29,,3290,2021-05-20 21:42:50:609
-0.102954,2.348784,11.353651,0.267896,0.545994,9.787774,-0.090614,0.070184,0.092528,-1958.82,-1935.9,1856.4,135.2755,-3.264,-1.7752,984.9932,55.85583,37.485256,173.7381,NaN,,0.8018,6.0,289.8415,27 / 29,,3300,2021-05-20 21:42:50:619
0.201119,2.243436,12.028836,0.267896,0.545994,9.787774,-0.070455,-0.025722,0.088863,-1958.82,-1935.9,1856.4,135.2755,-3.264,-1.7752,984.9932,55.85583,37.485256,173.7381,NaN,,0.8018,6.0,289.8415,27 / 29,,3310,2021-05-20 21:42:50:629
0.268159,1.994431,12.986547,0.256281,0.531882,9.788862,-0.070455,-0.025722,0.088863,-1958.82,-1936.2,1856.04,135.3439,-3.1916,-1.5678,984.9932,55.85583,37.485256,173.7381,NaN,,0.8018,6.0,289.8415,27 / 29,,3320,2021-05-20 21:42:50:639
0.452518,1.733455,13.530047,0.256281,0.531882,9.788862,0.177556,-0.217534,0.077256,-1958.82,-1936.2,1856.04,135.3439,-3.1916,-1.5678,984.9932,55.85583,37.485256,173.7381,NaN,,0.8018,6.0,289.8415,27 / 29,,3331,2021-05-20 21:42:50:650
0.452518,1.733455,13.530047,0.282876,0.539044,9.787738,0.177556,-0.217534,0.077256,-1958.76,-1936.14,1855.74,135.3439,-3.1916,-1.5678,984.9932,55.85583,37.485256,173.7381,NaN,,0.8018,6.0,289.8415,27 / 29,,3340,2021-05-20 21:42:50:659
0.385478,1.927391,13.530047,0.304948,0.560373,9.785876,0.261244,-0.179049,0.071758,-1958.88,-1936.38,1856.1,135.3439,-3.1916,-1.5678,984.9932,55.85583,37.485256,173.7381,NaN,,0.8018,6.0,289.8415,27 / 29,,3350,2021-05-20 21:42:50:669
0.232245,2.056682,12.59628,0.304948,0.560373,9.785876,0.136628,-0.066039,0.071147,-1958.88,-1936.38,1856.1,135.3439,-3.1916,-1.5678,984.9932,55.85583,37.485256,173.7381,NaN,,0.8018,6.0,289.8415,27 / 29,,3361,2021-05-20 21:42:50:680
0.232245,2.056682,12.59628,0.33232,0.606704,9.782221,-0.156587,-0.019614,0.06565,-1959.3,-1936.38,1855.68,135.2757,-3.2758,-1.7849,984.9932,55.85583,37.485256,173.7381,NaN,,0.8018,6.0,289.8415,27 / 29,,3370,2021-05-20 21:42:50:689
0.689551,1.20432,11.815746,0.33232,0.606704,9.782221,-0.490731,-0.047713,0.018002,-1959.3,-1936.38,1855.68,135.2757,-3.2758,-1.7849,984.9922,55.85583,37.485256,173.7381,NaN,,0.8018,6.0,289.8415,27 / 29,,3380,2021-05-20 21:42:50:699
0.902642,-0.052674,13.316957,0.339121,0.571659,9.784099,-0.731412,0.036586,-0.038197,-1959.72,-1936.5,1855.68,135.2757,-3.2758,-1.7849,984.9922,55.85583,37.485256,173.7381,NaN,,0.8018,6.0,289.8415,27 / 29,,3390,2021-05-20 21:42:50:709
0.835602,-1.297697,14.810984,0.339121,0.571659,9.784099,-0.725303,0.210072,-0.04736,-1959.72,-1936.5,1855.68,135.2757,-3.2758,-1.7849,984.9922,55.85583,37.485256,173.7381,NaN,,0.8018,6.0,289.8415,27 / 29,,3400,2021-05-20 21:42:50:719
0.34717,-1.934574,15.297022,0.332097,0.436309,9.791309,-0.524939,0.334688,-0.04003,-1960.0198,-1936.32,1856.22,135.1942,-3.3418,-1.9851,984.9922,55.85583,37.485256,173.7381,NaN,,0.8018,6.0,289.8415,27 / 29,,3411,2021-05-20 21:42:50:730
0.34717,-1.934574,15.297022,0.306083,0.37087,9.794854,-0.524939,0.334688,-0.04003,-1959.9,-1936.2,1856.22,135.1942,-3.3418,-1.9851,984.9922,55.85583,37.485256,173.7381,NaN,,0.8018,6.0,289.8415,27 / 29,,3420,2021-05-20 21:42:50:739
-0.584203,-2.288926,14.497334,0.306083,0.37087,9.794854,-0.029527,0.368897,0.028387,-1959.9,-1936.2,1856.22,135.1942,-3.3418,-1.9851,984.9922,55.85583,37.485256,173.7381,NaN,,0.8018,6.0,289.8415,27 / 29,,3430,2021-05-20 21:42:50:749
-0.919401,-1.845986,11.473365,0.235301,0.333874,9.798141,0.429232,0.209461,0.097415,-1959.84,-1936.44,1856.46,135.1942,-3.3418,-1.9851,984.9922,55.85583,37.485256,173.7381,NaN,,0.8018,6.0,289.8415,27 / 29,,3440,2021-05-20 21:42:50:759
-0.835602,-1.134886,9.088667,0.235301,0.333874,9.798141,0.78781,-0.114298,0.124293,-1959.84,-1936.44,1856.46,135.1942,-3.3418,-1.9851,984.9922,55.85583,37.485256,173.7381,NaN,,0.8018,6.0,289.8415,27 / 29,,3450,2021-05-20 21:42:50:769
-0.835602,-1.134886,9.088667,0.229648,0.456004,9.79335,0.804304,-0.389187,0.102302,-1959.54,-1936.0198,1856.22,134.8919,-1.9511,-1.3757,984.9922,55.85583,37.485256,173.7381,NaN,,0.8018,6.0,289.8415,27 / 29,,3461,2021-05-20 21:42:50:780
-0.495615,-0.454912,7.374367,0.229648,0.456004,9.79335,0.569731,-0.452106,0.062595,-1959.54,-1936.0198,1856.22,134.8919,-1.9511,-1.3757,984.9922,55.85583,37.485256,173.7381,NaN,,0.8018,6.0,289.8415,27 / 29,,3470,2021-05-20 21:42:50:789
-0.375901,-0.368718,7.249864,0.310289,0.589684,9.783986,0.092646,-0.357422,0.002731,-1958.88,-1935.96,1856.34,134.8919,-1.9511,-1.3757,985.002,55.85583,37.485256,173.7381,NaN,,0.8018,6.0,289.8415,27 / 29,,3480,2021-05-20 21:42:50:799
-0.725465,-0.802082,8.755863,0.310289,0.589684,9.783986,-0.355119,-0.147284,0.003341,-1958.88,-1935.96,1856.34,134.8919,-1.9511,-1.3757,985.002,55.85583,37.485256,173.7381,NaN,,0.8018,6.0,289.8415,27 / 29,,3491,2021-05-20 21:42:50:810
-1.075029,-1.106155,10.486923,0.364937,0.575641,9.782936,-0.513333,-0.022668,0.03083,-1959.3,-1936.98,1856.22,135.3454,-3.4473,-1.8165,985.002,55.85583,37.485256,173.7381,NaN,,0.8018,6.0,289.8415,27 / 29,,3500,2021-05-20 21:42:50:819
-1.075029,-1.106155,10.486923,0.364937,0.575641,9.782936,-0.515165,0.126994,0.118795,-1959.3,-1936.98,1856.22,135.3454,-3.4473,-1.8165,985.002,55.85583,37.485256,173.7381,NaN,,0.8018,6.0,289.8415,27 / 29,,3510,2021-05-20 21:42:50:829
-0.967287,-1.182772,11.013664,0.355794,0.470616,9.788888,-0.38444,0.161813,0.18599,-1959.66,-1937.22,1856.04,135.3454,-3.4473,-1.8165,985.002,55.85583,37.485256,173.7381,NaN,,0.8018,6.0,289.8415,27 / 29,,3521,2021-05-20 21:42:50:840
-0.299284,-1.029538,10.594666,0.355794,0.470616,9.788888,-0.196294,0.105614,0.22814,-1959.66,-1937.22,1856.04,135.3454,-3.4473,-1.8165,985.002,55.855835,37.485233,174.1111,NaN,,1.113,6.0,266.8247,26 / 29,,3530,2021-05-20 21:42:50:849
0.445335,-0.361535,9.672871,0.328114,0.400846,9.792959,0.005292,0.045749,0.227529,-1959.06,-1936.98,1856.16,134.9326,-2.7507,-2.0816,985.002,55.855835,37.485233,174.1111,NaN,,1.113,6.0,266.8247,26 / 29,,3540,2021-05-20 21:42:50:859
0.852362,-0.01676,8.341654,0.328114,0.400846,9.792959,0.13785,-0.001288,0.195764,-1959.06,-1936.98,1856.16,134.9326,-2.7507,-2.0816,985.002,55.855835,37.485233,174.1111,NaN,,1.113,6.0,266.8247,26 / 29,,3550,2021-05-20 21:42:50:869
1.05827,0.138868,7.053534,0.3236,0.408753,9.792783,0.179389,0.026201,0.168275,-1959.18,-1936.86,1855.92,134.9326,-2.7507,-2.0816,985.002,55.855835,37.485233,174.1111,NaN,,1.113,6.0,266.8247,26 / 29,,3561,2021-05-20 21:42:50:880
1.05827,0.138868,7.053534,0.3236,0.408753,9.792783,0.049885,0.15937,0.145062,-1959.18,-1936.86,1855.92,134.9326,-2.7507,-2.0816,985.002,55.855835,37.485233,174.1111,NaN,,1.113,6.0,266.8247,26 / 29,,3570,2021-05-20 21:42:50:889
0.826025,0.093377,6.45736,0.31059,0.432767,9.792172,-0.113216,0.351792,0.155447,-1959.72,-1936.0198,1855.38,134.8393,-2.3888,-1.8926,985.0078,55.855835,37.485233,174.1111,NaN,,1.113,6.0,266.8247,26 / 29,,3580,2021-05-20 21:42:50:899
0.478855,-0.426181,6.02639,0.31059,0.432767,9.792172,-0.261045,0.49107,0.206149,-1959.72,-1936.0198,1855.38,134.8393,-2.3888,-1.8926,985.0078,55.855835,37.485233,174.1111,NaN,,1.113,6.0,266.8247,26 / 29,,3591,2021-05-20 21:42:50:910
0.328016,-0.629694,6.751855,0.236461,0.400668,9.795608,-0.34901,0.458694,0.260516,-1959.78,-1935.6,1855.98,134.8393,-2.3888,-1.8926,985.0078,55.855835,37.485233,174.1111,NaN,,1.113,6.0,266.8247,26 / 29,,3600,2021-05-20 21:42:50:919
0.328016,-0.629694,6.751855,0.236461,0.400668,9.795608,-0.284258,0.375005,0.306331,-1959.78,-1935.6,1855.98,134.8393,-2.3888,-1.8926,985.0078,55.855835,37.485233,174.1111,NaN,,1.113,6.0,266.8247,26 / 29,,3610,2021-05-20 21:42:50:929
0.256187,-0.569837,8.312923,0.154407,0.335042,9.799709,-0.04541,0.294371,0.337485,-1959.84,-1936.62,1856.88,135.0722,-2.3416,-1.3828,985.0078,55.855835,37.485233,174.1111,NaN,,1.113,6.0,266.8247,26 / 29,,3620,2021-05-20 21:42:50:939
0.241822,-0.600963,8.45179,0.154407,0.335042,9.799709,0.27224,0.132492,0.344204,-1959.84,-1936.62,1856.88,135.0722,-2.3416,-1.3828,985.0078,55.855835,37.485233,174.1111,NaN,,1.113,6.0,266.8247,26 / 29,,3631,2021-05-20 21:42:50:950
-0.047885,-0.462095,7.865193,0.11118,0.347311,9.799868,0.597831,-0.107578,0.364363,-1959.0,-1936.8,1856.76,135.0722,-2.3416,-1.3828,985.0078,55.855835,37.485233,174.1111,NaN,,1.113,6.0,266.8247,26 / 29,,3641,2021-05-20 21:42:50:960
0.332804,0.03352,7.058322,0.11118,0.347311,9.799868,0.724891,-0.280453,0.358865,-1959.0,-1936.8,1856.76,135.0722,-2.3416,-1.3828,985.0078,55.855835,37.485233,174.1111,NaN,,1.113,6.0,266.8247,26 / 29,,3650,2021-05-20 21:42:50:969
0.332804,0.03352,7.058322,0.13969,0.462848,9.794725,0.744439,-0.409346,0.26357,-1958.34,-1936.32,1856.52,135.2999,-2.0296,-0.65,985.0078,55.855835,37.485233,174.1111,NaN,,1.113,6.0,266.8247,26 / 29,,3660,2021-05-20 21:42:50:979
0.747014,0.804476,6.929032,0.13969,0.462848,9.794725,0.7029,-0.417898,0.166442,-1958.34,-1936.32,1856.52,135.2999,-2.0296,-0.65,985.0078,55.855835,37.485233,174.1111,NaN,,1.113,6.0,266.8247,26 / 29,,3670,2021-05-20 21:42:50:989
0.600963,1.182772,7.125362,0.220365,0.605322,9.785469,0.605772,-0.304277,0.096804,-1958.82,-1937.1,1856.7,135.2999,-2.0296,-0.65,984.9963,55.855835,37.485233,174.1111,NaN,,1.113,6.0,266.8247,26 / 29,,3681,2021-05-20 21:42:51:000
-0.162811,1.35516,7.053534,0.220365,0.605322,9.785469,0.605772,-0.304277,0.096804,-1958.82,-1937.1,1856.7,135.2999,-2.0296,-0.65,984.9963,55.855835,37.485233,174.1111,NaN,,1.113,6.0,266.8247,26 / 29,,3690,2021-05-20 21:42:51:009
-0.668003,1.3384,6.828472,0.281748,0.721785,9.775992,0.393802,-0.09475,0.09436,-1958.5198,-1938.0,1856.82,135.6494,-3.5389,-1.2901,984.9963,55.855835,37.485233,174.1111,NaN,,1.113,6.0,266.8247,26 / 29,,3700,2021-05-20 21:42:51:019
-0.668003,1.3384,6.828472,0.281748,0.721785,9.775992,0.158619,0.050636,0.140786,-1958.5198,-1938.0,1856.82,135.6494,-3.5389,-1.2901,984.9963,55.855835,37.485233,174.1111,NaN,,1.113,6.0,266.8247,26 / 29,,3710,2021-05-20 21:42:51:029
-1.149252,1.280937,7.369578,0.281128,0.762974,9.772882,-0.061292,0.137379,0.220809,-1959.18,-1938.36,1856.94,135.6494,-3.5389,-1.2901,984.9963,55.855835,37.485233,174.1111,NaN,,1.113,6.0,266.8247,26 / 29,,3720,2021-05-20 21:42:51:039
-1.067846,1.144463,8.028004,0.281128,0.762974,9.772882,-0.223783,0.188691,0.328933,-1959.18,-1938.36,1856.94,135.6494,-3.5389,-1.2901,984.9963,55.855835,37.485233,174.1111,NaN,,1.113,6.0,266.8247,26 / 29,,3730,2021-05-20 21:42:51:049
-0.782928,1.139675,9.124581,0.25073,0.730118,9.776218,-0.294643,0.113555,0.385743,-1959.84,-1938.66,1856.88,135.8493,-4.4622,-1.6477,984.9963,55.855835,37.485233,174.1111,NaN,,1.113,6.0,266.8247,26 / 29,,3740,2021-05-20 21:42:51:059
-0.24661,1.264177,10.386364,0.25073,0.730118,9.776218,-0.275706,0.021314,0.422395,-1959.84,-1938.66,1856.88,135.8493,-4.4622,-1.6477,984.9963,55.855835,37.485233,174.1111,NaN,,1.113,6.0,266.8247,26 / 29,,3750,2021-05-20 21:42:51:069
0.328016,1.443748,11.518856,0.241711,0.673142,9.780534,-0.19385,-0.072759,0.416286,-1959.48,-1939.14,1856.82,135.8493,-4.4622,-1.6477,984.9963,55.855835,37.485233,174.1111,NaN,,1.113,6.0,266.8247,26 / 29,,3761,2021-05-20 21:42:51:080
0.328016,1.443748,11.518856,0.241711,0.673142,9.780534,-0.069234,-0.120406,0.352756,-1959.48,-1939.14,1856.82,135.8493,-4.4622,-1.6477,984.9963,55.855835,37.485233,174.1111,NaN,,1.113,6.0,266.8247,26 / 29,,3770,2021-05-20 21:42:51:089
0.931373,1.697541,11.978557,0.2645,0.646411,9.781747,0.040111,-0.151561,0.247077,-1959.6,-1938.66,1857.12,135.7507,-3.936,-1.4157,984.9944,55.855835,37.485233,174.1111,NaN,,1.113,6.0,266.8247,26 / 29,,3780,2021-05-20 21:42:51:099
1.118126,1.951334,12.328121,0.2645,0.646411,9.781747,0.109139,-0.138732,0.124904,-1959.6,-1938.66,1857.12,135.7507,-3.936,-1.4157,984.9944,55.855835,37.485233,174.1111,NaN,,1.113,6.0,266.8247,26 / 29,,3790,2021-05-20 21:42:51:109
1.012778,1.893871,12.229956,0.29514,0.659309,9.780009,0.136628,-0.097194,0.032052,-1958.76,-1938.42,1856.7,135.7507,-3.936,-1.4157,984.9944,55.855835,37.485233,174.1111,NaN,,1.113,6.0,266.8247,26 / 29,,3801,2021-05-20 21:42:51:120
1.012778,1.893871,12.229956,0.29514,0.659309,9.780009,0.063935,0.015817,-0.084623,-1958.76,-1938.42,1856.7,135.7507,-3.936,-1.4157,984.9944,55.855835,37.485233,174.1111,NaN,,1.113,6.0,266.8247,26 / 29,,3810,2021-05-20 21:42:51:129
0.814053,1.776552,12.177281,0.306129,0.683157,9.778035,-0.032582,0.070184,-0.162203,-1958.4,-1938.6,1856.34,135.5953,-3.8549,-1.7285,984.9944,55.855835,37.485233,174.1111,NaN,,1.113,6.0,266.8247,26 / 29,,3820,2021-05-20 21:42:51:139
0.689551,1.235446,12.328121,0.306129,0.683157,9.778035,-0.089392,0.028645,-0.208018,-1958.4,-1938.6,1856.34,135.5953,-3.8549,-1.7285,984.9944,55.855835,37.485233,174.1111,NaN,,1.113,6.0,266.8247,26 / 29,,3830,2021-05-20 21:42:51:149
0.689551,1.235446,12.328121,0.292497,0.679858,9.778683,-0.040523,-0.15095,-0.239783,-1959.72,-1938.9,1857.24,135.5953,-3.8549,-1.7285,984.9944,55.855835,37.485233,174.1111,NaN,,1.113,6.0,266.8247,26 / 29,,3840,2021-05-20 21:42:51:159
0.553077,0.811659,13.115837,0.294492,0.672259,9.779148,-0.040523,-0.15095,-0.239783,-1960.0198,-1938.84,1857.48,135.5953,-3.8549,-1.7285,984.9944,55.855835,37.485233,174.1111,NaN,,1.113,6.0,266.8247,26 / 29,,3850,2021-05-20 21:42:51:169
0.718282,1.316851,13.905948,0.294492,0.672259,9.779148,0.303394,-0.375137,-0.279489,-1960.0198,-1938.84,1857.48,135.5953,-3.8549,-1.7285,984.9944,55.855835,37.485233,174.1111,NaN,,1.113,6.0,266.8247,26 / 29,,3861,2021-05-20 21:42:51:180
0.718282,1.316851,13.905948,0.342279,0.689985,9.776357,0.303394,-0.375137,-0.279489,-1959.72,-1939.38,1856.7,135.5997,-3.9308,-1.7249,984.9944,55.855835,37.485233,174.1111,NaN,,1.113,6.0,266.8247,26 / 29,,3870,2021-05-20 21:42:51:189
1.48445,1.450931,12.696839,0.342279,0.689985,9.776357,0.329661,-0.371472,-0.415101,-1959.72,-1939.38,1856.7,135.5997,-3.9308,-1.7249,984.9944,55.855835,37.485233,174.1111,NaN,,1.113,6.0,266.8247,26 / 29,,3880,2021-05-20 21:42:51:199
1.472479,0.955316,12.127002,0.410903,0.758078,9.768667,0.164117,-0.312829,-0.523224,-1959.48,-1938.9,1856.58,135.5997,-3.9308,-1.7249,984.9944,55.855835,37.485233,174.1111,NaN,,1.113,6.0,266.8247,26 / 29,,3890,2021-05-20 21:42:51:209
1.252206,0.392661,12.572337,0.437711,0.776568,9.76605,-0.056405,-0.150339,-0.591641,-1959.9,-1938.42,1856.4,135.5997,-3.9308,-1.7249,984.9944,55.855835,37.485233,174.1111,NaN,,1.113,6.0,266.8247,26 / 29,,3900,2021-05-20 21:42:51:219
0.797294,-1.091789,13.549201,0.437711,0.776568,9.76605,-0.257991,0.175863,-0.581257,-1959.9,-1938.42,1856.4,135.5997,-3.9308,-1.7249,984.9944,55.855835,37.485233,174.1111,NaN,,1.113,6.0,266.8247,26 / 29,,3910,2021-05-20 21:42:51:229
0.797294,-1.091789,13.549201,0.436245,0.754015,9.767883,-0.20057,0.340186,-0.485962,-1960.08,-1938.9,1856.76,135.4413,-4.5419,-2.5663,984.9944,55.855835,37.485233,174.1111,NaN,,1.113,6.0,266.8247,26 / 29,,3920,2021-05-20 21:42:51:239
0.239427,-1.946545,13.769474,0.436245,0.754015,9.767883,-0.029527,0.418377,-0.360734,-1960.08,-1938.9,1856.76,135.4413,-4.5419,-2.5663,984.9944,55.855835,37.485233,174.1111,NaN,,1.113,6.0,266.8247,26 / 29,,3930,2021-05-20 21:42:51:249
-0.117319,-1.714301,13.211608,0.362947,0.723189,9.773211,0.312557,0.351792,-0.211683,-1959.9,-1938.96,1857.12,135.4413,-4.5419,-2.5663,984.9944,55.855835,37.485233,174.1111,NaN,,1.113,6.0,266.8247,26 / 29,,3940,2021-05-20 21:42:51:259
-0.153234,-0.943344,11.296188,0.362947,0.723189,9.773211,0.586225,0.1667,-0.128605,-1959.9,-1938.96,1857.12,135.4413,-4.5419,-2.5663,984.9944,55.855835,37.485233,174.1111,NaN,,1.113,6.0,266.8247,26 / 29,,3950,2021-05-20 21:42:51:269
0.452518,-0.076617,9.033599,0.291121,0.776971,9.771486,0.713285,-0.075202,-0.109669,-1960.08,-1938.3,1857.06,135.5131,-4.2291,-2.1268,984.9944,55.855835,37.485233,174.1111,NaN,,1.113,6.0,266.8247,26 / 29,,3961,2021-05-20 21:42:51:280
0.452518,-0.076617,9.033599,0.291121,0.776971,9.771486,0.647311,-0.224864,-0.159149,-1960.08,-1938.3,1857.06,135.5131,-4.2291,-2.1268,984.9944,55.855835,37.485233,174.1111,NaN,,1.113,6.0,266.8247,26 / 29,,3970,2021-05-20 21:42:51:289
1.379102,0.399844,7.489292,0.295846,0.909411,9.75991,0.446337,-0.230362,-0.252611,-1959.66,-1938.24,1856.82,135.5131,-4.2291,-2.1268,985.0029,55.855835,37.485233,174.1111,NaN,,1.113,6.0,266.8247,26 / 29,,3980,2021-05-20 21:42:51:299
1.936968,0.835602,7.132545,0.295846,0.909411,9.75991,0.086537,-0.049546,-0.415712,-1959.66,-1938.24,1856.82,135.5131,-4.2291,-2.1268,985.0029,55.855835,37.485233,174.1111,NaN,,1.113,6.0,266.8247,26 / 29,,3990,2021-05-20 21:42:51:309
1.515576,0.495615,7.292961,0.331749,0.993382,9.750566,-0.214009,0.144098,-0.5275,-1959.66,-1938.48,1857.36,136.1273,-5.3209,-1.7362,985.0029,55.855835,37.485233,174.1111,NaN,,1.113,6.0,266.8247,26 / 29,,4000,2021-05-20 21:42:51:319
0.6273,-0.260976,7.601823,0.331749,0.993382,9.750566,-0.454079,0.293149,-0.559876,-1959.66,-1938.48,1857.36,136.1273,-5.3209,-1.7362,985.0029,55.855835,37.485233,174.1111,NaN,,1.113,6.0,266.8247,26 / 29,,4010,2021-05-20 21:42:51:329
-0.304073,-0.878699,8.178843,0.296511,0.955063,9.755527,-0.546319,0.299869,-0.509785,-1959.54,-1939.26,1857.12,136.1273,-5.3209,-1.7362,985.0029,55.855835,37.485233,174.1111,NaN,,1.113,6.0,266.8247,26 / 29,,4021,2021-05-20 21:42:51:340
-0.304073,-0.878699,8.178843,0.296511,0.955063,9.755527,-0.527383,0.249167,-0.413879,-1959.54,-1939.26,1857.12,136.1273,-5.3209,-1.7362,985.0029,55.855835,37.485233,174.1111,NaN,,1.113,6.0,266.8247,26 / 29,,4030,2021-05-20 21:42:51:349
-0.732648,-1.139675,8.691217,0.231185,0.853385,9.766713,-0.376499,0.117831,-0.226955,-1959.42,-1939.8,1856.7,136.2685,-5.5889,-1.7409,985.0029,55.855835,37.485233,174.1111,NaN,,1.113,6.0,266.8247,26 / 29,,4040,2021-05-20 21:42:51:359
-0.852362,-1.063058,8.966559,0.231185,0.853385,9.766713,-0.376499,0.117831,-0.226955,-1959.42,-1939.8,1856.7,136.2685,-5.5889,-1.7409,985.0029,55.855835,37.485233,174.1111,NaN,,1.113,6.0,266.8247,26 / 29,,4050,2021-05-20 21:42:51:369
-0.215485,-0.409421,8.89952,0.202679,0.775772,9.773816,-0.152311,-0.03122,-0.04736,-1959.36,-1939.08,1857.66,136.2685,-5.5889,-1.7409,985.0029,55.855835,37.485233,174.1111,NaN,,1.113,6.0,266.8247,26 / 29,,4060,2021-05-20 21:42:51:379
0.648849,0.356747,8.190814,0.202679,0.775772,9.773816,0.172669,-0.099637,0.029609,-1959.36,-1939.08,1857.66,136.2685,-5.5889,-1.7409,985.0029,55.855835,37.485233,174.1111,NaN,,1.113,6.0,266.8247,26 / 29,,4071,2021-05-20 21:42:51:390
1.256994,1.197137,7.103813,0.215955,0.767363,9.774196,0.249638,-0.094139,-0.055912,-1958.58,-1938.6,1857.6,136.1188,-4.5372,-1.188,984.9915,55.855835,37.485233,174.1111,NaN,,1.113,6.0,266.8247,26 / 29,,4081,2021-05-20 21:42:51:400
1.256994,1.197137,7.103813,0.215955,0.767363,9.774196,0.249638,-0.094139,-0.055912,-1958.58,-1938.6,1857.6,136.1188,-4.5372,-1.188,984.9915,55.855835,37.485233,174.1111,NaN,,1.113,6.0,266.8247,26 / 29,,4090,2021-05-20 21:42:51:409
1.295303,1.747821,5.933013,0.233978,0.80996,9.770343,0.212375,-0.035496,-0.222679,-1958.7,-1938.3,1856.82,136.1188,-4.5372,-1.188,984.9915,55.855835,37.485233,174.1111,NaN,,1.113,6.0,266.8247,26 / 29,,4100,2021-05-20 21:42:51:419
0.478855,1.50121,5.655278,0.233978,0.80996,9.770343,0.087759,0.035364,-0.321639,-1958.7,-1938.3,1856.82,136.1188,-4.5372,-1.188,984.9915,55.855835,37.485233,174.1111,NaN,,1.113,6.0,266.8247,26 / 29,,4111,2021-05-20 21:42:51:430
-0.533923,1.05827,6.105401,0.23046,0.839901,9.767899,-0.055795,0.115998,-0.337521,-1958.82,-1938.12,1856.94,136.0934,-4.7376,-1.3718,984.9915,55.855835,37.485233,174.1111,NaN,,1.113,6.0,266.8247,26 / 29,,4121,2021-05-20 21:42:51:440
-0.533923,1.05827,6.105401,0.23046,0.839901,9.767899,-0.140705,0.161202,-0.275824,-1958.82,-1938.12,1856.94,136.0934,-4.7376,-1.3718,984.9915,55.855835,37.485233,174.1111,NaN,,1.113,6.0,266.8247,26 / 29,,4130,2021-05-20 21:42:51:449
-1.194743,0.912219,6.751855,0.198831,0.822101,9.770108,-0.128488,0.117831,-0.179918,-1958.76,-1937.94,1857.54,136.0934,-4.7376,-1.3718,984.9915,55.855835,37.485233,174.1111,NaN,,1.113,6.0,266.8247,26 / 29,,4140,2021-05-20 21:42:51:459
-1.391074,0.754197,7.441406,0.185682,0.810037,9.771374,-0.02403,0.01154,-0.049193,-1959.0,-1937.46,1857.66,136.0934,-4.7376,-1.3718,984.9915,55.855835,37.485233,174.1111,NaN,,1.113,6.0,266.8247,26 / 29,,4151,2021-05-20 21:42:51:470
-0.747014,1.075029,7.716748,0.185682,0.810037,9.771374,0.162895,-0.125904,0.082754,-1959.0,-1937.46,1857.66,136.0934,-4.7376,-1.3718,984.9915,55.855835,37.485233,174.1111,NaN,,1.113,6.0,266.8247,26 / 29,,4161,2021-05-20 21:42:51:480
0.407027,1.666415,7.597034,0.191632,0.819203,9.770495,0.253303,-0.231584,0.104134,-1959.48,-1938.0,1858.08,136.2341,-4.7381,-1.0886,984.9915,55.855835,37.485233,174.1111,NaN,,1.113,6.0,266.8247,26 / 29,,4171,2021-05-20 21:42:51:490
0.407027,1.666415,7.597034,0.191632,0.819203,9.770495,0.250249,-0.226697,-0.002156,-1959.48,-1938.0,1858.08,136.2341,-4.7381,-1.0886,984.9915,55.855835,37.485233,174.1111,NaN,,1.113,6.0,266.8247,26 / 29,,4180,2021-05-20 21:42:51:499
1.733455,2.324841,7.680834,0.235829,0.86799,9.765314,0.168393,-0.103913,-0.155484,-1959.18,-1938.24,1858.32,136.2341,-4.7381,-1.0886,984.9915,55.855835,37.485233,174.1111,NaN,,1.113,6.0,266.8247,26 / 29,,4190,2021-05-20 21:42:51:509
1.613741,2.468497,7.683228,0.235829,0.86799,9.765314,0.076152,-0.011062,-0.288652,-1959.18,-1938.24,1858.32,136.2341,-4.7381,-1.0886,984.9915,55.855835,37.485233,174.1111,NaN,,1.113,6.0,266.8247,26 / 29,,4200,2021-05-20 21:42:51:519
0.548289,2.049499,7.898713,0.257843,0.905282,9.761372,0.076152,-0.011062,-0.288652,-1958.76,-1938.24,1857.12,136.2211,-5.0779,-1.3834,984.9915,55.855835,37.485233,174.1111,NaN,,1.113,6.0,266.8247,26 / 29,,4210,2021-05-20 21:42:51:529
-0.076617,1.709512,8.458973,0.257843,0.905282,9.761372,-0.006315,-0.011672,-0.313087,-1958.76,-1938.24,1857.12,136.2211,-5.0779,-1.3834,984.9915,55.855835,37.485233,174.1111,NaN,,1.113,6.0,266.8247,26 / 29,,4220,2021-05-20 21:42:51:539
-0.076617,1.709512,8.458973,0.254517,0.912324,9.760802,-0.033803,-0.029388,-0.222679,-1958.88,-1937.7,1857.12,136.2211,-5.0779,-1.3834,984.9915,55.855835,37.485233,174.1111,NaN,,1.113,6.0,266.8247,26 / 29,,4230,2021-05-20 21:42:51:549
-0.339987,1.752609,9.213169,0.254517,0.912324,9.760802,-8.17E-4,-0.047713,-0.106614,-1958.88,-1937.7,1857.12,136.2211,-5.0779,-1.3834,984.9915,55.855835,37.485233,174.1111,NaN,,1.113,6.0,266.8247,26 / 29,,4240,2021-05-20 21:42:51:559
-0.093377,1.702329,9.543579,0.259217,0.911934,9.760715,0.063324,-0.037329,0.031441,-1958.88,-1937.04,1857.84,136.2548,-5.338,-1.4937,984.9915,55.855835,37.485233,174.1111,NaN,,1.113,6.0,266.8247,26 / 29,,4250,2021-05-20 21:42:51:569
0.277736,1.812466,9.634562,0.259217,0.911934,9.760715,0.037668,-0.03855,0.118795,-1958.88,-1937.04,1857.84,136.2548,-5.338,-1.4937,984.9915,55.855835,37.485233,174.1111,NaN,,1.113,6.0,266.8247,26 / 29,,4261,2021-05-20 21:42:51:580
0.277736,1.996825,10.348056,0.267959,0.924578,9.75929,-0.008147,-0.044659,0.161556,-1958.5198,-1937.5198,1857.66,136.2548,-5.338,-1.4937,984.9915,55.855835,37.485233,174.1111,NaN,,1.113,6.0,266.8247,26 / 29,,4270,2021-05-20 21:42:51:589
0.5435,1.996825,10.348056,0.267959,0.924578,9.75929,-0.032582,-0.029998,0.168275,-1958.5198,-1937.5198,1857.66,136.2548,-5.338,-1.4937,984.9878,55.855835,37.485233,174.1111,NaN,,1.113,6.0,266.8247,26 / 29,,4280,2021-05-20 21:42:51:599
0.842785,2.104568,10.958596,0.278857,0.923565,9.759081,-0.062514,-0.01717,0.135288,-1959.48,-1937.5198,1857.54,136.2569,-5.4099,-1.5728,984.9878,55.855835,37.485233,174.1111,NaN,,1.113,6.0,266.8247,26 / 29,,4290,2021-05-20 21:42:51:609
0.905036,1.996825,11.521251,0.278857,0.923565,9.759081,-0.081451,-6.6E-5,0.106578,-1959.48,-1937.5198,1857.54,136.2569,-5.4099,-1.5728,984.9878,55.855835,37.485233,174.1111,NaN,,1.113,6.0,266.8247,26 / 29,,4300,2021-05-20 21:42:51:619
0.905036,1.996825,11.521251,0.284914,0.912552,9.759941,-0.048464,0.050636,0.078478,-1960.38,-1937.16,1857.36,136.2569,-5.4099,-1.5728,984.9878,55.855835,37.485233,174.1111,NaN,,1.113,6.0,266.8247,26 / 29,,4311,2021-05-20 21:42:51:630
0.548289,1.664021,12.6298,0.284914,0.912552,9.759941,0.042555,0.06041,0.092528,-1960.38,-1937.16,1857.36,136.2569,-5.4099,-1.5728,984.9878,55.855835,37.485233,174.1111,NaN,,1.113,6.0,266.8247,26 / 29,,4321,2021-05-20 21:42:51:640
0.090982,1.22108,12.900352,0.277571,0.904158,9.760935,0.163506,0.020703,0.153614,-1959.12,-1937.16,1857.42,136.1665,-5.3393,-1.6721,984.9878,55.855835,37.485233,174.1111,NaN,,1.113,6.0,266.8247,26 / 29,,4330,2021-05-20 21:42:51:649
0.0,1.252206,12.641771,0.277571,0.904158,9.760935,0.287512,-0.008618,0.234248,-1959.12,-1937.16,1857.42,136.1665,-5.3393,-1.6721,984.9878,55.855835,37.485233,174.1111,NaN,,1.113,6.0,266.8247,26 / 29,,4341,2021-05-20 21:42:51:660
0.0,1.252206,12.641771,0.275128,0.933512,9.75824,0.287512,-0.008618,0.234248,-1958.7,-1937.1,1857.24,136.1665,-5.3393,-1.6721,984.9878,55.855835,37.485233,174.1111,NaN,,1.113,6.0,266.8247,26 / 29,,4350,2021-05-20 21:42:51:669
-0.136474,1.841197,11.810958,0.275128,0.933512,9.75824,0.199547,-0.061152,0.253185,-1958.7,-1937.1,1857.24,136.1665,-5.3393,-1.6721,984.9878,55.855835,37.485233,174.1111,NaN,,1.113,6.0,266.8247,26 / 29,,4360,2021-05-20 21:42:51:679
-0.239427,1.91542,10.661706,0.282032,0.990444,9.752429,-0.033803,-0.12285,0.259294,-1959.42,-1937.34,1857.6,136.2426,-5.4624,-1.615,984.9878,55.855835,37.485233,174.1111,NaN,,1.113,6.0,266.8247,26 / 29,,4371,2021-05-20 21:42:51:690
-0.047885,0.948133,10.965778,0.282032,0.990444,9.752429,-0.033803,-0.12285,0.259294,-1959.42,-1937.34,1857.6,136.2426,-5.4624,-1.615,984.9934,55.855835,37.485233,174.1111,NaN,,1.113,6.0,266.8247,26 / 29,,4381,2021-05-20 21:42:51:700
-0.047885,0.948133,10.965778,0.306372,0.996242,9.751103,-0.375888,-0.075202,0.301444,-1959.9,-1937.94,1858.8,136.2426,-5.4624,-1.615,984.9934,55.855835,37.485233,174.1111,NaN,,1.113,6.0,266.8247,26 / 29,,4390,2021-05-20 21:42:51:709
0.304073,0.028731,13.27386,0.306372,0.996242,9.751103,-0.493785,0.054912,0.330154,-1959.9,-1937.94,1858.8,136.2426,-5.4624,-1.615,984.9934,55.855835,37.485233,174.1111,NaN,,1.113,6.0,266.8247,26 / 29,,4400,2021-05-20 21:42:51:719
0.265765,-0.294496,15.160548,0.315293,0.909884,9.759256,-0.242109,0.200298,0.327711,-1960.08,-1938.66,1859.1,136.3051,-5.8306,-1.7996,984.9934,55.855835,37.485233,174.1111,NaN,,1.113,6.0,266.8247,26 / 29,,4410,2021-05-20 21:42:51:729
0.289707,-0.169993,15.218011,0.302048,0.873692,9.762981,0.185497,0.253443,0.30572,-1960.2,-1938.24,1859.16,136.3051,-5.8306,-1.7996,984.9934,55.855835,37.485233,174.1111,NaN,,1.113,6.0,266.8247,26 / 29,,4420,2021-05-20 21:42:51:739
-0.031126,0.964893,11.916306,0.302048,0.873692,9.762981,0.649755,0.062853,0.21409,-1960.2,-1938.24,1859.16,136.3051,-5.8306,-1.7996,984.9934,55.855835,37.485233,174.1111,NaN,,1.113,6.0,266.8247,26 / 29,,4430,2021-05-20 21:42:51:749
-0.275342,1.788523,9.268238,0.263964,0.9176,9.760057,0.757878,-0.183936,0.099858,-1959.84,-1938.42,1858.98,136.3051,-5.8306,-1.7996,984.9934,55.855835,37.485233,174.1111,NaN,,1.113,6.0,266.8247,26 / 29,,4440,2021-05-20 21:42:51:759
-0.275342,1.788523,9.268238,0.263964,0.9176,9.760057,0.621044,-0.342761,-0.01865,-1959.84,-1938.42,1858.98,136.3051,-5.8306,-1.7996,984.9934,55.855835,37.485233,174.1111,NaN,,1.113,6.0,266.8247,26 / 29,,4450,2021-05-20 21:42:51:769
-0.581809,1.836409,8.298557,0.294235,1.058214,9.744947,0.224593,-0.276788,-0.086456,-1959.78,-1937.94,1858.68,136.2394,-5.369,-1.5492,984.9934,55.855835,37.485233,174.1111,NaN,,1.113,6.0,266.8247,26 / 29,,4461,2021-05-20 21:42:51:780
-1.139675,1.261783,8.74868,0.294235,1.058214,9.744947,-0.124212,-0.099026,-0.055302,-1959.78,-1937.94,1858.68,136.2394,-5.369,-1.5492,984.9934,55.855835,37.485233,174.1111,NaN,,1.113,6.0,266.8247,26 / 29,,4470,2021-05-20 21:42:51:789
-1.233051,0.586597,9.565128,0.349012,1.118444,9.736409,-0.124212,-0.099026,-0.055302,-1959.06,-1937.76,1857.84,136.2394,-5.369,-1.5492,984.9934,55.855835,37.485233,174.1111,NaN,,1.113,6.0,266.8247,26 / 29,,4480,2021-05-20 21:42:51:799
-1.000807,-0.004789,10.060742,0.349012,1.118444,9.736409,-0.540822,0.224122,0.060763,-1959.06,-1937.76,1857.84,136.2394,-5.369,-1.5492,984.9934,55.855835,37.485233,174.1111,NaN,,1.113,6.0,266.8247,26 / 29,,4491,2021-05-20 21:42:51:810
-1.000807,-0.004789,10.060742,0.339353,1.056547,9.743661,-0.540822,0.224122,0.060763,-1959.42,-1938.9,1857.6,136.459,-6.5488,-2.0529,984.9934,55.855835,37.485233,174.1111,NaN,,1.113,6.0,266.8247,26 / 29,,4500,2021-05-20 21:42:51:819
-0.41421,-0.696734,10.230737,0.339353,1.056547,9.743661,-0.593967,0.260774,0.08031,-1959.42,-1938.9,1857.6,136.459,-6.5488,-2.0529,984.9934,55.855835,37.485233,174.1111,NaN,,1.113,6.0,266.8247,26 / 29,,4510,2021-05-20 21:42:51:829
0.292102,-0.90743,10.235525,0.291058,0.944059,9.756763,-0.585415,0.29376,0.072369,-1960.38,-1938.66,1858.26,136.459,-6.5488,-2.0529,984.9934,55.855835,37.485233,174.1111,NaN,,1.113,6.0,266.8247,26 / 29,,4520,2021-05-20 21:42:51:839
0.84039,-0.967287,9.907509,0.291058,0.944059,9.756763,-0.507224,0.270547,0.011283,-1960.38,-1938.66,1858.26,136.459,-6.5488,-2.0529,984.9934,55.855835,37.485233,174.1111,NaN,,1.113,6.0,266.8247,26 / 29,,4530,2021-05-20 21:42:51:849
0.826025,-0.885882,9.629773,0.235614,0.835916,9.768117,-0.368558,0.183804,-0.05408,-1959.84,-1937.34,1858.38,136.2059,-5.5243,-1.7087,984.9934,55.85583,37.48521,174.0974,NaN,,1.2236,4.0,269.8286,24 / 28,,4540,2021-05-20 21:42:51:859
0.826025,-0.885882,9.629773,0.235614,0.835916,9.768117,-0.19385,0.090342,-0.095008,-1959.84,-1937.34,1858.38,136.2059,-5.5243,-1.7087,984.9934,55.85583,37.48521,174.0974,NaN,,1.2236,4.0,269.8286,24 / 28,,4550,2021-05-20 21:42:51:869
0.24661,-0.569837,9.074302,0.207206,0.779536,9.773422,-0.030749,0.048803,-0.084012,-1958.64,-1936.74,1858.32,136.2059,-5.5243,-1.7087,984.9934,55.85583,37.48521,174.0974,NaN,,1.2236,4.0,269.8286,24 / 28,,4560,2021-05-20 21:42:51:879
-0.232245,-0.215485,8.099832,0.207206,0.779536,9.773422,0.112804,0.023758,-0.010708,-1958.64,-1936.74,1858.32,136.2059,-5.5243,-1.7087,984.9934,55.85583,37.48521,174.0974,NaN,,1.2236,4.0,269.8286,24 / 28,,4570,2021-05-20 21:42:51:889
-0.66082,0.069434,7.199585,0.199123,0.785738,9.773094,0.189773,0.004821,0.089473,-1958.64,-1936.86,1858.14,136.0871,-4.5593,-1.2145,985.0022,55.85583,37.48521,174.0974,NaN,,1.2236,4.0,269.8286,24 / 28,,4581,2021-05-20 21:42:51:900
-0.66082,0.069434,7.199585,0.199123,0.785738,9.773094,0.183054,0.031699,0.212257,-1958.64,-1936.86,1858.14,136.0871,-4.5593,-1.2145,985.0022,55.85583,37.48521,174.0974,NaN,,1.2236,4.0,269.8286,24 / 28,,4590,2021-05-20 21:42:51:909
-0.864333,0.430969,6.701576,0.197397,0.81959,9.770348,0.139071,0.07446,0.346037,-1958.94,-1936.62,1858.32,136.0871,-4.5593,-1.2145,985.0022,55.85583,37.48521,174.0974,NaN,,1.2236,4.0,269.8286,24 / 28,,4600,2021-05-20 21:42:51:919
-0.821236,0.74462,6.476514,0.197397,0.81959,9.770348,0.096311,0.148985,0.471875,-1958.94,-1936.62,1858.32,136.0871,-4.5593,-1.2145,985.0022,55.85583,37.48521,174.0974,NaN,,1.2236,4.0,269.8286,24 / 28,,4610,2021-05-20 21:42:51:929
-0.28013,1.127703,6.007236,0.181281,0.839378,9.76898,0.061492,0.164257,0.551288,-1958.4,-1937.16,1858.98,136.2238,-4.7941,-1.1574,985.0022,55.85583,37.48521,174.0974,NaN,,1.2236,4.0,269.8286,24 / 28,,4620,2021-05-20 21:42:51:939
-0.28013,1.127703,6.007236,0.181281,0.839378,9.76898,0.030337,0.054301,0.549455,-1958.4,-1937.16,1858.98,136.2238,-4.7941,-1.1574,985.0022,55.85583,37.48521,174.0974,NaN,,1.2236,4.0,269.8286,24 / 28,,4630,2021-05-20 21:42:51:949
0.399844,1.522759,6.050333,0.167963,0.845497,9.76869,0.021174,-0.088031,0.462712,-1958.4,-1938.06,1858.74,136.2238,-4.7941,-1.1574,985.0022,55.85583,37.48521,174.0974,NaN,,1.2236,4.0,269.8286,24 / 28,,4641,2021-05-20 21:42:51:960
0.562655,1.802889,7.156488,0.167963,0.845497,9.76869,0.050496,-0.213869,0.350313,-1958.4,-1938.06,1858.74,136.2238,-4.7941,-1.1574,985.0022,55.85583,37.48521,174.0974,NaN,,1.2236,4.0,269.8286,24 / 28,,4650,2021-05-20 21:42:51:969
0.663214,1.680781,7.798153,0.203568,0.851108,9.767526,0.104863,-0.230362,0.251964,-1958.46,-1938.06,1858.14,136.3823,-4.946,-0.985,985.0022,55.85583,37.48521,174.0974,NaN,,1.2236,4.0,269.8286,24 / 28,,4660,2021-05-20 21:42:51:979
0.550683,1.541913,8.044764,0.203568,0.851108,9.767526,0.122578,-0.222421,0.165832,-1958.46,-1938.06,1858.14,136.3823,-4.946,-0.985,985.0022,55.85583,37.48521,174.0974,NaN,,1.2236,4.0,269.8286,24 / 28,,4670,2021-05-20 21:42:51:989
0.550683,1.541913,8.044764,0.25109,0.873165,9.764473,0.120745,-0.21448,0.103523,-1958.22,-1937.76,1858.56,136.3823,-4.946,-0.985,985.0044,55.85583,37.48521,174.0974,NaN,,1.2236,4.0,269.8286,24 / 28,,4681,2021-05-20 21:42:52:000
0.447729,1.194743,8.324894,0.25109,0.873165,9.764473,0.099976,-0.212647,0.091306,-1958.22,-1937.76,1858.56,136.3823,-4.946,-0.985,985.0044,55.85583,37.48521,174.0974,NaN,,1.2236,4.0,269.8286,24 / 28,,4690,2021-05-20 21:42:52:009
0.411815,1.177983,9.052753,0.294561,0.896158,9.761174,0.066989,-0.168665,0.09436,-1957.68,-1937.94,1858.62,136.2047,-5.1083,-1.473,985.0044,55.85583,37.48521,174.0974,NaN,,1.2236,4.0,269.8286,24 / 28,,4700,2021-05-20 21:42:52:019
0.277736,1.156435,9.802161,0.294561,0.896158,9.761174,0.040111,-0.04527,0.102912,-1957.68,-1937.94,1858.62,136.2047,-5.1083,-1.473,985.0044,55.85583,37.48521,174.0974,NaN,,1.2236,4.0,269.8286,24 / 28,,4710,2021-05-20 21:42:52:029
-0.019154,1.161223,10.122993,0.321402,0.907934,9.759239,0.029727,0.024369,0.112686,-1957.8,-1937.88,1858.56,136.2047,-5.1083,-1.473,985.0044,55.85583,37.48521,174.0974,NaN,,1.2236,4.0,269.8286,24 / 28,,4720,2021-05-20 21:42:52:039
-0.165205,1.144463,10.340873,0.321402,0.907934,9.759239,0.034003,0.079347,0.132234,-1957.8,-1937.88,1858.56,136.2047,-5.1083,-1.473,985.0044,55.85583,37.48521,174.0974,NaN,,1.2236,4.0,269.8286,24 / 28,,4730,2021-05-20 21:42:52:049
-0.165205,1.144463,10.340873,0.313306,0.913812,9.758954,0.054772,0.056134,0.134067,-1958.5198,-1937.64,1858.8,136.0664,-5.3122,-1.8862,985.0044,55.85583,37.48521,174.0974,NaN,,1.2236,4.0,269.8286,24 / 28,,4740,2021-05-20 21:42:52:059
-0.351958,1.218686,10.814939,0.313306,0.913812,9.758954,0.126243,-0.036718,0.139564,-1958.5198,-1937.64,1858.8,136.0664,-5.3122,-1.8862,985.0044,55.85583,37.48521,174.0974,NaN,,1.2236,4.0,269.8286,24 / 28,,4750,2021-05-20 21:42:52:069
-0.165205,1.352765,11.059155,0.311288,0.929881,9.7575,0.181832,-0.131402,0.132845,-1958.5198,-1938.0,1858.8,136.0664,-5.3122,-1.8862,985.0044,55.85583,37.48521,174.0974,NaN,,1.2236,4.0,269.8286,24 / 28,,4760,2021-05-20 21:42:52:079
0.138868,1.570644,11.336891,0.311288,0.929881,9.7575,0.223371,-0.208982,0.099858,-1958.5198,-1938.0,1858.8,136.0664,-5.3122,-1.8862,985.0044,55.85583,37.48521,174.0974,NaN,,1.2236,4.0,269.8286,24 / 28,,4770,2021-05-20 21:42:52:089
0.138868,1.570644,11.336891,0.34562,0.968942,9.752542,0.21543,-0.246856,0.055265,-1957.74,-1938.18,1858.98,136.1588,-5.441,-1.8273,985.0044,55.85583,37.48521,174.0974,NaN,,1.2236,4.0,269.8286,24 / 28,,4781,2021-05-20 21:42:52:100
0.349564,1.393468,11.468576,0.34562,0.968942,9.752542,0.146402,-0.271901,0.026554,-1957.74,-1938.18,1858.98,136.1588,-5.441,-1.8273,985.0044,55.85583,37.48521,174.0974,NaN,,1.2236,4.0,269.8286,24 / 28,,4790,2021-05-20 21:42:52:109
0.679974,1.137281,11.95222,0.396581,1.006225,9.746826,0.063935,-0.276788,-0.008265,-1958.1,-1938.18,1858.44,136.1588,-5.441,-1.8273,985.0044,55.85583,37.48521,174.0974,NaN,,1.2236,4.0,269.8286,24 / 28,,4800,2021-05-20 21:42:52:119
1.161223,1.134886,12.804582,0.396581,1.006225,9.746826,0.026672,-0.276177,-0.037587,-1958.1,-1938.18,1858.44,136.1588,-5.441,-1.8273,985.0044,55.85583,37.48521,174.0974,NaN,,1.2236,4.0,269.8286,24 / 28,,4810,2021-05-20 21:42:52:129
1.161223,1.134886,12.804582,0.449294,1.017288,9.74339,0.019342,-0.251742,-0.09623,-1958.5198,-1938.24,1858.14,136.0671,-5.8893,-2.33,985.0044,55.85583,37.48521,174.0974,NaN,,1.2236,4.0,269.8286,24 / 28,,4820,2021-05-20 21:42:52:139
1.182772,1.422199,13.218791,0.449294,1.017288,9.74339,0.023618,-0.219367,-0.125551,-1958.5198,-1938.24,1858.14,136.0671,-5.8893,-2.33,985.0044,55.85583,37.48521,174.0974,NaN,,1.2236,4.0,269.8286,24 / 28,,4830,2021-05-20 21:42:52:149
0.699128,1.917814,12.672896,0.489756,1.022944,9.740848,4.05E-4,-0.153393,-0.226955,-1958.64,-1938.66,1858.56,136.0671,-5.8893,-2.33,985.0044,55.85583,37.48521,174.0974,NaN,,1.2236,4.0,269.8286,24 / 28,,4841,2021-05-20 21:42:52:160
0.952921,1.261783,11.741524,0.489756,1.022944,9.740848,-0.116881,-0.213258,-0.268494,-1958.64,-1938.66,1858.56,136.0671,-5.8893,-2.33,985.0044,55.85583,37.48521,174.0974,NaN,,1.2236,4.0,269.8286,24 / 28,,4850,2021-05-20 21:42:52:169
0.952921,1.261783,11.741524,0.519429,1.017136,9.739919,-0.310525,-0.30672,-0.293539,-1958.64,-1938.72,1858.56,135.8529,-5.9875,-2.8783,985.0044,55.85583,37.48521,174.0974,NaN,,1.2236,4.0,269.8286,24 / 28,,4860,2021-05-20 21:42:52:179
1.32164,0.426181,12.4622,0.519429,1.017136,9.739919,-0.508446,-0.266403,-0.299037,-1958.64,-1938.72,1858.56,135.8529,-5.9875,-2.8783,985.0044,55.85583,37.48521,174.0974,NaN,,1.2236,4.0,269.8286,24 / 28,,4871,2021-05-20 21:42:52:190
1.910631,-0.66082,14.119039,0.568809,0.943316,9.744588,-0.663605,0.079957,-0.312476,-1958.76,-1938.84,1858.62,135.8529,-5.9875,-2.8783,984.9956,55.85583,37.48521,174.0974,NaN,,1.2236,4.0,269.8286,24 / 28,,4880,2021-05-20 21:42:52:199
1.951334,-1.556279,14.578739,0.568809,0.943316,9.744588,-0.608628,0.313919,-0.31553,-1958.76,-1938.84,1858.62,135.8529,-5.9875,-2.8783,984.9956,55.85583,37.48521,174.0974,NaN,,1.2236,4.0,269.8286,24 / 28,,4890,2021-05-20 21:42:52:209
1.240234,-1.448536,13.254705,0.533944,0.822814,9.757473,-0.294032,0.520391,-0.302702,-1959.6,-1938.84,1858.62,135.4479,-5.5199,-3.3407,984.9956,55.85583,37.48521,174.0974,NaN,,1.2236,4.0,269.8286,24 / 28,,4900,2021-05-20 21:42:52:219
1.240234,-1.448536,13.254705,0.533944,0.822814,9.757473,0.029116,0.387223,-0.314308,-1959.6,-1938.84,1858.62,135.4479,-5.5199,-3.3407,984.9956,55.85583,37.48521,174.0974,NaN,,1.2236,4.0,269.8286,24 / 28,,4910,2021-05-20 21:42:52:229
0.622511,-0.689551,10.338479,0.439559,0.786921,9.765139,0.281403,0.079957,-0.337521,-1959.54,-1938.0,1858.26,135.4479,-5.5199,-3.3407,984.9956,55.85583,37.48521,174.0974,NaN,,1.2236,4.0,269.8286,24 / 28,,4920,2021-05-20 21:42:52:239
0.545895,-0.098165,8.281797,0.439559,0.786921,9.765139,0.435341,-0.376359,-0.391278,-1959.54,-1938.0,1858.26,135.4479,-5.5199,-3.3407,984.9956,55.85583,37.48521,174.0974,NaN,,1.2236,4.0,269.8286,24 / 28,,4930,2021-05-20 21:42:52:249
0.797294,0.071828,7.893924,0.458964,0.857847,9.75827,0.373033,-0.590162,-0.438314,-1958.94,-1937.7,1858.32,135.4603,-4.6026,-2.5773,984.9956,55.85583,37.48521,174.0974,NaN,,1.2236,4.0,269.8286,24 / 28,,4940,2021-05-20 21:42:52:259
1.027144,-0.275342,8.79896,0.458964,0.857847,9.75827,0.093257,-0.504641,-0.438925,-1958.94,-1937.7,1858.32,135.4603,-4.6026,-2.5773,984.9956,55.85583,37.48521,174.0974,NaN,,1.2236,4.0,269.8286,24 / 28,,4950,2021-05-20 21:42:52:269
1.003201,-0.588992,9.869201,0.563374,0.912158,9.747869,-0.148646,-0.225475,-0.405938,-1959.06,-1938.42,1858.32,135.4603,-4.6026,-2.5773,984.9956,55.85583,37.48521,174.0974,NaN,,1.2236,4.0,269.8286,24 / 28,,4961,2021-05-20 21:42:52:280
1.003201,-0.588992,9.869201,0.563374,0.912158,9.747869,-0.323354,0.073849,-0.356458,-1959.06,-1938.42,1858.32,135.4603,-4.6026,-2.5773,984.9956,55.85583,37.48521,174.0974,NaN,,1.2236,4.0,269.8286,24 / 28,,4970,2021-05-20 21:42:52:289
0.524346,-0.881093,10.290593,0.58601,0.876868,9.749773,-0.36306,0.24428,-0.289263,-1959.42,-1938.36,1858.56,135.396,-5.337,-3.3077,985.0012,55.85583,37.48521,174.0974,NaN,,1.2236,4.0,269.8286,24 / 28,,4980,2021-05-20 21:42:52:299
0.284919,-1.031932,10.398335,0.58601,0.876868,9.749773,-0.294643,0.26505,-0.20252,-1959.42,-1938.36,1858.56,135.396,-5.337,-3.3077,985.0012,55.85583,37.48521,174.0974,NaN,,1.2236,4.0,269.8286,24 / 28,,4990,2021-05-20 21:42:52:309
0.620117,-0.691945,10.07032,0.534752,0.812798,9.758267,-0.118103,0.200298,-0.124329,-1959.96,-1937.94,1858.92,135.396,-5.337,-3.3077,985.0012,55.85583,37.48521,174.0974,NaN,,1.2236,4.0,269.8286,24 / 28,,5001,2021-05-20 21:42:52:320
1.063058,-0.241822,9.373586,0.534752,0.812798,9.758267,0.036446,0.103781,-0.107225,-1959.96,-1937.94,1858.92,135.396,-5.337,-3.3077,985.0012,55.85583,37.48521,174.0974,NaN,,1.2236,4.0,269.8286,24 / 28,,5010,2021-05-20 21:42:52:329
1.063058,-0.241822,9.373586,0.501132,0.799598,9.761142,0.158008,0.013373,-0.119442,-1959.96,-1938.0,1858.86,135.2426,-4.7543,-3.1367,985.0012,55.85583,37.48521,174.0974,NaN,,1.2236,4.0,269.8286,24 / 28,,5020,2021-05-20 21:42:52:339
1.151646,0.155628,8.648121,0.501132,0.799598,9.761142,0.281403,-0.056266,-0.145099,-1959.96,-1938.0,1858.86,135.2426,-4.7543,-3.1367,985.0012,55.85583,37.48521,174.0974,NaN,,1.2236,4.0,269.8286,24 / 28,,5031,2021-05-20 21:42:52:350
1.029538,0.675186,7.960964,0.503478,0.839976,9.757629,0.311946,-0.039161,-0.169533,-1959.6,-1937.82,1859.1,135.2426,-4.7543,-3.1367,985.0012,55.85583,37.48521,174.0974,NaN,,1.2236,4.0,269.8286,24 / 28,,5041,2021-05-20 21:42:52:360
0.794899,1.00799,7.575486,0.503478,0.839976,9.757629,0.312557,0.040251,-0.186638,-1959.6,-1937.82,1859.1,135.2426,-4.7543,-3.1367,985.0012,55.85583,37.48521,174.0974,NaN,,1.2236,4.0,269.8286,24 / 28,,5050,2021-05-20 21:42:52:369
0.509981,1.206715,6.766221,0.505137,0.900612,9.752134,0.287512,0.171587,-0.180529,-1959.9,-1938.12,1859.1,135.3888,-4.9136,-2.9537,985.0012,55.85583,37.48521,174.0974,NaN,,1.2236,4.0,269.8286,24 / 28,,5060,2021-05-20 21:42:52:379
0.509981,1.206715,6.766221,0.505137,0.900612,9.752134,0.233756,0.270547,-0.15976,-1959.9,-1938.12,1859.1,135.3888,-4.9136,-2.9537,985.0012,55.85583,37.48521,174.0974,NaN,,1.2236,4.0,269.8286,24 / 28,,5071,2021-05-20 21:42:52:390
0.342381,1.295303,6.165258,0.463048,0.952571,9.749287,0.112804,0.351182,-0.135936,-1960.0198,-1938.96,1859.04,135.3888,-4.9136,-2.9537,985.0012,55.85583,37.48521,174.0974,NaN,,1.2236,4.0,269.8286,24 / 28,,5080,2021-05-20 21:42:52:399
0.24661,1.422199,6.591439,0.463048,0.952571,9.749287,0.028505,0.417766,-0.119442,-1960.0198,-1938.96,1859.04,135.3888,-4.9136,-2.9537,985.0012,55.85583,37.48521,174.0974,NaN,,1.2236,4.0,269.8286,24 / 28,,5090,2021-05-20 21:42:52:409
0.122108,1.367131,6.888329,0.387896,0.969196,9.750927,0.017509,0.446477,-0.113334,-1959.72,-1939.56,1858.74,135.7759,-5.5742,-2.7193,985.0012,55.85583,37.48521,174.0974,NaN,,1.2236,4.0,269.8286,24 / 28,,5100,2021-05-20 21:42:52:419
0.122108,1.367131,6.888329,0.387896,0.969196,9.750927,0.065768,0.375616,-0.118832,-1959.72,-1939.56,1858.74,135.7759,-5.5742,-2.7193,985.0012,55.85583,37.48521,174.0974,NaN,,1.2236,4.0,269.8286,24 / 28,,5110,2021-05-20 21:42:52:429
-0.114925,1.307274,7.228316,0.303961,0.976448,9.753181,0.140293,0.282154,-0.116388,-1959.3,-1939.68,1858.62,135.7759,-5.5742,-2.7193,985.0012,55.85583,37.48521,174.0974,NaN,,1.2236,4.0,269.8286,24 / 28,,5120,2021-05-20 21:42:52:439
-0.177176,1.233052,7.735902,0.303961,0.976448,9.753181,0.31439,0.095229,-0.080958,-1959.3,-1939.68,1858.62,135.7759,-5.5742,-2.7193,985.0012,55.85583,37.48521,174.0974,NaN,,1.2236,4.0,269.8286,24 / 28,,5130,2021-05-20 21:42:52:449
0.201119,1.53473,7.99209,0.260366,1.016179,9.750383,0.425567,0.021925,-0.069352,-1959.3,-1939.5,1859.34,136.2826,-5.7144,-1.7851,985.0012,55.85583,37.48521,174.0974,NaN,,1.2236,4.0,269.8286,24 / 28,,5140,2021-05-20 21:42:52:459
