ACCELEROMETER X (m/s²),ACCELEROMETER Y (m/s²),ACCELEROMETER Z (m/s²),,,,GYROSCOPE X (rad/s),GYROSCOPE Y (rad/s),GYROSCOPE Z (rad/s),MAGNETIC FIELD X (μT),MAGNETIC FIELD Y (μT),MAGNETIC FIELD Z (μT),ORIENTATION Z (azimuth °),ORIENTATION X (pitch °),ORIENTATION Y (roll °),Time since start in ms 
-0.01676,-0.019154,9.967366,,,,-0.0004,-0.000345,-0.002307,-19.32,-13.86,-48.36,126.3855,0.128,0.1726,32
-0.026337,-0.028731,9.967366,,,,0.000822,-0.000345,0.000748,-19.32,-13.86,-48.36,126.3855,0.128,0.1726,42
-0.038308,-0.01676,9.979338,,,,-0.0004,-0.000345,0.001969,-18.6,-14.34,-47.94,126.3855,0.128,0.1726,52
-0.03352,-0.014366,9.974549,,,,0.000211,-0.000345,0.003191,-18.42,-14.52,-47.88,126.3855,0.128,0.1726,62
-0.03352,-0.014366,9.974549,,,,0.001433,0.002099,0.004413,-18.42,-14.52,-47.88,126.3855,0.128,0.1726,71
-0.038308,-0.035914,9.962578,,,,0.000211,-0.001566,0.000748,-18.84,-14.34,-46.86,126.3821,0.1255,0.1721,82
-0.03352,-0.038308,9.974549,,,,0.000211,-0.001566,0.000748,-18.84,-14.34,-46.86,126.3821,0.1255,0.1721,91
-0.03352,-0.038308,9.974549,,,,0.001433,-0.001566,0.003191,-18.84,-14.1,-46.98,126.3821,0.1255,0.1721,101
-0.026337,-0.040703,9.967366,,,,0.000211,0.000266,0.000137,-18.84,-14.1,-46.98,126.3821,0.1255,0.1721,112
-0.035914,-0.028731,9.962578,,,,-0.00101,0.000877,0.00258,-19.38,-13.8,-47.76,126.3775,0.128,0.1794,121
-0.047885,-0.021548,9.974549,,,,0.000211,0.00271,0.001359,-19.38,-13.8,-47.76,126.3775,0.128,0.1794,131
-0.03352,-0.03352,9.962578,,,,0.000822,0.003932,0.000748,-19.44,-13.56,-48.18,126.3775,0.128,0.1794,142
-0.03352,-0.03352,9.962578,,,,-0.001621,-0.004621,0.000137,-19.44,-13.56,-48.18,126.3775,0.128,0.1794,151
-0.035914,-0.023943,9.953,,,,-0.004065,0.000266,0.000137,-19.2,-13.44,-48,124.3947,0.1342,0.1836,162
-0.026337,-0.026337,9.96976,,,,0.001433,0.000877,0.001359,-19.2,-13.44,-48,124.3947,0.1342,0.1836,171
-0.035914,-0.021548,9.960183,,,,-0.00101,-0.000955,0.001969,-19.08,-13.26,-48.66,124.3947,0.1342,0.1836,182
-0.026337,0.002394,9.953,,,,-0.0004,-0.000345,0.000748,-19.08,-13.26,-48.66,124.3947,0.1342,0.1836,191
-0.026337,0.002394,9.953,,,,0.002044,-0.000345,0.004413,-19.08,-13.38,-48.78,124.4027,0.1459,0.1943,202
-0.040703,-0.03352,9.964972,,,,0.002655,0.002099,0.004413,-19.08,-13.38,-48.78,124.4027,0.1459,0.1943,212
-0.05028,-0.021548,9.96976,,,,-0.002232,-0.000345,0.001359,-19.2,-13.5,-47.76,124.4027,0.1459,0.1943,221
-0.031126,-0.023943,9.981731,,,,0.002044,0.000877,0.001359,-19.2,-13.5,-47.76,124.4027,0.1459,0.1943,231
-0.031126,-0.023943,9.981731,,,,-0.0004,0.002099,0.000748,-19.02,-14.1,-47.22,126.3815,0.1419,0.1949,241
-0.031126,-0.023943,9.950606,,,,-0.0004,0.000266,0.006245,-19.02,-14.1,-47.22,126.3815,0.1419,0.1949,252
-0.028731,-0.031126,9.972155,,,,0.000822,-0.001566,-0.000474,-19.26,-14.64,-47.34,126.3815,0.1419,0.1949,262
-0.019154,-0.021548,9.964972,,,,0.000211,0.000877,0.000748,-19.26,-14.34,-47.34,126.3815,0.1419,0.1949,272
-0.019154,-0.021548,9.964972,,,,0.001433,0.004542,0.000137,-19.26,-14.34,-47.34,126.3815,0.1419,0.1949,282
-0.028731,-0.038308,9.964972,,,,0.001433,0.004542,0.000137,-18.96,-14.46,-48.42,126.3823,0.141,0.1928,291
-0.038308,-0.045491,9.955395,,,,0.003877,-0.000345,0.000137,-18.96,-14.46,-48.42,126.3823,0.141,0.1928,302
-0.03352,-0.014366,9.962578,,,,-0.00101,0.002099,-0.001085,-18.72,-14.82,-48.24,126.3823,0.141,0.1928,311
-0.03352,-0.014366,9.962578,,,,0.000822,0.003321,0.001359,-18.72,-14.82,-48.24,126.3823,0.141,0.1928,322
-0.047885,-0.021548,9.955395,,,,0.003877,0.00271,0.001969,-19.08,-13.68,-47.7,126.3822,0.1415,0.1936,332
-0.038308,-0.026337,9.955395,,,,0.002044,0.000266,0.006245,-19.08,-13.68,-47.7,126.3822,0.1415,0.1936,342
-0.019154,-0.014366,9.979338,,,,-0.0004,0.00271,0.001359,-19.08,-13.32,-48.12,126.3822,0.1415,0.1936,352
-0.019154,-0.014366,9.979338,,,,-0.0004,-0.000955,-0.001696,-19.08,-13.32,-48.12,126.3822,0.1415,0.1936,361
-0.043097,-0.019154,9.945818,,,,0.001433,0.002099,0.001359,-19.14,-14.1,-48.36,126.375,0.1388,0.196,372
-0.035914,-0.019154,9.96976,,,,-0.00101,-0.000345,0.001969,-19.14,-14.1,-48.36,126.375,0.1388,0.196,382
-0.023943,-0.021548,9.984126,,,,0.000211,0.002099,0.000137,-19.08,-14.04,-48.54,126.375,0.1388,0.196,391
-0.023943,-0.021548,9.981731,,,,-0.00101,-0.000345,-0.001696,-19.08,-14.04,-48.54,126.375,0.1388,0.196,402
-0.023943,-0.021548,9.981731,,,,-0.001621,0.000877,0.000748,-18.54,-13.56,-49.08,126.3804,0.1401,0.1931,411
-0.026337,-0.019154,9.953,,,,0.000822,0.000877,0.003191,-18.54,-13.56,-49.08,126.3804,0.1401,0.1931,422
-0.023943,-0.026337,9.972155,,,,-0.003454,-0.000955,-0.001085,-18.54,-13.56,-48.72,126.3804,0.1401,0.1931,432
-0.011971,-0.014366,9.964972,,,,0.003877,-0.003399,0.003191,-18.54,-13.56,-48.72,126.3804,0.1401,0.1931,441
-0.05028,-0.011971,9.967366,,,,-0.002232,0.000877,0.001359,-19.26,-13.74,-47.88,126.3847,0.1361,0.1843,452
-0.05028,-0.011971,9.967366,,,,0.000822,0.000877,-0.001085,-19.26,-13.74,-47.88,126.3847,0.1361,0.1843,461
-0.035914,-0.01676,9.964972,,,,0.000822,0.000877,-0.001085,-19.08,-14.1,-47.58,126.3847,0.1361,0.1843,471
-0.035914,-0.023943,9.972155,,,,0.002655,-0.001566,-0.000474,-19.08,-14.1,-47.58,126.3847,0.1361,0.1843,482
-0.026337,-0.011971,9.967366,,,,0.002655,-0.001566,-0.000474,-19.2,-13.56,-47.4,126.3908,0.1372,0.1805,491
-0.03352,-0.026337,9.972155,,,,0.000822,0.000266,0.001969,-19.2,-13.56,-47.4,126.3908,0.1372,0.1805,501
-0.03352,-0.026337,9.972155,,,,-0.0004,0.000266,0.001969,-19.44,-13.2,-47.94,126.3908,0.1372,0.1805,512
-0.026337,-0.004789,9.955395,,,,-0.0004,-0.000955,0.000748,-19.44,-13.2,-47.94,126.3908,0.1372,0.1805,522
-0.028731,-0.01676,9.945818,,,,-0.002232,0.00271,0.000137,-18.9,-14.1,-48.24,126.3853,0.1343,0.1813,532
-0.035914,-0.028731,9.955395,,,,-0.00101,-0.000955,-0.000474,-18.9,-14.1,-48.24,126.3853,0.1343,0.1813,542
-0.028731,-0.004789,9.948212,,,,-0.00101,-0.001566,0.000748,-18.42,-13.5,-47.88,126.3853,0.1343,0.1813,551
-0.023943,-0.007183,9.955395,,,,0.001433,0.000266,0.000137,-19.02,-13.14,-47.76,126.3853,0.1343,0.1813,562
-0.023943,-0.007183,9.955395,,,,0.003266,0.002099,0.003802,-19.02,-13.14,-47.76,126.3853,0.1343,0.1813,571
-0.040703,-0.019154,9.962578,,,,0.003266,0.002099,0.003802,-19.2,-13.44,-48.42,124.3961,0.1313,0.1782,581
-0.014366,-0.031126,9.960183,,,,0.001433,0.003321,0.001359,-19.2,-13.44,-48.42,124.3961,0.1313,0.1782,591
-0.03352,-0.019154,9.953,,,,0.000822,-0.002788,0.000748,-18.6,-14.46,-48.72,124.3961,0.1313,0.1782,602
-0.03352,-0.019154,9.953,,,,-0.0004,-0.000955,0.00258,-18.6,-14.46,-48.72,124.3961,0.1313,0.1782,612
-0.028731,-0.01676,9.953,,,,-0.00101,0.000877,0.001969,-18.54,-14.34,-48.48,126.373,0.1255,0.1797,622
-0.035914,-0.019154,9.962578,,,,0.000822,-0.002788,0.000748,-18.54,-14.34,-48.48,126.373,0.1255,0.1797,631
-0.019154,-0.021548,9.943423,,,,-0.0004,0.000266,0.000137,-18.84,-14.04,-47.94,126.373,0.1255,0.1797,642
-0.03352,-0.021548,9.955395,,,,0.002044,0.000266,0.000748,-18.84,-14.04,-47.94,126.373,0.1255,0.1797,653
-0.03352,-0.021548,9.955395,,,,-0.00101,0.000266,-0.000474,-19.08,-14.34,-47.58,126.3773,0.126,0.1768,662
-0.035914,-0.03352,9.953,,,,-0.0004,0.000877,0.000748,-19.08,-14.34,-47.58,126.3773,0.126,0.1768,671
-0.01676,-0.028731,9.945818,,,,0.001433,0.000877,0.001969,-18.96,-14.22,-47.64,126.3773,0.126,0.1768,682
-0.028731,-0.019154,9.950606,,,,-0.00101,0.000877,0.001359,-18.96,-14.22,-47.64,126.3773,0.126,0.1768,692
-0.01676,-0.023943,9.960183,,,,-0.00101,0.000877,0.001359,-19.14,-13.74,-48.06,126.378,0.1234,0.1726,701
-0.01676,-0.023943,9.960183,,,,-0.0004,-0.000955,0.001359,-19.14,-13.74,-48.06,126.378,0.1234,0.1726,711
-0.028731,-0.011971,9.948212,,,,-0.002232,0.000877,0.001359,-19.2,-13.5,-47.94,126.378,0.1234,0.1726,722
-0.019154,-0.009577,9.960183,,,,0.002655,-0.002177,0.000748,-19.2,-13.98,-47.88,126.378,0.1234,0.1726,731
-0.035914,-0.028731,9.950606,,,,-0.001621,-0.00401,0.00258,-19.2,-13.98,-47.88,126.378,0.1234,0.1726,741
-0.028731,-0.019154,9.93624,,,,0.000211,0.001488,0.003802,-19.08,-13.98,-48.6,126.3748,0.1235,0.1753,752
-0.028731,-0.019154,9.93624,,,,0.000211,-0.000345,0.000137,-19.08,-13.98,-48.6,126.3748,0.1235,0.1753,762
-0.031126,-0.03352,9.955395,,,,0.000211,0.00271,0.001969,-18.84,-13.38,-48.9,126.3748,0.1235,0.1753,771
-0.05028,-0.021548,9.962578,,,,-0.002843,-0.000955,-0.000474,-18.84,-13.38,-48.9,126.3748,0.1235,0.1753,782
-0.028731,-0.023943,9.945818,,,,-0.002843,-0.000955,-0.000474,-19.02,-13.68,-48.24,126.3858,0.1265,0.1704,791
-0.028731,-0.023943,9.945818,,,,-0.003454,-0.002177,0.00258,-19.02,-13.68,-48.24,126.3858,0.1265,0.1704,802
-0.040703,-0.031126,9.945818,,,,0.001433,-0.000345,0.003191,-19.26,-14.28,-48.48,126.3858,0.1265,0.1704,812
-0.031126,0.004789,9.938635,,,,0.000822,0.000877,0.001359,-19.26,-14.28,-48.48,126.3858,0.1265,0.1704,822
-0.023943,-0.031126,9.955395,,,,-0.00101,-0.002177,0.001359,-19.44,-13.86,-48.54,126.3744,0.129,0.1831,832
-0.023943,-0.031126,9.955395,,,,0.000822,0.000266,0.001359,-19.44,-13.86,-48.54,126.3744,0.129,0.1831,841
-0.03352,-0.021548,9.945818,,,,-0.001621,-0.005231,0.00258,-19.38,-13.44,-48.84,126.3744,0.129,0.1831,851
-0.038308,-0.01676,9.938635,,,,0.004487,0.003932,0.00258,-19.26,-13.44,-49.26,126.3744,0.129,0.1831,862
-0.035914,-0.026337,9.967366,,,,-0.00101,-0.000955,0.000748,-19.26,-13.44,-49.26,126.3744,0.129,0.1831,871
-0.040703,-0.019154,9.943423,,,,-0.00101,-0.000955,0.000748,-18.54,-13.26,-48.84,124.3906,0.1299,0.1812,882
-0.040703,-0.007183,9.967366,,,,0.002044,0.001488,-0.001696,-18.54,-13.26,-48.84,124.3906,0.1299,0.1812,892
-0.028731,-0.007183,9.967366,,,,0.002044,0.001488,-0.001696,-19.26,-13.74,-47.82,124.3906,0.1299,0.1812,901
-0.05028,-0.03352,9.943423,,,,0.002044,-0.002177,0.001969,-19.26,-13.74,-47.82,124.3906,0.1299,0.1812,912
-0.03352,-0.009577,9.950606,,,,-0.0004,-0.002177,0.001969,-20.04,-13.86,-48,124.9946,0.1303,0.1837,921
-0.03352,-0.009577,9.950606,,,,0.000211,0.002099,0.000137,-20.04,-13.86,-48,124.9946,0.1303,0.1837,931
-0.031126,-0.023943,9.953,,,,0.001433,-0.000345,0.003802,-19.74,-13.92,-48,124.9946,0.1303,0.1837,941
-0.03352,-0.01676,9.948212,,,,0.000822,0.000877,0.001359,-19.74,-13.92,-48,124.9946,0.1303,0.1837,952
-0.021548,-0.03352,9.941029,,,,-0.002232,-0.000955,0.000748,-19.26,-14.16,-47.7,126.3689,0.1256,0.1832,961
-0.045491,-0.03352,9.950606,,,,-0.00101,-0.002177,0.000137,-19.26,-14.16,-47.7,126.3689,0.1256,0.1832,972
-0.019154,-0.01676,9.957788,,,,0.004487,0.000877,0.004413,-18.84,-14.1,-48.12,126.3689,0.1256,0.1832,982
-0.019154,-0.01676,9.957788,,,,0.000211,-0.000345,0.001359,-18.84,-14.1,-48.12,126.3689,0.1256,0.1832,991
-0.01676,-0.01676,9.950606,,,,-0.001621,-0.002177,0.001359,-18.54,-13.92,-47.94,126.3721,0.1244,0.1789,1002
-0.040703,-0.028731,9.945818,,,,0.000822,0.000266,0.001969,-18.54,-13.92,-47.94,126.3721,0.1244,0.1789,1012
-0.040703,-0.028731,9.945818,,,,0.000211,0.000266,0.001969,-18.84,-13.62,-47.58,126.3721,0.1244,0.1789,1021
-0.045491,-0.023943,9.967366,,,,0.000211,0.000877,0.000748,-18.84,-13.62,-47.58,126.3721,0.1244,0.1789,1037
-0.045491,-0.023943,9.967366,,,,0.000211,0.000877,0.000748,-18.66,-13.08,-47.7,124.3719,0.1201,0.1826,1041
-0.031126,-0.026337,9.957788,,,,0.002044,0.002099,0.004413,-18.66,-13.08,-47.7,124.3719,0.1201,0.1826,1051
-0.023943,-0.038308,9.955395,,,,0.000211,0.003321,-0.000474,-18.78,-13.2,-47.82,124.3719,0.1201,0.1826,1061
-0.023943,-0.038308,9.955395,,,,0.000822,0.002099,0.003191,-18.78,-13.2,-47.82,124.3719,0.1201,0.1826,1072
-0.038308,-0.031126,9.962578,,,,0.000211,0.002099,0.000748,-19.2,-13.56,-48.84,126.3662,0.1253,0.1848,1081
-0.043097,-0.021548,9.955395,,,,0.001433,-0.000345,-0.000474,-19.2,-13.56,-48.84,126.3662,0.1253,0.1848,1091
-0.038308,-0.019154,9.945818,,,,-0.001621,-0.002177,-0.000474,-19.14,-13.68,-47.76,126.3662,0.1253,0.1848,1102
-0.03352,-0.040703,9.979338,,,,0.001433,0.006986,0.00258,-19.14,-13.68,-47.76,126.3662,0.1253,0.1848,1111
-0.019154,-0.023943,9.953,,,,-0.002232,-0.002788,0.00258,-19.38,-13.74,-46.86,126.365,0.1248,0.1857,1122
-0.019154,-0.023943,9.953,,,,0.003266,0.000877,-0.000474,-19.38,-13.74,-46.86,126.365,0.1248,0.1857,1131
-0.031126,-0.028731,9.962578,,,,-0.001621,-0.000955,-0.000474,-19.38,-13.32,-47.76,126.365,0.1248,0.1857,1142
-0.021548,-0.009577,9.972155,,,,-0.001621,-0.001566,0.000137,-19.38,-13.32,-47.76,126.365,0.1248,0.1857,1151
-0.028731,-0.014366,9.960183,,,,0.000822,-0.000345,0.001359,-19.38,-13.68,-48.24,126.3688,0.133,0.1933,1161
-0.028731,-0.014366,9.960183,,,,0.000211,0.000266,-0.000474,-19.38,-13.68,-48.24,126.3688,0.133,0.1933,1171
-0.035914,-0.035914,9.962578,,,,0.000211,0.002099,0.001969,-19.44,-14.58,-48.6,126.3688,0.133,0.1933,1181
-0.038308,-0.028731,9.948212,,,,-0.0004,0.001488,0.00258,-19.44,-14.58,-48.6,126.3688,0.133,0.1933,1191
-0.031126,-0.014366,9.960183,,,,0.001433,-0.000955,0.003802,-19.26,-14.16,-48.12,126.3712,0.1334,0.1918,1203
-0.031126,-0.014366,9.960183,,,,0.001433,-0.000955,0.003802,-19.26,-14.16,-48.12,126.3712,0.1334,0.1918,1211
-0.028731,-0.01676,9.957788,,,,0.001433,0.001488,0.000748,-19.02,-13.98,-47.64,126.3712,0.1334,0.1918,1221
-0.040703,-0.019154,9.955395,,,,0.000211,0.00271,-0.000474,-19.02,-13.98,-47.64,126.3712,0.1334,0.1918,1232
-0.055068,-0.047885,9.96976,,,,0.002655,0.002099,0.003191,-18.84,-13.86,-47.22,126.3631,0.1308,0.1955,1242
-0.043097,-0.019154,9.960183,,,,-0.0004,0.000877,0.00258,-18.84,-13.86,-47.22,126.3631,0.1308,0.1955,1252
-0.043097,-0.019154,9.960183,,,,0.000822,-0.003399,0.001359,-18.36,-13.5,-47.64,126.3631,0.1308,0.1955,1262
-0.047885,-0.021548,9.955395,,,,-0.0004,-0.001566,0.00258,-18.36,-13.5,-47.64,126.3631,0.1308,0.1955,1272
-0.035914,-0.026337,9.972155,,,,0.000211,0.000877,0.000748,-18.36,-14.16,-48,127.842,0.1313,0.1945,1282
-0.035914,-0.011971,9.962578,,,,0.000211,-0.000345,0.000748,-18.36,-14.16,-48,127.842,0.1313,0.1945,1292
-0.035914,-0.011971,9.962578,,,,0.000822,0.00271,0.00258,-18.78,-14.34,-47.34,127.842,0.1313,0.1945,1301
-0.026337,-0.047885,9.953,,,,0.000211,-0.002788,-0.002307,-18.78,-14.34,-47.34,127.842,0.1313,0.1945,1312
-0.019154,-0.035914,9.953,,,,0.000211,-0.000345,0.001969,-19.02,-14.1,-47.4,126.3657,0.1316,0.1944,1322
-0.021548,-0.023943,9.972155,,,,0.000211,-0.000345,0.001969,-19.32,-14.22,-47.28,126.3657,0.1316,0.1944,1332
-0.021548,-0.023943,9.972155,,,,-0.002232,0.000266,-0.000474,-19.32,-14.22,-47.28,126.3657,0.1316,0.1944,1341
-0.031126,-0.03352,9.955395,,,,0.001433,0.000266,0.001969,-19.68,-14.28,-47.4,126.3657,0.1316,0.1944,1352
-0.01676,-0.035914,9.962578,,,,-0.00101,0.000877,0.00258,-19.68,-14.28,-47.4,126.3657,0.1316,0.1944,1362
-0.01676,-0.035914,9.962578,,,,-0.0004,0.002099,0.003191,-19.14,-14.28,-48.3,126.3888,0.1435,0.1909,1371
-0.035914,-0.019154,9.960183,,,,-0.00101,0.000266,0.000137,-19.38,-13.92,-48.84,126.3888,0.1435,0.1909,1381
-0.043097,-0.031126,9.976943,,,,-0.0004,-0.000345,0.000137,-19.38,-13.92,-48.84,126.3888,0.1435,0.1909,1391
-0.038308,-0.019154,9.953,,,,0.000822,0.000266,0.000748,-18.72,-14.52,-48.72,126.3888,0.1435,0.1909,1402
-0.03352,-0.021548,9.957788,,,,-0.004676,-0.00401,-0.001085,-18.72,-14.52,-48.72,126.3888,0.1435,0.1909,1412
-0.038308,-0.035914,9.976943,,,,-0.001621,-0.003399,-0.002917,-18.96,-14.76,-48,128.3059,0.1523,0.1798,1422
-0.01676,-0.007183,9.974549,,,,0.000211,-0.000955,0.00258,-19.26,-14.4,-47.94,128.3059,0.1523,0.1798,1432
-0.01676,-0.007183,9.974549,,,,-0.0004,-0.002788,0.000748,-19.26,-14.4,-47.94,128.3059,0.1523,0.1798,1441
-0.026337,-0.011971,9.964972,,,,-0.0004,0.001488,0.001359,-19.2,-13.8,-48.24,128.3059,0.1523,0.1798,1451
-0.014366,-0.026337,9.960183,,,,0.003266,-0.001566,0.00258,-19.2,-13.8,-48.24,128.3059,0.1523,0.1798,1462
-0.031126,-0.031126,9.972155,,,,0.003266,-0.001566,0.00258,-18.66,-13.92,-48,126.4178,0.1527,0.1791,1472
-0.031126,-0.031126,9.972155,,,,-0.0004,-0.000955,0.00258,-18.66,-13.92,-48,126.4178,0.1527,0.1791,1482
-0.031126,-0.021548,9.941029,,,,0.000211,-0.002177,0.000748,-19.26,-13.26,-47.7,126.4178,0.1527,0.1791,1492
-0.031126,-0.01676,9.964972,,,,-0.003454,-0.000345,0.001969,-19.26,-13.26,-47.7,126.4178,0.1527,0.1791,1501
-0.03352,-0.021548,9.972155,,,,0.000211,0.000877,0.000748,-19.98,-12.78,-47.88,123.0753,0.1478,0.1798,1512
-0.038308,-0.023943,9.960183,,,,-0.001621,-0.002177,-0.001696,-19.98,-12.78,-47.88,123.0753,0.1478,0.1798,1521
-0.038308,-0.023943,9.960183,,,,0.002044,0.000877,0.000748,-19.38,-13.08,-48.24,123.0753,0.1478,0.1798,1531
-0.038308,-0.040703,9.964972,,,,-0.0004,-0.000955,0.003191,-19.38,-13.08,-48.24,123.0753,0.1478,0.1798,1542
-0.038308,-0.031126,9.972155,,,,-0.001621,0.000877,0.000748,-19.14,-13.86,-48.06,126.4002,0.1477,0.1869,1551
-0.023943,-0.028731,9.967366,,,,0.002044,0.001488,0.00258,-19.14,-13.86,-48.06,126.4002,0.1477,0.1869,1562
-0.023943,-0.009577,9.962578,,,,0.002044,0.000877,0.001969,-19.56,-13.86,-48.06,126.4002,0.1477,0.1869,1571
-0.023943,-0.009577,9.962578,,,,0.000211,0.000266,0.000137,-19.56,-13.86,-48.06,126.4002,0.1477,0.1869,1581
-0.028731,-0.028731,9.953,,,,-0.0004,-0.000955,0.001359,-18.78,-13.62,-47.64,126.4056,0.1482,0.1831,1591
-0.023943,-0.023943,9.955395,,,,0.000211,0.00271,0.001359,-18.78,-13.62,-47.64,126.4056,0.1482,0.1831,1602
-0.031126,-0.023943,9.962578,,,,-0.001621,-0.000345,0.000748,-18.3,-13.68,-48.3,126.4056,0.1482,0.1831,1612
-0.03352,-0.035914,9.974549,,,,-0.001621,-0.000345,0.000748,-18.3,-13.68,-48.3,126.4056,0.1482,0.1831,1622
-0.03352,-0.035914,9.974549,,,,0.002044,-0.000345,0.00258,-18.6,-14.22,-49.14,126.3988,0.1443,0.1838,1631
-0.035914,-0.009577,9.955395,,,,-0.001621,0.000266,0.00258,-18.6,-14.22,-49.14,126.3988,0.1443,0.1838,1642
-0.045491,-0.040703,9.957788,,,,-0.00101,0.002099,0.000748,-18.66,-14.16,-48.54,126.3988,0.1443,0.1838,1652
-0.055068,-0.011971,9.967366,,,,0.002044,-0.000345,0.001359,-18.66,-14.16,-48.54,126.3988,0.1443,0.1838,1661
-0.01676,-0.01676,9.962578,,,,-0.001621,0.000266,0.001359,-19.02,-13.74,-47.88,126.3947,0.1433,0.1856,1671
-0.01676,-0.01676,9.962578,,,,0.002044,0.001488,0.001359,-19.38,-13.74,-47.82,126.3947,0.1433,0.1856,1681
-0.035914,-0.05028,9.950606,,,,-0.0004,-0.000955,-0.001085,-19.38,-13.74,-47.82,126.3947,0.1433,0.1856,1692
-0.040703,-0.011971,9.979338,,,,0.000211,0.000266,0.000748,-18.66,-13.86,-47.58,126.3947,0.1433,0.1856,1702
-0.014366,-0.03352,9.967366,,,,-0.00101,-0.002788,0.001359,-18.66,-13.86,-47.58,126.3947,0.1433,0.1856,1712
-0.047885,-0.028731,9.953,,,,0.003877,-0.000345,0.001969,-18.9,-13.92,-47.28,126.3986,0.1453,0.1849,1722
-0.047885,-0.028731,9.953,,,,-0.0004,0.001488,0.00258,-18.9,-13.92,-47.28,126.3986,0.1453,0.1849,1732
-0.031126,-0.01676,9.953,,,,0.002044,0.002099,0.000748,-19.44,-13.56,-47.76,126.3986,0.1453,0.1849,1742
-0.028731,-0.014366,9.964972,,,,0.003266,-0.000955,0.000748,-19.44,-13.56,-47.76,126.3986,0.1453,0.1849,1751
-0.028731,-0.014366,9.964972,,,,-0.0004,0.000266,0.003191,-19.32,-13.26,-47.88,124.4105,0.1438,0.1841,1762
-0.026337,-0.01676,9.953,,,,0.002044,-0.000955,0.001969,-19.32,-13.26,-47.88,124.4105,0.1438,0.1841,1771
-0.021548,-0.021548,9.960183,,,,0.001433,0.001488,0.001359,-19.14,-13.68,-47.76,124.4105,0.1438,0.1841,1782
-0.021548,-0.021548,9.960183,,,,0.001433,0.001488,0.001359,-19.14,-13.68,-47.76,124.4105,0.1438,0.1841,1791
-0.03352,-0.031126,9.948212,,,,-0.00101,0.000877,0.001359,-19.08,-14.28,-48.36,126.3857,0.1394,0.1879,1801
-0.045491,-0.011971,9.964972,,,,-0.0004,-0.001566,0.000137,-19.08,-14.28,-48.36,126.3857,0.1394,0.1879,1812
-0.045491,-0.011971,9.964972,,,,0.000211,0.003932,0.003191,-18.96,-14.46,-48.36,126.3857,0.1394,0.1879,1821
-0.038308,-0.021548,9.962578,,,,-0.002232,-0.001566,0.00258,-18.96,-14.46,-48.36,126.3857,0.1394,0.1879,1832
-0.031126,-0.031126,9.964972,,,,0.002044,-0.000345,0.001969,-19.2,-14.7,-48.12,128.269,0.1372,0.191,1842
-0.038308,-0.035914,9.955395,,,,-0.001621,0.001488,0.001359,-19.2,-14.7,-48.12,128.269,0.1372,0.191,1851
-0.021548,-0.023943,9.972155,,,,0.000211,-0.002177,0.004413,-19.08,-14.1,-48.66,128.269,0.1372,0.191,1862
-0.021548,-0.023943,9.972155,,,,0.000822,0.001488,0.003802,-19.08,-14.1,-48.66,128.269,0.1372,0.191,1871
-0.035914,-0.021548,9.960183,,,,-0.0004,0.000877,0.001359,-19.08,-13.68,-48.36,126.38,0.1384,0.1913,1882
-0.023943,-0.035914,9.974549,,,,0.000211,-0.001566,0.000137,-19.08,-13.68,-48.36,126.38,0.1384,0.1913,1891
-0.023943,-0.026337,9.979338,,,,0.000211,0.000266,0.001359,-19.26,-14.28,-48.24,126.38,0.1384,0.1913,1901
-0.023943,-0.026337,9.979338,,,,0.000211,0.000266,0.001359,-19.26,-14.28,-48.24,126.38,0.1384,0.1913,1912
-0.045491,-0.038308,9.964972,,,,0.000211,-0.002788,0.004413,-18.96,-13.98,-48.06,126.3797,0.1387,0.1919,1922
-0.031126,-0.03352,9.962578,,,,0.000211,0.002099,0.001969,-18.96,-13.98,-48.06,126.3797,0.1387,0.1919,1932
-0.047885,-0.014366,9.957788,,,,0.000211,0.002099,0.003191,-19.02,-13.56,-48,126.3797,0.1387,0.1919,1942
-0.047885,-0.014366,9.957788,,,,-0.004065,-0.003399,-0.000474,-18.84,-13.98,-48.18,126.3797,0.1387,0.1919,1951
-0.035914,-0.031126,9.960183,,,,-0.004065,-0.003399,-0.000474,-18.84,-13.98,-48.18,126.3797,0.1387,0.1919,1961
-0.021548,-0.023943,9.964972,,,,0.000211,-0.000345,0.001359,-18.84,-14.16,-47.94,126.389,0.1444,0.1918,1972
-0.031126,-0.035914,9.941029,,,,-0.00101,0.002099,0.001359,-18.84,-14.16,-47.94,126.389,0.1444,0.1918,1981
-0.026337,-0.023943,9.991309,,,,0.000822,0.00271,0.000748,-18.96,-14.52,-48.24,126.389,0.1444,0.1918,1991
-0.026337,-0.023943,9.991309,,,,0.000822,-0.002177,-0.001085,-19.26,-14.52,-48.42,126.389,0.1444,0.1918,2002
-0.043097,-0.002394,9.964972,,,,0.000211,0.002099,0.001359,-19.26,-14.52,-48.42,126.389,0.1444,0.1918,2011
-0.03352,-0.03352,9.981731,,,,0.000822,-0.000345,0.000748,-18.3,-13.92,-49.02,127.8737,0.1458,0.1882,2022
-0.047885,-0.043097,9.967366,,,,0.000211,-0.000955,-0.002307,-18.48,-13.74,-48.84,127.8737,0.1458,0.1882,2031
-0.047885,-0.043097,9.967366,,,,-0.0004,0.001488,0.001969,-18.48,-13.74,-48.84,127.8737,0.1458,0.1882,2042
-0.023943,-0.031126,9.962578,,,,0.000822,-0.000345,0.000137,-18.6,-13.5,-48.18,127.8737,0.1458,0.1882,2051
-0.03352,-0.004789,9.967366,,,,-0.00101,-0.001566,0.000137,-18.6,-13.5,-48.18,127.8737,0.1458,0.1882,2061
-0.011971,-0.028731,9.957788,,,,0.000822,-0.000345,0.001359,-18.9,-13.02,-47.82,124.4057,0.1458,0.1911,2071
-0.01676,-0.019154,9.955395,,,,-0.00101,-0.001566,0.00258,-18.9,-13.02,-47.82,124.4057,0.1458,0.1911,2082
-0.01676,-0.019154,9.955395,,,,0.002044,-0.000345,0.001359,-18.42,-13.68,-48,124.4057,0.1458,0.1911,2092
-0.023943,0.004789,9.953,,,,-0.00101,-0.003399,0.001359,-18.42,-13.68,-48,124.4057,0.1458,0.1911,2101
-0.031126,-0.031126,9.948212,,,,-0.00101,-0.003399,0.001359,-18.36,-13.92,-48.18,127.887,0.1542,0.1887,2112
-0.038308,-0.023943,9.953,,,,0.001433,0.003321,0.000137,-18.36,-13.92,-48.18,127.887,0.1542,0.1887,2122
-0.047885,-0.021548,9.967366,,,,0.000822,0.000266,0.00258,-18.72,-14.04,-48.72,127.887,0.1542,0.1887,2132
-0.047885,-0.021548,9.967366,,,,-0.0004,-0.000955,0.000748,-18.72,-14.04,-48.72,127.887,0.1542,0.1887,2141
-0.031126,-0.019154,9.955395,,,,-0.002232,0.000266,0.001359,-18.72,-13.8,-48.84,126.4148,0.1574,0.1884,2151
-0.031126,-0.035914,9.953,,,,-0.00101,0.000266,0.000748,-18.72,-13.8,-48.84,126.4148,0.1574,0.1884,2163
-0.031126,-0.035914,9.953,,,,-0.002232,-0.000955,0.00258,-18.78,-13.38,-48.54,126.4148,0.1574,0.1884,2172
-0.014366,-0.014366,9.943423,,,,0.000211,-0.002177,0.001359,-19.08,-14.4,-48.12,126.4148,0.1574,0.1884,2182
-0.019154,-0.028731,9.96976,,,,0.000822,-0.000955,0.001359,-19.08,-14.4,-48.12,126.4148,0.1574,0.1884,2191
-0.021548,-0.021548,9.933846,,,,0.000822,0.001488,-0.000474,-19.14,-14.16,-48.48,126.4101,0.154,0.1873,2202
-0.021548,-0.021548,9.933846,,,,0.000822,-0.003399,0.000748,-19.14,-14.16,-48.48,126.4101,0.154,0.1873,2211
-0.038308,-0.031126,9.974549,,,,0.000822,0.006986,0.000748,-18.42,-14.16,-48.06,126.4101,0.154,0.1873,2222
-0.035914,-0.043097,9.955395,,,,0.002044,-0.002177,0.001969,-18.48,-14.16,-48,126.4101,0.154,0.1873,2231
-0.031126,-0.028731,9.974549,,,,0.000822,0.002099,-0.001085,-18.48,-14.16,-48,126.4101,0.154,0.1873,2242
-0.028731,-0.026337,9.948212,,,,0.002655,-0.000345,0.003191,-18.3,-14.7,-47.34,129.8033,0.1499,0.1815,2251
-0.028731,-0.026337,9.948212,,,,0.002655,-0.000345,0.003191,-18.3,-14.7,-47.34,129.8033,0.1499,0.1815,2262
-0.021548,-0.01676,9.960183,,,,-0.0004,-0.001566,0.000137,-18.54,-14.88,-46.8,129.8033,0.1499,0.1815,2272
-0.01676,-0.028731,9.950606,,,,-0.0004,0.000877,-0.000474,-18.54,-14.88,-46.8,129.8033,0.1499,0.1815,2281
-0.028731,-0.023943,9.962578,,,,0.000822,-0.000345,0.003191,-19.02,-14.46,-47.76,126.4029,0.147,0.1838,2291
-0.028731,-0.023943,9.962578,,,,-0.0004,-0.002788,0.00258,-19.02,-14.46,-47.76,126.4029,0.147,0.1838,2302
-0.035914,-0.014366,9.960183,,,,-0.0004,0.000266,0.00258,-19.02,-14.22,-48,126.4029,0.147,0.1838,2311
-0.026337,-0.028731,9.953,,,,-0.0004,-0.000345,0.003191,-19.02,-14.22,-48,126.4029,0.147,0.1838,2321
-0.045491,-0.026337,9.953,,,,0.000822,0.000877,0.003802,-19.5,-13.68,-48,126.4022,0.1465,0.1837,2332
-0.045491,-0.026337,9.953,,,,0.003266,0.001488,0.001969,-19.5,-13.68,-48,126.4022,0.1465,0.1837,2341
-0.040703,-0.031126,9.964972,,,,0.003266,0.001488,0.001969,-19.44,-13.8,-48.06,126.4022,0.1465,0.1837,2351
-0.045491,-0.019154,9.953,,,,0.002044,0.000266,0.001969,-19.44,-13.8,-48.06,126.4022,0.1465,0.1837,2361
-0.028731,-0.014366,9.931452,,,,0.002044,0.00271,0.001969,-19.14,-13.8,-47.1,126.3923,0.1399,0.1829,2371
-0.038308,-0.028731,9.955395,,,,-0.0004,-0.000345,0.000137,-19.38,-13.56,-46.56,126.3923,0.1399,0.1829,2381
-0.03352,-0.021548,9.948212,,,,-0.00101,0.001488,0.003191,-19.38,-13.56,-46.56,126.3923,0.1399,0.1829,2392
-0.03352,-0.021548,9.948212,,,,-0.0004,-0.004621,0.003191,-19.68,-13.62,-46.92,126.3923,0.1399,0.1829,2402
-0.021548,-0.014366,9.964972,,,,-0.0004,0.005153,0.001359,-19.68,-13.62,-46.92,126.3923,0.1399,0.1829,2411
-0.035914,-0.01676,9.91948,,,,0.000211,0.001488,0.001359,-19.8,-13.38,-47.4,123.0552,0.136,0.1796,2422
-0.035914,-0.01676,9.91948,,,,0.000211,0.001488,0.001359,-19.8,-13.38,-47.4,123.0552,0.136,0.1796,2431
-0.03352,-0.019154,9.96976,,,,-0.001621,-0.000955,-0.000474,-19.26,-13.26,-47.58,123.0552,0.136,0.1796,2442
-0.026337,-0.026337,9.957788,,,,-0.0004,-0.001566,-0.000474,-19.26,-13.26,-47.58,123.0552,0.136,0.1796,2451
-0.031126,-0.019154,9.938635,,,,-0.002232,-0.000955,0.001969,-18.48,-13.98,-48.18,127.8372,0.1254,0.1906,2461
-0.031126,-0.019154,9.938635,,,,-0.0004,-0.000955,0.000748,-18.48,-13.98,-48.18,127.8372,0.1254,0.1906,2471
-0.045491,-0.01676,9.933846,,,,0.002655,0.000877,0.004413,-18.48,-14.22,-48.54,127.8372,0.1254,0.1906,2481
-0.026337,-0.01676,9.957788,,,,0.002655,0.005764,0.006856,-18.48,-14.22,-48.54,127.8372,0.1254,0.1906,2492
-0.028731,-0.026337,9.941029,,,,0.001433,0.001488,0.00258,-19.32,-13.62,-47.94,126.3633,0.1271,0.19,2501
-0.040703,-0.023943,9.96976,,,,0.004487,-0.001566,0.000748,-19.32,-13.62,-47.94,126.3633,0.1271,0.19,2512
-0.038308,-0.023943,9.957788,,,,-0.00101,0.000266,0.000137,-18.96,-13.38,-47.76,126.3633,0.1271,0.19,2522
-0.038308,-0.023943,9.957788,,,,0.000822,-0.002177,0.004413,-18.96,-13.38,-47.76,126.3633,0.1271,0.19,2532
-0.038308,-0.040703,9.960183,,,,0.000211,-0.000345,0.003802,-18.6,-13.5,-47.7,124.3699,0.124,0.19,2542
-0.023943,-0.031126,9.967366,,,,-0.00101,0.000266,0.003191,-18.6,-13.5,-47.7,124.3699,0.124,0.19,2552
-0.03352,-0.014366,9.938635,,,,0.000822,0.002099,0.004413,-19.68,-14.16,-47.28,124.3699,0.124,0.19,2561
-0.038308,-0.045491,9.948212,,,,0.000211,-0.000345,0.001359,-19.68,-14.16,-47.28,124.3699,0.124,0.19,2571
-0.038308,-0.045491,9.948212,,,,0.000211,-0.000955,0.001359,-20.28,-14.46,-47.64,124.9961,0.133,0.1862,2581
-0.035914,-0.035914,9.962578,,,,-0.0004,-0.001566,0.001969,-20.28,-14.46,-47.64,124.9961,0.133,0.1862,2592
-0.01676,0,9.945818,,,,-0.0004,-0.001566,0.001969,-20.04,-13.5,-48.18,124.9961,0.133,0.1862,2601
-0.023943,-0.028731,9.962578,,,,-0.001621,-0.000955,0.001969,-20.04,-13.5,-48.18,124.9961,0.133,0.1862,2612
-0.040703,-0.026337,9.950606,,,,-0.0004,0.000877,0.003191,-19.56,-13.2,-48.48,123.0525,0.1374,0.1849,2621
-0.040703,-0.026337,9.950606,,,,0.001433,0.002099,0.001969,-19.56,-13.2,-48.48,123.0525,0.1374,0.1849,2632
-0.035914,-0.019154,9.950606,,,,0.000211,-0.000955,-0.000474,-18.66,-13.74,-47.7,123.0525,0.1374,0.1849,2641
-0.045491,-0.019154,9.960183,,,,-0.0004,-0.006453,0.001359,-18.66,-13.74,-47.7,123.0525,0.1374,0.1849,2652
-0.038308,-0.014366,9.964972,,,,0.004487,-0.000955,0.006856,-18.6,-13.92,-47.64,126.3941,0.1387,0.1799,2662
-0.038308,-0.014366,9.964972,,,,-0.00101,-0.000345,-0.000474,-18.6,-13.92,-47.64,126.3941,0.1387,0.1799,2671
-0.026337,-0.035914,9.96976,,,,-0.0004,0.001488,-0.002917,-18.96,-14.28,-48.42,126.3941,0.1387,0.1799,2683
-0.038308,-0.01676,9.976943,,,,-0.0004,-0.000345,0.000748,-18.96,-14.28,-48.42,126.3941,0.1387,0.1799,2691
-0.038308,-0.01676,9.976943,,,,-0.0004,-0.000345,0.000748,-19.32,-14.64,-48.42,128.2797,0.1357,0.1803,2701
-0.043097,-0.035914,9.950606,,,,-0.003454,-0.004621,0.000137,-19.32,-14.64,-48.42,128.2797,0.1357,0.1803,2712
-0.026337,-0.031126,9.976943,,,,-0.0004,-0.001566,0.001359,-19.26,-14.22,-47.94,128.2797,0.1357,0.1803,2723
-0.01676,-0.014366,9.962578,,,,-0.00101,-0.000955,0.00258,-19.26,-14.22,-47.94,128.2797,0.1357,0.1803,2731
-0.045491,-0.031126,9.967366,,,,0.001433,-0.000955,0.001969,-18.72,-13.98,-48,126.3874,0.1356,0.1813,2742
-0.045491,-0.031126,9.967366,,,,0.002044,0.000266,0.001359,-18.72,-13.98,-48,126.3874,0.1356,0.1813,2752
-0.028731,-0.019154,9.950606,,,,-0.0004,0.001488,0.001359,-18.84,-13.68,-48.6,126.3874,0.1356,0.1813,2761
-0.023943,-0.028731,9.967366,,,,-0.0004,0.002099,0.00258,-18.84,-13.68,-48.6,126.3874,0.1356,0.1813,2774
-0.040703,-0.023943,9.953,,,,0.002044,-0.002788,0.003191,-18.06,-13.74,-48.72,127.8607,0.135,0.1844,2782
-0.031126,-0.011971,9.962578,,,,0.002044,0.000266,0.005635,-18.06,-13.74,-48.72,127.8607,0.135,0.1844,2791
-0.031126,-0.011971,9.962578,,,,0.002044,0.000266,0.005635,-18.06,-13.74,-48.72,127.8607,0.135,0.1844,2802
-0.031126,-0.011971,9.962578,,,,0.002044,0.000266,0.005635,-18.06,-13.74,-48.72,127.8607,0.135,0.1844,2812
-0.031126,-0.011971,9.962578,,,,0.002044,0.000266,0.005635,-18.06,-13.74,-48.72,127.8607,0.135,0.1844,2833
-0.035914,-0.026337,9.96976,,,,0.000822,-0.000345,0.001359,-17.94,-13.56,-48,127.8587,0.1344,0.1854,2835
-0.035914,-0.026337,9.96976,,,,0.000822,-0.000345,0.001359,-17.94,-13.56,-48,127.8587,0.1344,0.1854,2841
-0.043097,-0.014366,9.962578,,,,0.000822,-0.000345,0.003802,-19.44,-14.04,-48.72,127.8587,0.1344,0.1854,2851
-0.031126,-0.035914,9.964972,,,,0.001433,-0.000955,0.000137,-19.44,-14.04,-48.72,127.8587,0.1344,0.1854,2862
-0.031126,-0.035914,9.964972,,,,-0.002232,-0.000955,-0.000474,-19.2,-13.98,-47.82,127.8587,0.1344,0.1854,2872
-0.03352,-0.031126,9.974549,,,,-0.00101,-0.002177,0.000748,-19.2,-13.98,-47.82,127.8587,0.1344,0.1854,2882
-0.038308,-0.031126,9.972155,,,,0.002044,0.000266,0.005024,-19.56,-14.1,-47.58,125.0007,0.1329,0.1819,2892
-0.01676,-0.021548,9.976943,,,,0.002655,-0.000345,0.000748,-19.56,-14.1,-47.58,125.0007,0.1329,0.1819,2901
-0.026337,-0.040703,9.979338,,,,0.002044,-0.001566,0.003802,-19.08,-14.1,-47.94,125.0007,0.1329,0.1819,2912
-0.026337,-0.040703,9.979338,,,,0.000822,0.003932,0.004413,-19.08,-14.1,-47.94,125.0007,0.1329,0.1819,2922
-0.026337,-0.014366,9.957788,,,,-0.00101,-0.000345,0.001969,-19.02,-14.04,-48.18,126.3775,0.1312,0.1836,2932
-0.035914,-0.038308,9.974549,,,,-0.0004,-0.001566,0.003802,-19.02,-14.04,-48.18,126.3775,0.1312,0.1836,2942
-0.023943,-0.01676,9.974549,,,,0.000211,-0.000955,0.004413,-19.32,-14.34,-48.48,126.3775,0.1312,0.1836,2952
-0.03352,-0.031126,9.979338,,,,0.000211,-0.000955,0.004413,-19.32,-14.34,-48.48,126.3775,0.1312,0.1836,2962
-0.03352,-0.031126,9.979338,,,,0.000822,0.003932,-0.000474,-19.2,-13.86,-48.36,126.3818,0.1316,0.1806,2972
-0.035914,-0.035914,9.955395,,,,-0.001621,-0.000955,0.000748,-19.2,-13.86,-48.36,126.3818,0.1316,0.1806,2982
-0.021548,-0.028731,9.984126,,,,-0.00101,0.000266,-0.001696,-19.26,-13.02,-48.6,126.3818,0.1316,0.1806,2991
-0.05028,-0.03352,9.957788,,,,0.004487,0.001488,0.000748,-19.26,-13.02,-48.6,126.3818,0.1316,0.1806,3002
-0.023943,-0.035914,9.962578,,,,0.000822,-0.000345,0.001969,-19.5,-13.26,-48.12,124.3878,0.129,0.182,3011
-0.023943,-0.035914,9.962578,,,,0.000211,-0.001566,0.000137,-19.44,-13.92,-48.24,124.3878,0.129,0.182,3022
-0.028731,-0.03352,9.964972,,,,0.000211,-0.001566,0.000137,-19.44,-13.92,-48.24,124.3878,0.129,0.182,3032
-0.03352,-0.021548,9.950606,,,,0.000211,-0.001566,0.00258,-19.44,-13.92,-48.24,124.3878,0.129,0.182,3041
-0.023943,-0.01676,9.953,,,,-0.0004,-0.000345,-0.001085,-18.66,-14.46,-48.36,126.3772,0.1307,0.1832,3052
-0.023943,-0.01676,9.953,,,,-0.002232,0.000877,0.000137,-18.66,-14.46,-48.36,126.3772,0.1307,0.1832,3062
-0.05028,-0.019154,9.967366,,,,0.000822,-0.000345,0.000748,-19.62,-14.1,-47.28,126.3772,0.1307,0.1832,3071
-0.019154,-0.040703,9.972155,,,,0.002044,-0.001566,0.003802,-19.62,-14.1,-47.28,126.3772,0.1307,0.1832,3082
-0.031126,-0.021548,9.974549,,,,-0.00101,0.000266,0.005635,-19.44,-14.34,-47.94,126.3696,0.1277,0.1854,3092
-0.038308,-0.01676,9.948212,,,,-0.00101,-0.001566,0.003802,-19.44,-14.34,-47.94,126.3696,0.1277,0.1854,3102
-0.038308,-0.01676,9.948212,,,,0.000211,0.00271,0.00258,-19.02,-13.98,-48.42,126.3696,0.1277,0.1854,3112
-0.026337,-0.028731,9.967366,,,,0.000211,0.00271,0.00258,-19.02,-13.98,-48.42,126.3696,0.1277,0.1854,3121
-0.023943,-0.026337,9.98652,,,,0.000822,0.000266,0.001969,-19.62,-13.92,-48.3,124.9765,0.1244,0.1914,3131
-0.040703,-0.026337,9.957788,,,,0.000822,0.000266,0.001359,-19.62,-13.92,-48.3,124.9765,0.1244,0.1914,3141
-0.028731,-0.038308,9.979338,,,,0.002044,0.00271,0.001359,-19.62,-14.16,-48.54,124.9765,0.1244,0.1914,3151
-0.028731,-0.038308,9.979338,,,,0.002044,-0.000955,0.001969,-19.62,-14.16,-48.54,124.9765,0.1244,0.1914,3161
-0.023943,-0.023943,9.962578,,,,-0.00101,-0.002177,0.004413,-19.02,-14.1,-48,126.3495,0.1232,0.1961,3171
-0.031126,-0.057463,9.972155,,,,-0.0004,-0.002177,-0.002307,-19.02,-14.1,-48,126.3495,0.1232,0.1961,3181
-0.023943,-0.019154,9.967366,,,,0.003877,0.000877,0.003191,-18.66,-13.98,-47.76,126.3495,0.1232,0.1961,3192
-0.023943,-0.019154,9.967366,,,,-0.0004,0.001488,0.00258,-18.78,-13.98,-47.94,126.3495,0.1232,0.1961,3202
-0.021548,-0.026337,9.967366,,,,-0.002843,-0.003399,0.000748,-18.78,-13.98,-47.94,126.3495,0.1232,0.1961,3212
-0.03352,-0.023943,9.988914,,,,0.002044,-0.000345,0.006245,-19.02,-13.98,-49.2,126.3758,0.1384,0.1947,3221
-0.03352,-0.023943,9.964972,,,,-0.001621,0.001488,0.001359,-19.02,-13.98,-49.2,126.3758,0.1384,0.1947,3232
-0.03352,-0.026337,9.991309,,,,-0.001621,0.001488,0.001359,-19.38,-14.58,-49.44,126.3758,0.1384,0.1947,3242
-0.03352,-0.026337,9.991309,,,,0.002044,0.000266,0.001359,-19.38,-14.58,-49.44,126.3758,0.1384,0.1947,3252
-0.038308,-0.038308,9.964972,,,,0.002044,0.003321,0.003802,-19.08,-14.52,-48.54,128.2765,0.1435,0.1926,3261
-0.035914,-0.031126,9.974549,,,,-0.0004,-0.000345,0.001969,-19.08,-14.52,-48.54,128.2765,0.1435,0.1926,3271
-0.026337,-0.021548,9.976943,,,,0.000822,-0.000345,0.001969,-18.78,-14.04,-48.12,128.2765,0.1435,0.1926,3281
-0.03352,-0.01676,9.964972,,,,0.001433,-0.001566,-0.000474,-18.78,-14.04,-48.12,128.2765,0.1435,0.1926,3291
-0.03352,-0.01676,9.964972,,,,-0.001621,0.001488,0.000748,-19.08,-13.92,-48.84,126.3921,0.145,0.1902,3301
-0.031126,-0.035914,9.981731,,,,-0.0004,0.000877,0.004413,-19.08,-13.92,-48.84,126.3921,0.145,0.1902,3311
-0.038308,-0.023943,9.962578,,,,0.000822,0.000266,0.001359,-19.38,-13.44,-48.66,126.3921,0.145,0.1902,3322
-0.026337,-0.019154,9.974549,,,,0.002044,0.000877,0.003802,-19.38,-13.44,-48.66,126.3921,0.145,0.1902,3331
-0.004789,-0.026337,9.96976,,,,0.001433,0.000266,0.00258,-19.5,-13.68,-47.88,126.4115,0.1499,0.1805,3341
-0.004789,-0.026337,9.96976,,,,0.001433,0.000266,0.001359,-19.8,-14.04,-47.4,126.4115,0.1499,0.1805,3351
-0.021548,-0.01676,9.967366,,,,-0.0004,-0.000345,0.000748,-19.8,-14.04,-47.4,126.4115,0.1499,0.1805,3362
-0.026337,-0.014366,9.960183,,,,0.000211,-0.001566,0.005635,-19.44,-14.1,-47.64,126.4115,0.1499,0.1805,3372
-0.043097,-0.01676,9.950606,,,,0.000211,-0.001566,0.005635,-19.44,-14.1,-47.64,126.4115,0.1499,0.1805,3381
-0.028731,-0.045491,9.996098,,,,-0.001898,-0.000464,0.000509,-18.84,-13.68,-47.82,126.3963,0.1447,0.1862,3391
-0.028731,-0.045491,9.996098,,,,-0.002509,0.000147,-0.000713,-18.78,-14.16,-47.46,126.3963,0.1447,0.1862,3402
-0.031126,-0.002394,9.974549,,,,-0.001287,-0.000464,-0.000102,-18.78,-14.16,-47.46,126.3963,0.1447,0.1862,3411
-0.03352,-0.023943,9.972155,,,,-0.001898,0.000147,-0.001935,-19.02,-14.04,-48.24,126.3963,0.1447,0.1862,3422
-0.023943,-0.01676,9.972155,,,,0.001767,0.000147,0.000509,-19.02,-14.04,-48.24,126.3963,0.1447,0.1862,3431
-0.023943,-0.01676,9.972155,,,,0.000546,-0.000464,0.00112,-19.14,-12.78,-48.54,124.4075,0.1444,0.1881,3441
-0.040703,-0.011971,9.945818,,,,0.002378,0.001368,0.002952,-19.26,-12.24,-48.18,124.4075,0.1444,0.1881,3452
-0.026337,-0.014366,9.96976,,,,-6.5E-05,-0.000464,0.002952,-19.26,-12.24,-48.18,124.4075,0.1444,0.1881,3461
-0.028731,-0.028731,9.964972,,,,-6.5E-05,0.000147,0.00112,-19.02,-13.14,-48.3,124.4075,0.1444,0.1881,3472
-0.045491,-0.03352,9.967366,,,,-6.5E-05,0.000147,0.00112,-19.02,-13.14,-48.3,124.4075,0.1444,0.1881,3481
-0.01676,-0.038308,9.955395,,,,-0.001287,-0.000464,0.00112,-19.56,-14.1,-48.12,124.9974,0.1361,0.1894,3492
-0.01676,-0.038308,9.955395,,,,0.000546,-0.002908,-0.001935,-19.68,-14.34,-48,124.9974,0.1361,0.1894,3502
-0.026337,-0.035914,9.967366,,,,-0.000676,-0.002297,0.002952,-19.68,-14.34,-48,124.9974,0.1361,0.1894,3512
-0.021548,-0.028731,9.964972,,,,0.000546,0.000147,0.003563,-19.68,-14.22,-48.36,124.9974,0.1361,0.1894,3522
-0.028731,-0.019154,9.976943,,,,-0.001287,0.003201,0.00112,-19.68,-14.22,-48.36,124.9974,0.1361,0.1894,3531
-0.028731,-0.019154,9.976943,,,,0.001156,0.000757,-0.000713,-19.68,-13.56,-47.82,125.0098,0.1416,0.1862,3541
-0.040703,-0.03352,9.984126,,,,0.001156,0.000757,-0.000713,-19.68,-13.56,-47.82,125.0098,0.1416,0.1862,3551
-0.040703,-0.031126,9.955395,,,,-0.000676,0.000757,0.001731,-19.08,-13.44,-47.7,125.0098,0.1416,0.1862,3562
-0.023943,-0.031126,9.960183,,,,-0.000676,0.000757,0.001731,-18.96,-13.5,-47.46,125.0098,0.1416,0.1862,3571
-0.028731,-0.009577,9.967366,,,,-0.002509,-0.000464,-0.000713,-18.96,-13.5,-47.46,125.0098,0.1416,0.1862,3582
-0.009577,-0.028731,9.967366,,,,-0.002509,-0.000464,-0.000713,-19.14,-14.1,-47.94,126.3929,0.1454,0.19,3591
-0.009577,-0.028731,9.967366,,,,0.001156,-0.002297,0.00112,-19.14,-14.1,-47.94,126.3929,0.1454,0.19,3601
-0.035914,-0.023943,9.972155,,,,0.005432,0.001979,0.00112,-19.02,-13.98,-48.18,126.3929,0.1454,0.19,3611
-0.03352,-0.019154,9.967366,,,,0.000546,0.001368,-0.002545,-19.02,-13.98,-48.18,126.3929,0.1454,0.19,3621
-0.028731,-0.021548,9.972155,,,,-0.000676,-0.001075,-0.002545,-19.02,-13.56,-48,126.3925,0.1452,0.19,3631
-0.023943,-0.026337,9.957788,,,,-0.000676,0.00259,0.00112,-19.02,-13.56,-48,126.3925,0.1452,0.19,3642
-0.023943,-0.026337,9.957788,,,,0.000546,-0.001686,0.001731,-19.02,-13.56,-48,126.3925,0.1452,0.19,3651
-0.023943,-0.009577,9.972155,,,,-0.000676,0.000757,0.002341,-19.02,-13.8,-48.06,126.3925,0.1452,0.19,3662
-0.026337,-0.03352,9.964972,,,,-0.001287,-0.000464,0.001731,-18.6,-13.8,-48.78,126.3858,0.1423,0.1917,3672
-0.03352,-0.002394,9.976943,,,,-6.5E-05,-0.000464,0.00112,-18.6,-13.8,-48.78,126.3858,0.1423,0.1917,3681
-0.038308,-0.023943,9.979338,,,,-0.001287,0.000147,0.00112,-18.6,-13.56,-48.78,126.3858,0.1423,0.1917,3692
-0.038308,-0.023943,9.979338,,,,0.0036,0.000757,0.00112,-18.6,-13.56,-48.78,126.3858,0.1423,0.1917,3701
-0.035914,-0.002394,9.984126,,,,-0.00312,-0.000464,-0.000102,-19.08,-13.62,-48,126.3836,0.1407,0.1914,3711
-0.019154,-0.028731,9.96976,,,,-6.5E-05,-0.002908,-0.003156,-19.08,-13.62,-48,126.3836,0.1407,0.1914,3721
-0.03352,-0.031126,9.979338,,,,-6.5E-05,-0.002908,-0.003156,-19.02,-13.5,-48.24,126.3836,0.1407,0.1914,3731
-0.03352,-0.031126,9.98652,,,,0.000546,0.003201,0.000509,-19.02,-13.5,-48.24,126.3836,0.1407,0.1914,3741
-0.03352,-0.031126,9.98652,,,,0.000546,0.000757,0.002952,-18.48,-14.1,-48.24,127.8689,0.1429,0.1882,3752
-0.038308,-0.03352,9.948212,,,,0.000546,0.005644,-0.000713,-18.48,-14.1,-48.24,127.8689,0.1429,0.1882,3761
-0.038308,-0.040703,9.976943,,,,0.001156,-0.000464,0.003563,-18.66,-14.52,-48.24,127.8689,0.1429,0.1882,3772
-0.021548,-0.031126,9.957788,,,,-0.000676,-0.001686,0.000509,-18.66,-14.52,-48.24,127.8689,0.1429,0.1882,3781
-0.026337,-0.03352,9.943423,,,,0.001156,0.00259,0.000509,-18.78,-13.74,-48.6,126.3979,0.1445,0.1847,3792
-0.026337,-0.03352,9.943423,,,,-0.000676,0.001979,0.001731,-18.66,-13.38,-48.84,126.3979,0.1445,0.1847,3802
-0.03352,-0.019154,9.976943,,,,-0.000676,0.001368,0.000509,-18.66,-13.38,-48.84,126.3979,0.1445,0.1847,3812
-0.031126,0.002394,9.957788,,,,-0.000676,0.00259,0.000509,-19.02,-13.14,-48.84,126.3979,0.1445,0.1847,3821
-0.01676,-0.03352,9.962578,,,,-0.000676,0.00259,0.000509,-19.02,-13.14,-48.84,126.3979,0.1445,0.1847,3832
-0.026337,-0.023943,9.945818,,,,0.004211,0.001979,0.002341,-19.26,-13.92,-48.42,126.3954,0.1451,0.1875,3842
-0.026337,-0.023943,9.945818,,,,0.001767,0.000147,-0.001324,-19.26,-13.92,-48.42,126.3954,0.1451,0.1875,3851
-0.026337,-0.028731,9.945818,,,,-0.001287,-0.001686,-0.002545,-19.2,-14.88,-48.06,126.3954,0.1451,0.1875,3862
-0.01676,-0.031126,9.976943,,,,0.001156,0.000147,0.003563,-19.2,-14.88,-48.06,126.3954,0.1451,0.1875,3871
-0.03352,-0.031126,9.96976,,,,0.002989,0.003812,0.002952,-19.32,-14.76,-47.58,128.2866,0.1467,0.1886,3882
-0.019154,-0.019154,9.964972,,,,0.001767,-0.001686,0.001731,-19.8,-14.76,-47.34,128.2866,0.1467,0.1886,3891
-0.019154,-0.019154,9.964972,,,,-0.002509,-0.000464,-0.001324,-19.8,-14.76,-47.34,128.2866,0.1467,0.1886,3901
-0.026337,-0.035914,9.976943,,,,-0.001287,-0.002908,0.000509,-19.62,-14.28,-47.88,128.2866,0.1467,0.1886,3912
-0.023943,-0.01676,9.967366,,,,0.001156,-0.000464,0.001731,-19.62,-14.28,-47.88,128.2866,0.1467,0.1886,3921
-0.040703,-0.035914,9.960183,,,,-0.004341,-0.005351,0.002341,-19.14,-13.8,-48.3,126.3972,0.1484,0.1904,3932
-0.023943,-0.021548,9.964972,,,,0.001156,0.001979,0.00112,-19.14,-13.8,-48.3,126.3972,0.1484,0.1904,3941
-0.023943,-0.021548,9.964972,,,,-0.000676,0.001979,-0.001324,-18.3,-13.68,-48.3,126.3972,0.1484,0.1904,3951
-0.040703,-0.019154,9.960183,,,,0.000546,-0.000464,-0.000713,-18.3,-13.68,-48.3,126.3972,0.1484,0.1904,3961
-0.038308,-0.035914,9.957788,,,,-0.000676,-0.001075,0.002341,-18.6,-13.32,-48.36,124.4089,0.1443,0.1861,3971
-0.014366,-0.021548,9.955395,,,,0.002378,-0.000464,0.001731,-18.6,-13.32,-48.36,124.4089,0.1443,0.1861,3982
-0.038308,-0.021548,9.964972,,,,0.002378,-0.000464,0.001731,-18.84,-13.62,-47.7,124.4089,0.1443,0.1861,3992
-0.038308,-0.021548,9.964972,,,,-6.5E-05,0.001368,0.00112,-18.66,-14.22,-47.76,124.4089,0.1443,0.1861,4002
-0.014366,-0.038308,9.979338,,,,0.000546,0.000147,0.00112,-18.66,-14.22,-47.76,124.4089,0.1443,0.1861,4011
-0.019154,-0.021548,9.960183,,,,-0.001287,-0.001075,-0.002545,-18.72,-14.28,-47.52,126.4031,0.146,0.1823,4021
-0.026337,-0.035914,9.953,,,,-6.5E-05,-0.000464,-0.000713,-18.72,-14.28,-47.52,126.4031,0.146,0.1823,4032
-0.026337,-0.035914,9.953,,,,-0.001898,-0.000464,0.000509,-19.38,-14.1,-47.88,126.4031,0.146,0.1823,4041
-0.040703,-0.009577,9.964972,,,,0.001156,0.001368,-0.001935,-19.38,-14.1,-47.88,126.4031,0.146,0.1823,4052
-0.040703,-0.038308,9.964972,,,,-0.001287,-0.002297,-0.002545,-19.44,-13.86,-48.24,126.401,0.1416,0.1781,4061
-0.023943,-0.014366,9.960183,,,,-0.000676,-0.002297,0.001731,-19.44,-13.86,-48.24,126.401,0.1416,0.1781,4072
-0.007183,-0.019154,9.98652,,,,-0.000676,-0.002297,0.001731,-19.2,-13.62,-48.42,126.401,0.1416,0.1781,4081
-0.007183,-0.019154,9.98652,,,,-0.001287,0.001368,0.001731,-19.2,-13.62,-48.42,126.401,0.1416,0.1781,4091
-0.023943,-0.014366,9.974549,,,,-6.5E-05,0.000757,0.000509,-19.26,-14.16,-48.12,126.4046,0.1412,0.1746,4101
-0.021548,-0.026337,9.976943,,,,-0.001287,-0.001075,0.001731,-19.26,-14.16,-48.12,126.4046,0.1412,0.1746,4111
-0.028731,-0.007183,9.96976,,,,0.001156,0.00259,0.002952,-19.14,-14.28,-47.7,126.4046,0.1412,0.1746,4121
-0.028731,-0.007183,9.96976,,,,0.001767,0.001979,-0.000102,-19.14,-14.28,-47.7,126.4046,0.1412,0.1746,4132
-0.035914,-0.031126,9.96976,,,,-0.001898,-0.001686,-0.001324,-18.9,-13.5,-47.22,124.4165,0.1414,0.1749,4141
-0.035914,-0.023943,9.974549,,,,-0.001287,0.00259,-0.000102,-18.9,-13.5,-47.22,124.4165,0.1414,0.1749,4151
-0.01676,-0.007183,9.976943,,,,-0.000676,-0.001075,-0.000102,-18.6,-13.56,-47.52,124.4165,0.1414,0.1749,4162
-0.01676,-0.007183,9.976943,,,,0.002989,-0.000464,0.004785,-18.6,-13.56,-47.52,124.4165,0.1414,0.1749,4171
-0.043097,-0.031126,9.967366,,,,0.000546,0.001979,0.002341,-19.02,-13.92,-48.12,126.4103,0.143,0.1721,4181
-0.031126,-0.028731,9.974549,,,,0.001767,0.003812,-0.000713,-19.02,-13.92,-48.12,126.4103,0.143,0.1721,4191
-0.035914,-0.03352,9.950606,,,,-0.001898,-0.001686,0.000509,-19.32,-13.56,-48.66,126.4103,0.143,0.1721,4201
-0.019154,-0.03352,9.984126,,,,-0.000676,0.000757,0.000509,-19.32,-13.56,-48.66,126.4103,0.143,0.1721,4211
-0.019154,-0.03352,9.984126,,,,-6.5E-05,0.000757,0.00112,-19.26,-13.5,-48.9,124.4105,0.137,0.1748,4222
-0.026337,-0.01676,9.972155,,,,-6.5E-05,0.000757,0.00112,-19.26,-13.5,-48.9,124.4105,0.137,0.1748,4231
-0.028731,-0.028731,9.955395,,,,-6.5E-05,-0.001686,0.001731,-19.26,-13.68,-48.54,124.4105,0.137,0.1748,4241
-0.028731,-0.026337,9.98652,,,,-0.001898,-0.001075,-0.000713,-19.26,-13.68,-48.54,124.4105,0.137,0.1748,4252
-0.03352,-0.01676,9.96976,,,,0.001156,0.000147,0.001731,-19.44,-13.5,-48.48,124.409,0.1361,0.1741,4262
-0.03352,-0.01676,9.96976,,,,0.002989,-0.001075,-0.000102,-19.44,-13.5,-48.48,124.409,0.1361,0.1741,4271
-0.028731,-0.055068,9.974549,,,,-0.001287,-0.002908,0.000509,-19.92,-13.86,-48.54,124.409,0.1361,0.1741,4282
-0.026337,-0.03352,9.974549,,,,-0.000676,0.000147,-0.000713,-19.92,-13.86,-48.54,124.409,0.1361,0.1741,4292
-0.028731,-0.023943,9.988914,,,,-6.5E-05,-0.001686,-0.001935,-19.14,-14.04,-48.36,126.3906,0.1389,0.1831,4302
-0.038308,-0.019154,9.981731,,,,0.000546,0.000757,-0.000713,-19.14,-14.04,-48.36,126.3906,0.1389,0.1831,4312
-0.03352,-0.019154,9.948212,,,,0.002378,0.00259,0.004174,-18.84,-13.86,-48.48,126.3906,0.1389,0.1831,4321
-0.03352,-0.019154,9.948212,,,,-0.000676,-0.000464,-0.001324,-18.84,-13.86,-48.48,126.3906,0.1389,0.1831,4332
-0.028731,-0.040703,9.933846,,,,-0.001287,0.000147,-0.002545,-19.44,-14.22,-48.54,126.3903,0.1414,0.1868,4342
-0.040703,-0.021548,9.979338,,,,-0.001287,0.000147,-0.002545,-19.44,-14.22,-48.54,126.3903,0.1414,0.1868,4352
-0.023943,-0.028731,10.020041,,,,-0.000676,-0.000464,0.00112,-18.9,-13.68,-48.36,126.3903,0.1414,0.1868,4361
-0.023943,-0.028731,10.020041,,,,0.000546,0.000757,-0.000102,-18.9,-13.68,-48.36,126.3903,0.1414,0.1868,4371
-0.028731,-0.014366,9.972155,,,,-6.5E-05,0.000147,0.000509,-18.6,-13.68,-48.48,126.3832,0.1381,0.1882,4381
-0.059857,-0.031126,9.993703,,,,-6.5E-05,-0.002908,0.002341,-18.6,-13.68,-48.48,126.3832,0.1381,0.1882,4392
-0.055068,-0.023943,9.943423,,,,-0.00312,0.006255,-0.001935,-19.56,-13.68,-49.02,126.3832,0.1381,0.1882,4402
-0.055068,-0.023943,9.943423,,,,0.002378,-0.002908,-0.000102,-19.56,-13.68,-49.02,126.3832,0.1381,0.1882,4411
-0.043097,-0.01676,10.005674,,,,-6.5E-05,0.005034,-0.001935,-19.26,-13.5,-48.66,124.3962,0.1371,0.1868,4422
-0.040703,-0.040703,9.984126,,,,0.001767,-0.000464,-0.000102,-19.26,-13.5,-48.66,124.3962,0.1371,0.1868,4431
-0.045491,-0.021548,9.988914,,,,0.000546,-0.002908,0.00112,-18.84,-13.8,-48.3,124.3962,0.1371,0.1868,4442
-0.045491,-0.021548,9.988914,,,,-0.000676,0.004423,-0.000713,-18.84,-13.8,-48.3,124.3962,0.1371,0.1868,4451
-0.01676,-0.05028,9.976943,,,,0.001156,-0.002297,-0.000102,-19.02,-13.68,-49.56,126.3799,0.1383,0.1911,4462
-0.01676,-0.05028,9.976943,,,,0.001156,-0.002297,-0.000102,-19.02,-13.68,-49.56,126.3799,0.1383,0.1911,4472
-0.023943,-0.035914,9.938635,,,,-6.5E-05,0.001368,-0.001324,-19.14,-13.98,-49.32,126.3799,0.1383,0.1911,4482
-0.023943,0.002394,9.869201,,,,-0.005563,0.000757,-0.000713,-19.26,-14.28,-48.6,126.3799,0.1383,0.1911,4491
-0.023943,0.002394,9.869201,,,,-0.005563,0.000757,-0.000713,-19.26,-14.28,-48.6,126.3799,0.1383,0.1911,4501
-0.057463,0.009577,9.991309,,,,0.002378,0.006255,0.002341,-19.38,-13.08,-47.64,124.3811,0.1361,0.1981,4512
-0.021548,-0.01676,9.972155,,,,0.0036,-0.007795,0.003563,-19.44,-13.14,-47.4,124.3811,0.1361,0.1981,4521
-0.021548,-0.01676,9.972155,,,,-6.5E-05,-0.002908,-0.002545,-19.44,-13.14,-47.4,124.3811,0.1361,0.1981,4532
-0.057463,-0.045491,9.950606,,,,-6.5E-05,0.00931,-0.001935,-19.32,-13.44,-47.4,124.3811,0.1361,0.1981,4541
-0.028731,-0.021548,9.974549,,,,-0.001898,-0.005962,0.000509,-19.32,-13.44,-47.4,124.3811,0.1361,0.1981,4552
-0.028731,-0.021548,9.974549,,,,-0.001898,0.00259,-0.001324,-18.66,-13.68,-48.6,126.3637,0.1396,0.2062,4561
-0.043097,-0.047885,9.998491,,,,-0.001898,0.00259,-0.001324,-18.66,-13.68,-48.6,126.3637,0.1396,0.2062,4571
-0.040703,-0.002394,9.981731,,,,0.001767,0.008088,0.002952,-18.54,-13.74,-48.66,126.3637,0.1396,0.2062,4582
-0.023943,-0.009577,9.957788,,,,0.0036,0.000147,0.003563,-18.84,-13.5,-48.36,126.3637,0.1396,0.2062,4591
-0.023943,-0.009577,9.957788,,,,0.001156,0.003201,0.000509,-18.84,-13.5,-48.36,126.3637,0.1396,0.2062,4602
-0.057463,-0.047885,9.984126,,,,0.000546,0.000147,0.000509,-18.9,-13.14,-48.24,124.3821,0.144,0.2087,4611
-0.057463,-0.047885,9.984126,,,,0.000546,0.000147,0.000509,-18.9,-13.14,-48.24,124.3821,0.144,0.2087,4621
-0.031126,-0.019154,9.964972,,,,-0.000676,0.000147,0.00112,-18.9,-13.44,-48.9,124.3821,0.144,0.2087,4631
-0.035914,-0.040703,9.984126,,,,-6.5E-05,0.003201,0.00112,-19.2,-13.62,-48.54,124.3821,0.144,0.2087,4641
-0.035914,-0.040703,9.984126,,,,-6.5E-05,0.003201,0.00112,-19.2,-13.62,-48.54,124.3821,0.144,0.2087,4652
-0.019154,0.007183,9.962578,,,,0.001767,-0.005962,0.002341,-19.26,-13.86,-47.76,126.3959,0.1481,0.1911,4661
-0.019154,0.007183,9.962578,,,,0.000546,0.005034,0.003563,-19.26,-13.86,-47.76,126.3959,0.1481,0.1911,4671
-0.047885,-0.028731,9.967366,,,,-6.5E-05,-0.002297,0.00112,-19.44,-14.04,-47.58,126.3959,0.1481,0.1911,4682
-0.035914,-0.031126,9.979338,,,,0.000546,0.000147,-0.001324,-19.44,-13.92,-47.4,126.3959,0.1481,0.1911,4691
-0.035914,-0.031126,9.979338,,,,0.000546,0.000147,-0.001324,-19.44,-13.92,-47.4,126.3959,0.1481,0.1911,4702
-0.047885,-0.05028,9.972155,,,,0.000546,0.000757,0.005396,-18.9,-14.22,-48.18,126.3955,0.1481,0.1914,4712
-0.047885,-0.05028,9.972155,,,,0.000546,0.000757,0.005396,-18.9,-14.22,-48.18,126.3955,0.1481,0.1914,4722
-0.009577,-0.026337,9.967366,,,,0.001156,-0.002908,-0.004378,-18.42,-13.98,-48.18,126.3955,0.1481,0.1914,4731
-0.043097,-0.043097,9.967366,,,,0.000546,0.001368,0.00112,-19.08,-13.86,-48.06,126.3955,0.1481,0.1914,4742
-0.043097,-0.043097,9.967366,,,,0.000546,0.001368,0.00112,-19.08,-13.86,-48.06,126.3955,0.1481,0.1914,4752
-0.03352,-0.009577,9.979338,,,,0.002378,-0.001686,0.003563,-18.66,-14.52,-48.54,128.2856,0.1535,0.1979,4762
-0.03352,-0.009577,9.979338,,,,0.002378,-0.001686,0.003563,-18.66,-14.52,-48.54,128.2856,0.1535,0.1979,4772
-0.045491,-0.011971,9.972155,,,,0.000546,-0.001075,0.000509,-18.66,-14.04,-49.08,128.2856,0.1535,0.1979,4782
-0.045491,-0.011971,9.972155,,,,0.000546,-0.001075,0.000509,-18.66,-14.04,-49.08,128.2856,0.1535,0.1979,4792
-0.035914,-0.014366,9.981731,,,,-0.002509,0.000147,0.000509,-18.42,-13.02,-48.66,128.2856,0.1535,0.1979,4801
-0.035914,-0.028731,9.979338,,,,-6.5E-05,0.000757,-0.000102,-18.72,-12.66,-47.88,124.4148,0.1526,0.1933,4811
-0.035914,-0.028731,9.979338,,,,-6.5E-05,0.000757,-0.000102,-18.72,-12.66,-47.88,124.4148,0.1526,0.1933,4822
-0.045491,-0.019154,9.957788,,,,-6.5E-05,-0.001686,0.001731,-18.66,-13.08,-47.7,124.4148,0.1526,0.1933,4831
-0.03352,-0.014366,9.960183,,,,-0.001287,0.001368,-0.000102,-18.78,-13.62,-48.18,124.4148,0.1526,0.1933,4842
-0.03352,-0.014366,9.960183,,,,-0.001287,0.001368,-0.000102,-18.78,-13.62,-48.18,124.4148,0.1526,0.1933,4851
-0.038308,-0.026337,9.96976,,,,-6.5E-05,-0.001686,-0.000102,-19.02,-13.8,-48,126.3709,0.1388,0.1994,4861
-0.038308,-0.026337,9.96976,,,,-6.5E-05,-0.001686,-0.000102,-19.02,-13.8,-48,126.3709,0.1388,0.1994,4872
-0.021548,-0.03352,9.960183,,,,0.000546,0.001979,0.003563,-18.42,-14.1,-48,126.3709,0.1388,0.1994,4882
-0.021548,-0.03352,9.960183,,,,0.000546,0.001979,0.003563,-18.42,-14.1,-48,126.3709,0.1388,0.1994,4891
-0.023943,-0.019154,9.945818,,,,-6.5E-05,-0.000464,0.00112,-18.84,-13.86,-48.36,126.3708,0.1386,0.1993,4901
-0.043097,-0.019154,9.957788,,,,-0.002509,0.001979,-0.000102,-19.8,-13.68,-47.76,126.3708,0.1386,0.1993,4912
-0.043097,-0.019154,9.957788,,,,-0.002509,0.001979,-0.000102,-19.8,-13.68,-47.76,126.3708,0.1386,0.1993,4922
-0.031126,-0.026337,9.957788,,,,0.001767,-0.003519,0.00112,-19.32,-13.5,-47.7,126.3708,0.1386,0.1993,4931
-0.031126,-0.026337,9.957788,,,,0.001767,-0.003519,0.00112,-19.32,-13.5,-47.7,126.3708,0.1386,0.1993,4942
-0.038308,-0.035914,9.979338,,,,-0.004952,-0.001075,0.00112,-18.96,-13.38,-48,124.3809,0.1378,0.2007,4952
-0.057463,-0.021548,9.964972,,,,-6.5E-05,-0.000464,-0.002545,-18.48,-14.04,-48.24,124.3809,0.1378,0.2007,4962
-0.057463,-0.021548,9.964972,,,,-6.5E-05,-0.000464,-0.002545,-18.48,-14.04,-48.24,124.3809,0.1378,0.2007,4971
-0.019154,-0.043097,9.972155,,,,-0.001287,-0.002908,-0.000102,-18.66,-14.16,-48.42,124.3809,0.1378,0.2007,4981
-0.03352,-0.019154,9.941029,,,,-6.5E-05,0.000147,-0.000102,-19.02,-13.62,-48.36,126.3779,0.1408,0.1963,4992
-0.03352,-0.019154,9.941029,,,,-6.5E-05,0.000147,-0.000102,-19.02,-13.62,-48.36,126.3779,0.1408,0.1963,5002
-0.035914,-0.038308,9.955395,,,,-6.5E-05,0.000757,0.00112,-18.9,-14.1,-49.02,126.3779,0.1408,0.1963,5012
-0.035914,-0.038308,9.955395,,,,-6.5E-05,0.000757,0.00112,-18.9,-14.1,-49.02,126.3779,0.1408,0.1963,5021
-0.035914,-0.03352,9.957788,,,,0.000546,0.000147,0.003563,-18.96,-13.86,-48.78,126.3881,0.1432,0.1911,5032
-0.031126,-0.026337,9.945818,,,,0.001156,0.000757,0.00112,-19.44,-13.56,-48.9,126.3881,0.1432,0.1911,5042
-0.031126,-0.026337,9.945818,,,,0.001156,0.000757,0.00112,-19.44,-13.56,-48.9,126.3881,0.1432,0.1911,5051
-0.028731,-0.019154,9.957788,,,,0.000546,-0.001075,0.00112,-19.5,-13.5,-48.54,126.3881,0.1432,0.1911,5061
-0.028731,-0.019154,9.957788,,,,0.000546,-0.001075,0.00112,-19.5,-13.5,-48.54,126.3881,0.1432,0.1911,5072
-0.023943,-0.007183,9.984126,,,,-0.001898,0.000757,0.003563,-19.74,-13.68,-48.42,125.006,0.1437,0.1926,5082
-0.023943,-0.007183,9.984126,,,,-0.001898,0.000757,0.003563,-19.74,-13.68,-48.42,125.006,0.1437,0.1926,5092
-0.031126,-0.021548,9.979338,,,,-6.5E-05,-0.002908,-0.000713,-19.68,-14.22,-48.6,125.006,0.1437,0.1926,5102
-0.045491,-0.026337,9.96976,,,,0.001156,0.001979,0.005396,-19.08,-14.22,-48.3,125.006,0.1437,0.1926,5111
-0.045491,-0.026337,9.96976,,,,0.000546,0.000147,0.00112,-19.08,-14.22,-48.3,125.006,0.1437,0.1926,5122
-0.043097,-0.01676,9.962578,,,,-6.5E-05,-0.001686,0.000509,-19.56,-14.16,-48.36,125.0189,0.1406,0.1767,5131
-0.045491,-0.019154,9.964972,,,,-0.001287,-0.002297,0.002341,-19.26,-13.92,-48.66,125.0189,0.1406,0.1767,5141
-0.045491,-0.019154,9.964972,,,,-0.001287,-0.002297,0.002341,-19.26,-13.92,-48.66,125.0189,0.1406,0.1767,5152
-0.03352,-0.03352,9.955395,,,,-0.000676,0.001979,-0.000102,-18.48,-13.56,-48.18,125.0189,0.1406,0.1767,5161
-0.03352,-0.03352,9.955395,,,,-0.000676,0.001979,-0.000102,-18.48,-13.56,-48.18,125.0189,0.1406,0.1767,5171
-0.045491,-0.03352,9.962578,,,,-0.000676,-0.001075,-0.000102,-18.42,-13.74,-48.42,127.8617,0.1359,0.1849,5182
-0.035914,-0.03352,9.972155,,,,-0.001287,-0.000464,0.001731,-18.72,-13.44,-48,127.8617,0.1359,0.1849,5191
-0.035914,-0.03352,9.972155,,,,0.000546,-0.000464,-0.000102,-18.72,-13.44,-48,127.8617,0.1359,0.1849,5201
-0.040703,-0.019154,9.96976,,,,-6.5E-05,0.000147,0.002341,-18.66,-13.8,-47.76,126.3758,0.1364,0.1921,5212
-0.040703,-0.019154,9.96976,,,,-6.5E-05,0.000147,0.002341,-18.66,-13.8,-47.76,126.3758,0.1364,0.1921,5221
-0.035914,-0.047885,9.964972,,,,0.002378,0.001979,0.000509,-18.66,-13.8,-47.88,126.3758,0.1364,0.1921,5231
-0.026337,-0.01676,9.976943,,,,0.001156,0.000147,-0.000713,-19.02,-13.62,-47.88,126.3758,0.1364,0.1921,5242
-0.026337,-0.01676,9.976943,,,,-0.001898,-0.001686,-0.002545,-19.02,-13.62,-47.88,126.3758,0.1364,0.1921,5251
-0.028731,-0.031126,9.945818,,,,-6.5E-05,0.000757,0.00112,-19.38,-13.92,-48.06,126.3973,0.1453,0.1862,5261
-0.035914,-0.028731,9.948212,,,,-0.002509,-0.003519,0.000509,-19.38,-13.92,-48.06,126.3973,0.1453,0.1862,5272
-0.023943,-0.01676,9.953,,,,0.001156,0.00259,0.00112,-19.38,-13.98,-48.36,126.3973,0.1453,0.1862,5281
-0.023943,-0.01676,9.953,,,,0.001156,0.00259,0.00112,-19.38,-13.98,-48.36,126.3973,0.1453,0.1862,5291
-0.035914,-0.028731,9.962578,,,,-0.002509,0.000147,0.001731,-18.78,-13.74,-48.36,126.4033,0.1472,0.1837,5301
-0.03352,-0.01676,9.981731,,,,-6.5E-05,0.001979,0.00112,-18.72,-13.5,-48.18,126.4033,0.1472,0.1837,5312
-0.03352,-0.01676,9.981731,,,,-6.5E-05,0.001979,0.00112,-18.72,-13.5,-48.18,126.4033,0.1472,0.1837,5321
-0.03352,-0.021548,9.957788,,,,-6.5E-05,0.00259,-0.001324,-18.54,-13.92,-48.42,126.4033,0.1472,0.1837,5331
-0.043097,-0.023943,9.988914,,,,0.000546,0.003812,-0.000102,-18.66,-13.86,-48.42,126.4039,0.1479,0.1842,5342
-0.043097,-0.023943,9.988914,,,,0.000546,0.003812,-0.000102,-18.66,-13.86,-48.42,126.4039,0.1479,0.1842,5351
-0.052674,-0.01676,9.955395,,,,0.000546,-0.002297,-0.000102,-18.6,-13.74,-48.96,126.4039,0.1479,0.1842,5361
-0.052674,-0.01676,9.955395,,,,0.000546,-0.002297,-0.000102,-18.6,-13.74,-48.96,126.4039,0.1479,0.1842,5372
-0.047885,-0.021548,9.950606,,,,0.001156,-0.000464,0.000509,-18.6,-14.04,-48.6,126.4039,0.1479,0.1842,5381
-0.031126,-0.035914,9.984126,,,,-0.001898,-0.001686,-0.000713,-18.06,-14.82,-48.3,129.7938,0.1488,0.1875,5391
-0.055068,-0.040703,9.974549,,,,0.001767,0.003812,0.002952,-18.06,-14.82,-48.3,129.7938,0.1488,0.1875,5401
-0.055068,-0.040703,9.974549,,,,-0.002509,-0.003519,0.000509,-18.72,-13.92,-48.18,129.7938,0.1488,0.1875,5412
-0.043097,-0.028731,9.960183,,,,-0.002509,-0.003519,0.000509,-18.72,-13.92,-48.18,129.7938,0.1488,0.1875,5422
-0.040703,-0.035914,9.979338,,,,-6.5E-05,0.001979,-0.000713,-19.08,-13.62,-47.88,126.3948,0.1462,0.1895,5432
-0.040703,-0.035914,9.979338,,,,-6.5E-05,0.001979,-0.000713,-19.08,-13.62,-47.88,126.3948,0.1462,0.1895,5441
-0.01676,-0.040703,9.962578,,,,-0.00312,-0.001075,-0.000102,-18.36,-13.74,-47.76,126.3948,0.1462,0.1895,5451
-0.035914,-0.028731,9.976943,,,,-0.002509,-0.001075,0.000509,-18.48,-14.58,-48.72,126.3948,0.1462,0.1895,5461
-0.035914,-0.028731,9.976943,,,,-0.001287,0.000147,-0.000713,-18.48,-14.58,-48.72,126.3948,0.1462,0.1895,5472
-0.028731,-0.043097,9.972155,,,,-0.000676,0.000147,0.000509,-18.72,-14.04,-48.96,126.4003,0.1442,0.1825,5481
-0.043097,-0.023943,9.960183,,,,-0.000676,-0.000464,-0.001935,-18.66,-13.98,-49.08,126.4003,0.1442,0.1825,5492
-0.043097,-0.023943,9.960183,,,,-0.001287,-0.002297,0.00112,-18.66,-13.98,-49.08,126.4003,0.1442,0.1825,5501
-0.043097,-0.01676,9.976943,,,,-0.001287,-0.002297,0.00112,-18.6,-13.62,-48.36,126.4003,0.1442,0.1825,5511
-0.043097,-0.01676,9.976943,,,,0.001767,0.000147,-0.001324,-18.6,-13.62,-48.36,126.4003,0.1442,0.1825,5522
-0.023943,-0.035914,9.964972,,,,-0.000676,0.000147,0.002341,-18.54,-13.26,-48,124.4193,0.1476,0.1821,5531
-0.023943,-0.035914,9.964972,,,,-0.000676,0.000147,0.002341,-18.54,-13.26,-48,124.4193,0.1476,0.1821,5541
-0.021548,-0.01676,9.972155,,,,-0.000676,0.000147,0.00112,-18.48,-13.44,-48.66,124.4193,0.1476,0.1821,5552
-0.028731,-0.011971,9.953,,,,0.000546,0.001368,0.002341,-19.2,-13.62,-49.14,124.4193,0.1476,0.1821,5561
-0.028731,-0.011971,9.953,,,,0.000546,0.001368,0.002341,-19.2,-13.62,-49.14,124.4193,0.1476,0.1821,5571
-0.047885,-0.035914,9.957788,,,,0.001156,0.000757,0.000509,-19.56,-13.98,-49.14,125.0373,0.1512,0.1761,5582
-0.019154,-0.035914,9.974549,,,,-0.002509,-0.001075,-0.000102,-18.9,-13.62,-48.96,125.0373,0.1512,0.1761,5591
-0.019154,-0.035914,9.974549,,,,-0.001287,-0.002908,0.000509,-18.9,-13.62,-48.96,125.0373,0.1512,0.1761,5601
-0.035914,-0.019154,9.976943,,,,0.001156,0.00259,0.00112,-18.96,-13.62,-48.6,125.0373,0.1512,0.1761,5612
-0.035914,-0.019154,9.976943,,,,0.001156,0.00259,0.00112,-18.96,-13.62,-48.6,125.0373,0.1512,0.1761,5622
-0.028731,-0.035914,9.967366,,,,-0.000676,0.000757,0.002341,-18.84,-13.74,-48.6,126.4135,0.1514,0.1814,5632
-0.043097,-0.03352,9.957788,,,,-0.001898,-0.001686,0.002952,-18.84,-13.62,-48.66,126.4135,0.1514,0.1814,5641
-0.026337,-0.031126,9.998491,,,,0.0036,0.001368,0.001731,-18.84,-13.62,-48.66,126.4135,0.1514,0.1814,5653
-0.026337,-0.031126,9.998491,,,,0.000546,-0.000464,-0.000102,-18.66,-13.98,-48.78,126.4135,0.1514,0.1814,5661
-0.043097,-0.026337,9.98652,,,,0.000546,-0.000464,-0.000102,-18.66,-13.98,-48.78,126.4135,0.1514,0.1814,5672
-0.03352,-0.021548,9.967366,,,,0.001767,0.00259,0.004174,-19.44,-14.64,-48.66,128.3074,0.1529,0.1797,5681
-0.031126,-0.021548,9.943423,,,,-0.000676,0.000147,0.000509,-19.14,-14.7,-48.54,128.3074,0.1529,0.1797,5692
-0.031126,-0.021548,9.943423,,,,-0.000676,0.000147,0.000509,-19.14,-14.7,-48.54,128.3074,0.1529,0.1797,5702
-0.028731,-0.035914,9.962578,,,,0.001156,0.000757,-0.000713,-18.9,-13.98,-48,128.3074,0.1529,0.1797,5711
-0.028731,-0.035914,9.962578,,,,0.001156,0.000757,-0.000713,-18.9,-13.98,-48,128.3074,0.1529,0.1797,5721
-0.028731,-0.035914,9.962578,,,,0.001156,0.000757,-0.000713,-18.9,-13.98,-48,128.3074,0.1529,0.1797,5731
-0.03352,-0.031126,9.974549,,,,0.000546,0.001368,-0.001935,-18.12,-13.8,-47.88,127.8856,0.1529,0.188,5742
-0.045491,-0.026337,9.962578,,,,-0.004341,0.001979,-0.002545,-18.12,-13.8,-47.88,127.8856,0.1529,0.188,5752
-0.028731,-0.019154,10.000886,,,,0.001767,0.001368,-0.001935,-18.9,-13.08,-48.06,127.8856,0.1529,0.188,5761
-0.028731,-0.019154,10.000886,,,,-0.000676,0.001368,0.00112,-18.9,-13.08,-48.06,127.8856,0.1529,0.188,5772
-0.035914,-0.040703,9.948212,,,,0.001156,-0.000464,-0.000102,-19.2,-13.08,-47.88,124.4274,0.1558,0.1871,5782
-0.040703,-0.021548,9.98652,,,,-0.000676,-0.000464,0.00112,-19.2,-13.08,-47.88,124.4274,0.1558,0.1871,5792
-0.047885,-0.019154,9.974549,,,,0.000546,-0.001075,0.00112,-19.26,-13.62,-48.18,124.4274,0.1558,0.1871,5802
-0.038308,-0.038308,9.96976,,,,-6.5E-05,0.000757,0.001731,-19.26,-13.62,-48.18,124.4274,0.1558,0.1871,5812
-0.031126,-0.028731,9.960183,,,,0.001156,0.000147,0.002341,-18.6,-14.04,-48.12,126.4128,0.1575,0.1897,5821
-0.031126,-0.028731,9.960183,,,,0.002378,-0.000464,-0.000102,-18.6,-14.04,-48.12,126.4128,0.1575,0.1897,5831
-0.023943,-0.014366,9.974549,,,,0.001156,0.001368,0.000509,-18.3,-13.86,-47.04,126.4128,0.1575,0.1897,5841
-0.031126,-0.014366,9.955395,,,,-0.000676,0.000147,0.002952,-18.3,-13.86,-47.04,126.4128,0.1575,0.1897,5851
-0.023943,-0.040703,9.972155,,,,-0.000676,0.000147,0.002952,-18.3,-13.86,-47.58,127.8825,0.1561,0.1946,5862
-0.035914,-0.011971,9.967366,,,,0.002989,0.000757,-0.001324,-18.3,-13.86,-47.58,127.8825,0.1561,0.1946,5872
-0.035914,-0.011971,9.967366,,,,-0.003731,0.000757,-0.003767,-19.2,-13.86,-48.06,127.8825,0.1561,0.1946,5882
-0.021548,-0.052674,9.993703,,,,0.000546,-0.000464,0.001731,-19.2,-13.86,-48.06,127.8825,0.1561,0.1946,5891
-0.038308,0,9.953,,,,0.000546,0.001979,0.00112,-20.22,-12.96,-48.36,123.0779,0.1583,0.1935,5901
-0.026337,-0.045491,9.972155,,,,0.002989,-0.001686,0.00112,-20.22,-12.96,-48.36,123.0779,0.1583,0.1935,5912
-0.03352,-0.043097,9.960183,,,,0.001767,0.000147,0.002341,-19.32,-13.14,-48.48,123.0779,0.1583,0.1935,5921
-0.03352,-0.043097,9.960183,,,,0.000546,0.001368,0.004785,-19.32,-13.14,-48.48,123.0779,0.1583,0.1935,5931
-0.038308,-0.026337,9.962578,,,,-6.5E-05,-0.001686,-0.001935,-18.42,-14.1,-47.88,127.8988,0.1619,0.1894,5941
-0.043097,-0.021548,9.981731,,,,0.002378,0.001979,0.002952,-18.42,-14.1,-47.88,127.8988,0.1619,0.1894,5951
-0.043097,-0.021548,9.981731,,,,0.001156,-0.001075,0.00112,-19.2,-14.28,-48.06,127.8988,0.1619,0.1894,5962
-0.038308,-0.011971,9.972155,,,,0.001767,0.000757,0.000509,-19.2,-14.28,-48.06,127.8988,0.1619,0.1894,5972
-0.040703,-0.028731,9.960183,,,,-6.5E-05,-0.001075,-0.003156,-19.5,-13.62,-48.72,126.4197,0.1621,0.1907,5981
-0.03352,-0.031126,9.96976,,,,-6.5E-05,0.000147,-0.001935,-19.5,-13.62,-48.72,126.4197,0.1621,0.1907,5992
-0.040703,-0.021548,9.974549,,,,-0.001287,0.000147,0.001731,-19.44,-13.62,-48.36,126.4197,0.1621,0.1907,6001
-0.040703,-0.021548,9.974549,,,,-6.5E-05,-0.001075,0.002341,-19.44,-13.62,-48.36,126.4197,0.1621,0.1907,6012
-0.043097,-0.026337,9.957788,,,,-0.001287,-0.002297,-0.003156,-19.44,-13.98,-47.82,126.4142,0.1606,0.1928,6021
-0.028731,-0.009577,9.948212,,,,0.001767,0.000757,0.002952,-19.44,-13.98,-47.82,126.4142,0.1606,0.1928,6031
-0.026337,-0.028731,9.957788,,,,0.001767,0.000757,0.002952,-19.02,-13.44,-48.42,126.4142,0.1606,0.1928,6041
-0.026337,-0.028731,9.957788,,,,-6.5E-05,-0.000464,-0.000713,-19.02,-13.44,-48.42,126.4142,0.1606,0.1928,6051
-0.028731,-0.028731,9.979338,,,,-0.001898,-0.000464,0.000509,-18.9,-13.68,-49.02,126.3996,0.1542,0.1966,6061
-0.026337,-0.023943,9.972155,,,,0.001156,0.000147,-0.000102,-18.9,-13.68,-49.02,126.3996,0.1542,0.1966,6071
-0.043097,-0.035914,9.96976,,,,-0.001287,-0.000464,0.00112,-19.2,-14.22,-48.36,126.3996,0.1542,0.1966,6082
-0.043097,-0.035914,9.96976,,,,-6.5E-05,-0.001686,-0.000713,-19.2,-14.22,-48.36,126.3996,0.1542,0.1966,6091
-0.023943,-0.011971,9.96976,,,,0.001156,0.001368,-0.000713,-18.9,-14.04,-48.6,126.4011,0.1557,0.1973,6102
-0.038308,-0.031126,9.955395,,,,-0.000676,-0.000464,0.000509,-18.9,-14.04,-48.6,126.4011,0.1557,0.1973,6111
-0.038308,-0.031126,9.955395,,,,0.000546,0.000147,-0.000102,-18.84,-13.8,-49.08,126.4011,0.1557,0.1973,6121
-0.035914,-0.026337,9.972155,,,,-0.000676,0.001368,0.000509,-18.84,-13.8,-49.08,126.4011,0.1557,0.1973,6131
-0.031126,-0.021548,9.967366,,,,-0.001287,-0.001686,-0.000102,-19.02,-13.8,-48.36,126.4015,0.1551,0.1959,6141
-0.031126,-0.023943,9.984126,,,,0.001767,0.000147,0.002341,-19.02,-13.8,-48.36,126.4015,0.1551,0.1959,6152
-0.045491,-0.03352,9.962578,,,,-0.001287,0.000757,0.00112,-18.78,-13.8,-48.24,126.4015,0.1551,0.1959,6162
-0.045491,-0.03352,9.962578,,,,-0.000676,-0.000464,-0.001324,-18.78,-13.8,-48.24,126.4015,0.1551,0.1959,6171
-0.040703,-0.026337,9.976943,,,,-0.001287,-0.000464,0.00112,-19.26,-13.62,-48.78,126.3997,0.1525,0.1942,6181
-0.019154,-0.03352,9.962578,,,,-6.5E-05,-0.000464,0.003563,-19.26,-13.62,-48.78,126.3997,0.1525,0.1942,6192
-0.028731,-0.014366,9.950606,,,,0.000546,0.004423,0.00112,-19.32,-13.56,-48.6,126.3997,0.1525,0.1942,6201
-0.028731,-0.014366,9.950606,,,,0.002378,0.001368,-0.000713,-19.32,-13.56,-48.6,126.3997,0.1525,0.1942,6211
-0.038308,-0.011971,9.943423,,,,-0.001287,0.000147,-0.000102,-19.32,-13.38,-48.42,124.4132,0.1518,0.1934,6222
-0.019154,-0.01676,9.976943,,,,-0.003731,0.000147,-0.000713,-19.32,-13.38,-48.42,124.4132,0.1518,0.1934,6231
-0.043097,-0.03352,9.962578,,,,0.001156,-0.001686,0.000509,-19.02,-13.74,-48.6,124.4132,0.1518,0.1934,6242
-0.038308,-0.031126,9.976943,,,,-0.000676,0.000147,-0.000102,-19.02,-13.74,-48.6,124.4132,0.1518,0.1934,6252
-0.038308,-0.014366,9.950606,,,,-0.001287,-0.001686,-0.000102,-18.9,-14.04,-48.3,126.3983,0.1506,0.1925,6262
-0.038308,-0.014366,9.950606,,,,-0.001287,-0.001686,-0.000102,-18.9,-14.04,-48.3,126.3983,0.1506,0.1925,6272
-0.021548,-0.023943,9.960183,,,,0.001156,0.000757,0.001731,-19.5,-14.34,-48.3,126.3983,0.1506,0.1925,6282
-0.040703,-0.035914,9.964972,,,,-6.5E-05,0.00259,0.002341,-19.32,-14.52,-48.66,126.3983,0.1506,0.1925,6292
-0.043097,-0.028731,9.972155,,,,-6.5E-05,-0.001075,0.002341,-19.32,-14.52,-48.66,126.3983,0.1506,0.1925,6301
-0.031126,-0.021548,9.964972,,,,0.001767,0.001979,0.001731,-19.14,-14.4,-48.9,126.4,0.1508,0.1916,6312
-0.055068,-0.026337,9.955395,,,,0.000546,0.000147,0.002341,-19.14,-14.4,-48.9,126.4,0.1508,0.1916,6322
-0.055068,-0.026337,9.955395,,,,-6.5E-05,-0.001075,-0.001324,-19.38,-14.22,-48,126.4,0.1508,0.1916,6332
-0.043097,-0.026337,9.950606,,,,-0.001287,-0.000464,-0.001324,-19.38,-14.22,-48,126.4,0.1508,0.1916,6342
-0.038308,-0.014366,9.976943,,,,0.001767,0.003812,0.00112,-19.44,-13.62,-47.76,126.397,0.1496,0.1922,6351
-0.026337,-0.03352,9.941029,,,,0.001767,-0.005351,-0.001324,-19.44,-13.62,-47.76,126.397,0.1496,0.1922,6362
-0.026337,-0.03352,9.941029,,,,0.001767,-0.005351,-0.001324,-19.32,-13.74,-48.06,126.397,0.1496,0.1922,6372
-0.040703,-0.021548,9.974549,,,,-0.000676,0.001368,0.000509,-19.32,-13.74,-48.06,126.397,0.1496,0.1922,6382
-0.047885,-0.040703,9.960183,,,,-0.001287,0.000757,0.00112,-18.72,-14.46,-48.24,126.3749,0.1435,0.2025,6392
-0.031126,-0.031126,9.976943,,,,0.001767,0.000147,-0.000713,-18.72,-14.46,-48.24,126.3749,0.1435,0.2025,6401
-0.040703,-0.01676,9.984126,,,,0.000546,-0.001686,0.002952,-18.18,-14.4,-48.84,126.3749,0.1435,0.2025,6411
-0.040703,-0.035914,9.964972,,,,-6.5E-05,0.001979,-0.001935,-18.18,-14.4,-48.84,126.3749,0.1435,0.2025,6422
-0.040703,-0.035914,9.964972,,,,0.000546,0.000757,-0.000102,-18.78,-14.4,-49.32,126.3644,0.1389,0.2046,6431
-0.028731,-0.03352,9.93624,,,,-0.000676,0.001979,0.001731,-19.14,-13.8,-48.66,126.3644,0.1389,0.2046,6441
-0.01676,-0.01676,9.957788,,,,-0.001898,-0.002908,0.00112,-19.14,-13.8,-48.66,126.3644,0.1389,0.2046,6451
-0.045491,-0.021548,9.974549,,,,-0.001898,0.00259,-0.000102,-18.96,-13.14,-48.3,126.3644,0.1389,0.2046,6462
-0.03352,-0.023943,9.957788,,,,-0.001898,0.00259,-0.000102,-18.96,-13.14,-48.3,126.3644,0.1389,0.2046,6472
-0.03352,-0.023943,9.957788,,,,-0.000676,0.001979,0.000509,-18.72,-13.02,-47.94,124.3704,0.138,0.21,6481
-0.03352,-0.019154,9.957788,,,,0.002378,-0.000464,0.000509,-18.48,-13.14,-48.24,124.3704,0.138,0.21,6492
-0.038308,-0.028731,9.960183,,,,0.001767,0.001979,0.001731,-18.48,-13.14,-48.24,124.3704,0.138,0.21,6501
-0.035914,-0.03352,9.948212,,,,-0.00312,-0.001686,-0.000102,-19.2,-13.62,-48.18,124.3704,0.138,0.21,6512
-0.035914,-0.03352,9.948212,,,,0.001156,-0.000464,-0.000713,-19.2,-13.62,-48.18,124.3704,0.138,0.21,6522
-0.026337,-0.028731,9.984126,,,,0.000546,0.000147,-0.000713,-19.38,-14.4,-47.58,126.341,0.1291,0.2113,6531
-0.043097,-0.026337,9.964972,,,,-6.5E-05,-0.001075,-0.000102,-19.38,-14.4,-47.58,126.341,0.1291,0.2113,6541
-0.038308,-0.028731,9.953,,,,-0.001287,-0.002908,-0.000713,-19.44,-13.8,-47.88,126.341,0.1291,0.2113,6551
-0.023943,-0.023943,9.953,,,,-0.002509,0.000147,0.000509,-19.44,-13.8,-47.88,126.341,0.1291,0.2113,6562
-0.023943,-0.023943,9.953,,,,-0.001898,-0.002297,0.000509,-18.9,-12.84,-47.94,124.3372,0.1206,0.2131,6571
-0.009577,-0.023943,9.974549,,,,0.000546,0.001979,0.00112,-18.9,-12.84,-47.94,124.3372,0.1206,0.2131,6582
-0.05028,-0.038308,9.972155,,,,-6.5E-05,0.001979,-0.000713,-18.78,-12.96,-47.94,124.3372,0.1206,0.2131,6591
-0.047885,-0.026337,9.960183,,,,-0.001287,-0.002908,-0.000102,-18.78,-12.96,-47.94,124.3372,0.1206,0.2131,6602
-0.011971,-0.038308,9.955395,,,,-0.000676,0.00259,0.000509,-19.44,-13.92,-48.3,126.3133,0.1186,0.2202,6611
-0.011971,-0.038308,9.955395,,,,-0.000676,0.00259,0.000509,-19.44,-13.92,-48.3,126.3133,0.1186,0.2202,6621
-0.03352,-0.019154,9.955395,,,,-6.5E-05,-0.001686,0.00112,-19.08,-13.56,-48.72,126.3133,0.1186,0.2202,6632
-0.043097,-0.031126,9.962578,,,,0.001156,-0.001075,0.00112,-19.2,-13.86,-48.3,126.3133,0.1186,0.2202,6642
-0.043097,-0.031126,9.962578,,,,0.005432,0.001368,-0.003156,-19.2,-13.86,-48.3,126.3133,0.1186,0.2202,6652
-0.03352,-0.01676,9.950606,,,,0.002378,0.00259,0.00112,-19.5,-13.56,-48.66,126.3188,0.1257,0.2242,6662
-0.023943,-0.031126,9.976943,,,,-0.001287,0.000757,-0.000102,-19.5,-13.56,-48.66,126.3188,0.1257,0.2242,6672
-0.023943,-0.031126,9.976943,,,,0.001767,0.001368,0.000509,-19.56,-13.44,-48.48,126.3188,0.1257,0.2242,6681
-0.028731,-0.035914,9.962578,,,,0.001767,0.001368,0.000509,-19.56,-13.44,-48.48,126.3188,0.1257,0.2242,6691
-0.03352,-0.004789,9.950606,,,,-0.001898,-0.001686,-0.000713,-19.38,-13.5,-48.54,124.3355,0.128,0.2246,6702
-0.031126,-0.040703,9.955395,,,,-0.001287,-0.003519,0.000509,-19.2,-13.5,-48.54,124.3355,0.128,0.2246,6711
-0.031126,-0.040703,9.955395,,,,-6.5E-05,0.001979,0.002341,-19.2,-13.5,-48.54,124.3355,0.128,0.2246,6722
-0.038308,-0.031126,9.972155,,,,0.001156,0.001979,0.002952,-18.72,-13.44,-48.36,124.3525,0.1349,0.2209,6731
-0.035914,-0.021548,9.953,,,,-0.002509,-0.002297,-0.000713,-18.72,-13.44,-48.36,124.3525,0.1349,0.2209,6741
-0.031126,-0.028731,9.962578,,,,-0.001287,-0.001075,0.000509,-18.48,-13.8,-48.48,124.3525,0.1349,0.2209,6751
-0.05028,-0.026337,9.953,,,,-0.000676,0.000757,-0.001324,-17.82,-14.04,-48.36,124.3525,0.1349,0.2209,6762
-0.05028,-0.026337,9.953,,,,-6.5E-05,0.001979,0.000509,-17.82,-14.04,-48.36,124.3525,0.1349,0.2209,6772
-0.038308,-0.011971,9.962578,,,,-0.000676,0.000757,0.002341,-18.48,-14.52,-48.06,129.7444,0.1442,0.22,6782
-0.035914,-0.021548,9.948212,,,,-6.5E-05,0.000757,-0.000102,-18.36,-14.4,-48.06,129.7444,0.1442,0.22,6791
-0.035914,-0.021548,9.948212,,,,-0.006785,-0.000464,0.000509,-18.36,-14.4,-48.06,129.7444,0.1442,0.22,6802
-0.038308,-0.026337,9.948212,,,,-0.006785,-0.000464,0.000509,-18.6,-13.98,-48.72,129.7444,0.1442,0.22,6811
-0.011971,-0.045491,9.967366,,,,0.000546,-0.001686,0.002341,-18.6,-13.98,-48.72,129.7444,0.1442,0.22,6822
-0.047885,-0.026337,9.953,,,,0.002989,0.001979,0.002341,-18.66,-13.44,-48.72,124.3837,0.1509,0.2175,6831
-0.03352,-0.026337,9.962578,,,,-0.001898,0.000147,0.001731,-18.66,-13.44,-48.72,124.3837,0.1509,0.2175,6842
-0.03352,-0.026337,9.962578,,,,-0.000676,-0.002908,-0.000102,-18.78,-13.14,-48.24,124.3837,0.1509,0.2175,6852
-0.023943,-0.007183,9.953,,,,-6.5E-05,0.004423,0.000509,-18.72,-13.26,-48.18,124.3837,0.1509,0.2175,6861
-0.026337,-0.014366,9.955395,,,,-0.001287,-0.000464,-0.0056,-18.72,-13.26,-48.18,124.3837,0.1509,0.2175,6873
-0.035914,-0.05028,9.967366,,,,0.002989,-0.002297,-0.002545,-19.2,-13.86,-48.54,126.3837,0.1564,0.2125,6882
-0.035914,-0.05028,9.967366,,,,0.002989,-0.002297,-0.002545,-19.2,-13.86,-48.54,126.3837,0.1564,0.2125,6891
-0.057463,-0.019154,9.962578,,,,0.002378,-0.001075,0.00112,-19.38,-14.1,-48.42,126.3837,0.1564,0.2125,6901
-0.021548,-0.026337,9.967366,,,,-0.000676,-0.001075,-0.000102,-19.38,-14.1,-48.42,126.3837,0.1564,0.2125,6911
-0.047885,-0.028731,9.964972,,,,0.000546,0.00259,-0.001935,-18.84,-14.4,-47.76,126.3744,0.1526,0.2152,6923
-0.047885,-0.028731,9.964972,,,,0.000546,-0.001075,0.002341,-18.84,-14.4,-47.76,126.3744,0.1526,0.2152,6931
-0.028731,-0.021548,9.943423,,,,0.002378,0.000147,0.002341,-18.66,-14.4,-47.7,126.3744,0.1526,0.2152,6941
-0.035914,-0.01676,9.948212,,,,0.001767,0.001368,0.004174,-18.66,-14.4,-47.7,126.3744,0.1526,0.2152,6951
-0.043097,-0.03352,9.974549,,,,0.002378,0.001979,0.004785,-19.32,-14.04,-48,126.3713,0.1446,0.207,6961
-0.03352,-0.031126,9.943423,,,,-0.002509,0.00259,0.001731,-19.32,-14.04,-48,126.3713,0.1446,0.207,6972
-0.03352,-0.031126,9.943423,,,,0.004211,-0.000464,-0.000713,-19.68,-14.4,-47.7,126.3713,0.1446,0.207,6981
-0.03352,-0.023943,9.962578,,,,0.002378,0.003812,0.001731,-19.68,-14.4,-47.7,126.3713,0.1446,0.207,6992
-0.03352,-0.019154,9.974549,,,,0.001156,0.001979,-0.001324,-19.02,-14.46,-47.88,126.3751,0.1462,0.206,7002
-0.040703,-0.028731,9.953,,,,0.001156,0.001979,-0.001324,-19.02,-14.46,-47.88,126.3751,0.1462,0.206,7011
-0.045491,-0.007183,9.962578,,,,0.001156,-0.001075,0.000509,-19.26,-14.28,-48.18,126.3751,0.1462,0.206,7021
-0.021548,-0.031126,9.984126,,,,-0.001287,0.001368,-0.001935,-19.5,-14.1,-48.06,126.3751,0.1462,0.206,7031
-0.021548,-0.031126,9.984126,,,,-6.5E-05,-0.002908,0.001731,-19.5,-14.1,-48.06,126.3751,0.1462,0.206,7041
-0.035914,-0.011971,9.953,,,,0.001156,0.001368,0.002952,-19.44,-13.56,-48.12,126.3691,0.1436,0.2075,7052
-0.035914,-0.043097,9.962578,,,,-6.5E-05,-0.001075,-0.001324,-19.44,-13.56,-48.12,126.3691,0.1436,0.2075,7061
-0.040703,-0.026337,9.945818,,,,-0.00312,-0.001075,-0.000713,-19.2,-13.8,-48.42,126.3691,0.1436,0.2075,7072
-0.040703,-0.026337,9.945818,,,,-0.00312,-0.001686,0.000509,-19.2,-13.8,-48.42,126.3691,0.1436,0.2075,7081
-0.043097,-0.038308,9.972155,,,,-6.5E-05,0.000147,-0.001324,-18.9,-13.86,-48.78,126.3656,0.1417,0.2075,7092
-0.038308,-0.019154,9.953,,,,-6.5E-05,0.000147,-0.001324,-18.9,-13.86,-48.78,126.3656,0.1417,0.2075,7101
-0.023943,-0.031126,9.964972,,,,-0.001898,-0.002297,-0.001324,-18.96,-13.8,-48.54,126.3656,0.1417,0.2075,7112
-0.026337,-0.019154,9.960183,,,,-6.5E-05,-0.005351,-0.000713,-18.96,-13.8,-48.54,126.3656,0.1417,0.2075,7122
-0.026337,-0.019154,9.960183,,,,0.000546,-0.002908,0.003563,-19.26,-13.68,-48.6,126.3576,0.1393,0.2107,7132
-0.035914,-0.021548,9.964972,,,,0.002378,0.004423,0.000509,-19.26,-13.68,-48.6,126.3576,0.1393,0.2107,7142
-0.038308,-0.021548,9.926663,,,,0.000546,0.001979,0.001731,-19.62,-13.56,-48.66,126.3576,0.1393,0.2107,7151
-0.03352,-0.026337,9.967366,,,,-0.003731,0.000757,-0.000102,-19.62,-13.56,-48.66,126.3576,0.1393,0.2107,7161
-0.040703,-0.019154,9.972155,,,,-0.001898,0.000757,0.004174,-18.96,-13.44,-48.84,124.3637,0.1365,0.2133,7171
-0.040703,-0.019154,9.972155,,,,0.001767,-0.001075,0.003563,-18.96,-13.44,-48.84,124.3637,0.1365,0.2133,7182
-0.007183,-0.035914,9.955395,,,,-6.5E-05,-0.000464,-0.001935,-18.72,-13.08,-48.36,124.3637,0.1365,0.2133,7192
-0.031126,-0.014366,9.96976,,,,-0.001287,0.000147,-0.001935,-18.72,-13.08,-48.36,124.3637,0.1365,0.2133,7202
-0.035914,-0.026337,9.955395,,,,-0.002509,0.000147,0.002341,-19.2,-13.02,-47.94,124.3643,0.1364,0.2129,7211
-0.043097,-0.026337,9.979338,,,,-0.000676,-0.001075,0.00112,-19.2,-13.02,-47.94,124.3643,0.1364,0.2129,7222
-0.043097,-0.026337,9.979338,,,,-0.000676,0.001368,0.002341,-19.32,-13.68,-48.06,124.3643,0.1364,0.2129,7231
-0.021548,-0.028731,9.962578,,,,0.002989,0.001368,0.002952,-19.32,-13.68,-48.06,124.3643,0.1364,0.2129,7241
-0.031126,-0.031126,9.979338,,,,-6.5E-05,-0.001075,0.000509,-19.68,-14.46,-47.88,124.9733,0.1361,0.211,7252
-0.035914,-0.021548,9.950606,,,,-6.5E-05,-0.001075,0.000509,-19.68,-14.46,-47.88,124.9733,0.1361,0.211,7261
-0.035914,-0.021548,9.950606,,,,0.001767,-0.004129,0.002341,-19.68,-14.28,-48.06,124.9733,0.1361,0.211,7272
-0.028731,-0.021548,9.976943,,,,-0.001287,-0.004129,0.001731,-19.68,-14.28,-48.06,124.9733,0.1361,0.211,7282
-0.023943,-0.021548,9.964972,,,,0.002378,0.00259,0.000509,-19.8,-13.62,-48.42,124.9731,0.1355,0.2103,7291
-0.043097,-0.03352,9.967366,,,,0.000546,0.000147,0.00112,-19.8,-13.62,-48.42,124.9731,0.1355,0.2103,7301
-0.043097,-0.03352,9.967366,,,,-0.000676,0.001979,0.00112,-19.02,-14.16,-48.24,124.9731,0.1355,0.2103,7311
-0.043097,-0.028731,9.98652,,,,-0.002509,-0.002908,-0.001935,-19.02,-14.16,-48.24,124.9731,0.1355,0.2103,7321
-0.057463,-0.011971,9.962578,,,,-0.002509,-0.001075,-0.000102,-18.3,-14.46,-47.64,127.841,0.1394,0.2057,7331
-0.040703,-0.03352,9.976943,,,,0.002989,0.000757,-0.001324,-18.3,-14.46,-47.64,127.841,0.1394,0.2057,7341
-0.026337,-0.023943,9.960183,,,,0.002989,0.000757,-0.001324,-19.26,-14.22,-47.46,127.841,0.1394,0.2057,7352
-0.026337,-0.023943,9.960183,,,,0.002378,0.003201,0.003563,-19.26,-14.22,-47.46,127.841,0.1394,0.2057,7361
-0.03352,-0.035914,9.962578,,,,-0.001287,0.000757,-0.000102,-19.38,-14.04,-47.46,126.3657,0.1399,0.2057,7371
-0.021548,-0.021548,9.964972,,,,0.002989,-0.001686,0.001731,-19.38,-14.04,-47.46,126.3657,0.1399,0.2057,7382
-0.03352,-0.028731,9.950606,,,,-6.5E-05,0.001368,0.000509,-18.9,-13.98,-47.64,126.3657,0.1399,0.2057,7392
-0.03352,-0.028731,9.950606,,,,0.001767,0.000147,-0.000713,-18.9,-13.98,-47.64,126.3657,0.1399,0.2057,7401
-0.05028,-0.021548,9.957788,,,,0.002378,-0.001686,0.000509,-18.84,-14.04,-48.06,126.3688,0.1389,0.2014,7411
-0.040703,-0.023943,9.96976,,,,-0.001898,0.001979,0.001731,-18.84,-14.04,-48.06,126.3688,0.1389,0.2014,7421
-0.045491,-0.011971,9.957788,,,,-0.001287,0.001368,0.001731,-18.72,-13.98,-47.7,126.3688,0.1389,0.2014,7431
-0.06704,-0.021548,9.945818,,,,0.001767,-0.001075,0.002341,-18.72,-13.98,-47.7,126.3688,0.1389,0.2014,7442
-0.06704,-0.021548,9.945818,,,,-0.000676,-0.001686,-0.000713,-19.08,-13.86,-48,126.3679,0.1367,0.1991,7452
-0.021548,-0.011971,9.98652,,,,0.002378,0.001368,-0.000102,-19.14,-13.74,-48.18,126.3679,0.1367,0.1991,7461
-0.026337,-0.021548,9.953,,,,0.001767,-0.001075,0.000509,-19.14,-13.74,-48.18,126.3679,0.1367,0.1991,7471
-0.043097,-0.03352,9.972155,,,,0.001156,0.000757,-0.000102,-19.02,-13.44,-48.48,126.3679,0.1367,0.1991,7481
-0.043097,-0.03352,9.972155,,,,0.000546,0.003201,-0.000102,-19.02,-13.44,-48.48,126.3679,0.1367,0.1991,7492
-0.047885,-0.028731,9.981731,,,,0.000546,0.003201,-0.000102,-19.08,-13.8,-48.6,126.3572,0.129,0.1972,7501
-0.040703,-0.031126,9.984126,,,,0.002378,-0.002297,0.001731,-19.08,-13.8,-48.6,126.3572,0.129,0.1972,7511
-0.031126,-0.021548,9.967366,,,,0.000546,-0.000464,0.001731,-19.32,-14.28,-48.66,126.3572,0.129,0.1972,7521
-0.031126,-0.021548,9.967366,,,,-0.002509,-0.001075,0.003563,-19.32,-14.28,-48.66,126.3572,0.129,0.1972,7532
-0.035914,-0.038308,9.981731,,,,-0.001287,0.001368,-0.000713,-18.84,-13.98,-49.14,126.3633,0.1306,0.1943,7542
-0.026337,-0.031126,9.957788,,,,0.001767,0.000757,0.001731,-18.84,-13.98,-49.14,126.3633,0.1306,0.1943,7552
-0.014366,-0.014366,9.964972,,,,-0.001287,0.005644,-0.000102,-19.2,-13.74,-48.66,126.3633,0.1306,0.1943,7561
-0.055068,-0.01676,9.953,,,,-0.003731,-0.000464,-0.000102,-19.2,-13.74,-48.66,126.3633,0.1306,0.1943,7572
-0.055068,-0.01676,9.953,,,,0.002378,0.000147,-0.001935,-19.68,-13.92,-48.24,124.9842,0.1317,0.195,7581
-0.031126,-0.01676,9.979338,,,,-0.000676,0.001979,-0.001935,-19.68,-13.92,-48.24,124.9842,0.1317,0.195,7592
-0.038308,-0.023943,9.974549,,,,-6.5E-05,0.000757,-0.000713,-19.2,-14.22,-47.82,124.9842,0.1317,0.195,7601
-0.047885,-0.038308,9.962578,,,,0.000546,-0.001075,-0.003156,-19.2,-14.22,-47.82,124.9842,0.1317,0.195,7612
-0.035914,-0.011971,9.98652,,,,0.001767,0.001979,0.00112,-19.98,-14.28,-46.98,124.9948,0.1358,0.1913,7621
-0.035914,-0.011971,9.98652,,,,-0.00312,-0.001075,-0.000102,-19.98,-14.28,-46.98,124.9948,0.1358,0.1913,7631
-0.03352,-0.038308,9.967366,,,,-0.00312,-0.001075,-0.000102,-19.8,-14.16,-47.64,124.9948,0.1358,0.1913,7641
-0.043097,-0.031126,9.976943,,,,0.000546,-0.002297,0.000509,-19.8,-14.16,-47.64,124.9948,0.1358,0.1913,7651
-0.019154,-0.023943,9.96976,,,,-0.001287,0.000757,0.000509,-19.02,-14.22,-48.42,126.3805,0.141,0.1944,7661
-0.019154,-0.019154,9.976943,,,,-0.001287,-0.004129,0.001731,-19.02,-14.22,-48.42,126.3805,0.141,0.1944,7671
-0.019154,-0.019154,9.976943,,,,0.001767,0.001368,-0.000102,-19.02,-14.34,-48.18,126.3805,0.141,0.1944,7681
-0.026337,-0.007183,9.957788,,,,-0.000676,0.000147,0.003563,-19.02,-14.34,-48.18,126.3805,0.141,0.1944,7692
-0.026337,-0.021548,9.957788,,,,0.000546,-0.001075,0.00112,-18.66,-13.98,-47.82,126.3947,0.1464,0.1898,7702
-0.040703,-0.03352,9.955395,,,,-6.5E-05,0.000147,0.000509,-18.66,-13.98,-47.82,126.3947,0.1464,0.1898,7712
-0.019154,-0.026337,9.941029,,,,-0.003731,0.001979,0.00112,-18.06,-13.8,-48.06,126.3947,0.1464,0.1898,7721
-0.019154,-0.026337,9.941029,,,,-0.000676,-0.005351,-0.001324,-18.06,-13.8,-48.06,126.3947,0.1464,0.1898,7732
-0.03352,-0.014366,9.950606,,,,-0.000676,0.00259,0.003563,-18.24,-13.74,-47.88,127.8758,0.1483,0.1898,7742
-0.043097,-0.023943,9.948212,,,,-0.000676,-0.002908,0.001731,-18.24,-13.74,-47.88,127.8758,0.1483,0.1898,7751
-0.023943,-0.021548,9.981731,,,,-6.5E-05,-0.002908,0.000509,-18.96,-13.5,-47.88,127.8758,0.1483,0.1898,7762
-0.047885,-0.021548,9.950606,,,,0.002378,0.001368,-0.000713,-18.96,-13.5,-47.88,127.8758,0.1483,0.1898,7772
-0.047885,-0.021548,9.950606,,,,0.001767,0.001368,0.00112,-18.84,-13.86,-48.54,126.4004,0.1517,0.1926,7782
-0.038308,-0.023943,9.976943,,,,0.001767,0.001368,0.00112,-18.84,-13.86,-48.54,126.4004,0.1517,0.1926,7791
-0.035914,-0.021548,9.93624,,,,-0.000676,0.000147,0.000509,-19.08,-13.98,-48.18,126.4004,0.1517,0.1926,7801
-0.040703,-0.031126,9.962578,,,,-0.001898,-0.001075,-0.000713,-19.08,-13.98,-48.18,126.4004,0.1517,0.1926,7812
-0.023943,-0.023943,9.953,,,,0.000546,-0.000464,-0.000102,-19.86,-14.1,-47.34,125.024,0.1536,0.1899,7822
-0.023943,-0.023943,9.953,,,,0.002378,-0.002908,-0.000102,-19.86,-14.1,-47.34,125.024,0.1536,0.1899,7831
-0.043097,-0.040703,9.964972,,,,-0.000676,0.000147,-0.001324,-19.62,-14.52,-48,125.024,0.1536,0.1899,7842
-0.035914,-0.028731,9.96976,,,,-6.5E-05,0.003201,0.003563,-19.62,-14.52,-48,125.024,0.1536,0.1899,7851
-0.031126,-0.026337,9.957788,,,,-0.00312,-0.001686,0.001731,-19.44,-14.7,-48.78,128.2936,0.1512,0.1886,7862
-0.043097,-0.035914,9.962578,,,,-0.002509,-0.003519,0.000509,-19.44,-14.7,-48.78,128.2936,0.1512,0.1886,7872
-0.043097,-0.035914,9.962578,,,,-6.5E-05,-0.002297,0.002341,-20.04,-14.7,-47.76,128.2936,0.1512,0.1886,7882
-0.05028,-0.011971,9.953,,,,-0.000676,0.000757,0.000509,-20.04,-14.7,-47.76,128.2936,0.1512,0.1886,7892
-0.031126,0.002394,9.953,,,,-0.000676,0.000757,0.000509,-19.2,-14.1,-47.16,126.4019,0.1538,0.1935,7901
-0.031126,0.002394,9.953,,,,-6.5E-05,-0.002297,0.000509,-19.2,-14.1,-47.16,126.4019,0.1538,0.1935,7911
-0.045491,-0.026337,9.979338,,,,0.001767,0.000147,0.002341,-18.54,-14.46,-47.46,126.4019,0.1538,0.1935,7922
-0.026337,-0.023943,9.964972,,,,-6.5E-05,0.000147,0.000509,-18.54,-14.46,-47.46,126.4019,0.1538,0.1935,7932
-0.031126,-0.031126,9.953,,,,-0.000676,0.001368,-0.000102,-19.02,-14.46,-47.34,126.3949,0.1512,0.1959,7942
-0.031126,-0.03352,9.960183,,,,0.000546,-0.001075,0.00112,-19.02,-14.46,-47.34,126.3949,0.1512,0.1959,7951
-0.031126,-0.03352,9.960183,,,,0.002378,0.000147,0.001731,-19.8,-13.8,-47.16,126.3949,0.1512,0.1959,7962
-0.019154,-0.009577,9.941029,,,,-0.001287,-0.001075,-0.000102,-19.8,-13.8,-47.16,126.3949,0.1512,0.1959,7971
-0.040703,-0.028731,9.962578,,,,-0.001287,-0.001075,-0.000102,-19.56,-13.5,-47.64,123.0675,0.1527,0.1946,7981
-0.023943,-0.031126,9.957788,,,,-0.000676,-0.001075,-0.000713,-19.56,-13.5,-47.64,123.0675,0.1527,0.1946,7992
-0.023943,-0.031126,9.957788,,,,-0.000676,-0.001075,-0.000713,-19.02,-13.62,-48.36,123.0675,0.1527,0.1946,8002
-0.03352,-0.03352,9.984126,,,,-0.000676,0.000757,0.001731,-19.02,-13.62,-48.36,123.0675,0.1527,0.1946,8012
-0.052674,-0.019154,9.93624,,,,-0.004341,0.001368,0.002341,-18.9,-14.28,-48.78,126.4021,0.154,0.1942,8021
-0.043097,-0.038308,9.974549,,,,-0.001287,-0.003519,0.004174,-18.9,-14.28,-48.78,126.4021,0.154,0.1942,8031
-0.043097,-0.038308,9.974549,,,,0.001156,0.000757,0.000509,-19.02,-14.7,-48.42,126.4021,0.154,0.1942,8042
-0.035914,-0.014366,9.941029,,,,0.001156,0.000147,0.003563,-19.02,-14.7,-48.42,126.4021,0.154,0.1942,8051
-0.023943,-0.019154,9.953,,,,0.001767,0.000147,0.00112,-19.02,-14.34,-47.4,126.3944,0.1527,0.1984,8061
-0.038308,-0.011971,9.931452,,,,-0.000676,0.00259,0.001731,-19.02,-14.34,-47.4,126.3944,0.1527,0.1984,8071
-0.038308,-0.045491,9.964972,,,,-0.000676,0.00259,0.001731,-18.72,-13.8,-47.58,126.3944,0.1527,0.1984,8082
-0.038308,-0.045491,9.964972,,,,0.000546,-0.001075,0.00112,-18.72,-13.8,-47.58,126.3944,0.1527,0.1984,8091
-0.038308,-0.019154,9.967366,,,,0.000546,-0.001686,0.00112,-18.72,-13.86,-47.64,126.3764,0.145,0.2032,8101
-0.038308,-0.023943,9.957788,,,,-0.001898,0.000147,0.003563,-18.72,-13.86,-47.64,126.3764,0.145,0.2032,8111
-0.052674,-0.004789,9.964972,,,,-6.5E-05,-0.000464,-0.001935,-19.2,-14.04,-48.18,126.3764,0.145,0.2032,8121
-0.026337,-0.021548,9.933846,,,,-6.5E-05,0.000147,0.000509,-19.2,-14.04,-48.18,126.3764,0.145,0.2032,8131
-0.026337,-0.021548,9.933846,,,,-0.000676,-0.001075,0.000509,-19.26,-13.44,-49.02,124.3739,0.1359,0.2039,8141
-0.026337,-0.019154,9.972155,,,,-0.000676,0.000147,0.00112,-19.26,-13.44,-49.02,124.3739,0.1359,0.2039,8151
-0.031126,-0.011971,9.960183,,,,0.002378,0.000147,0.000509,-18.84,-12.78,-48.66,124.3739,0.1359,0.2039,8161
-0.043097,-0.021548,9.957788,,,,0.002378,0.004423,-0.000102,-18.84,-12.78,-48.66,124.3739,0.1359,0.2039,8172
-0.043097,-0.021548,9.957788,,,,0.001156,0.00259,0.003563,-18.72,-13.86,-48.48,126.347,0.1304,0.208,8182
-0.035914,-0.038308,9.948212,,,,-6.5E-05,-0.002297,-0.001324,-18.72,-13.86,-48.48,126.347,0.1304,0.208,8191
-0.035914,-0.011971,9.950606,,,,0.000546,0.000147,0.00112,-19.26,-14.46,-48.72,126.347,0.1304,0.208,8201
-0.019154,-0.040703,9.953,,,,-0.001287,0.001368,-0.001935,-19.26,-14.46,-48.72,126.347,0.1304,0.208,8211
-0.03352,-0.028731,9.962578,,,,0.001156,-0.001075,0.002341,-19.2,-13.98,-48.3,126.3524,0.1318,0.2054,8222
-0.03352,-0.028731,9.962578,,,,-0.002509,0.000147,-0.000102,-19.2,-13.98,-48.3,126.3524,0.1318,0.2054,8232
-0.035914,-0.028731,9.950606,,,,-0.001898,-0.001075,-0.000102,-18.42,-13.68,-48.06,126.3524,0.1318,0.2054,8241
-0.038308,-0.002394,9.962578,,,,-0.001898,-0.001075,-0.000102,-18.42,-13.68,-48.06,126.3524,0.1318,0.2054,8251
-0.040703,-0.009577,9.953,,,,0.001767,0.001979,0.001731,-18.72,-13.68,-48.12,126.3557,0.1337,0.2053,8263
-0.03352,-0.021548,9.984126,,,,0.001156,-0.002297,0.002341,-18.72,-13.68,-48.12,126.3557,0.1337,0.2053,8271
-0.03352,-0.021548,9.984126,,,,0.000546,0.001979,0.003563,-19.08,-13.86,-47.64,126.3557,0.1337,0.2053,8281
-0.031126,-0.011971,9.93624,,,,-0.000676,-0.001075,0.002341,-19.08,-13.86,-47.64,126.3557,0.1337,0.2053,8292
-0.026337,-0.03352,9.950606,,,,-0.000676,0.001979,-0.000713,-19.02,-14.04,-48,126.3572,0.1349,0.2056,8301
-0.047885,-0.043097,9.964972,,,,0.000546,-0.001075,0.002341,-19.26,-14.1,-47.82,126.3572,0.1349,0.2056,8312
-0.047885,-0.043097,9.964972,,,,-0.001287,0.000147,-0.000713,-19.26,-14.1,-47.82,126.3572,0.1349,0.2056,8321
-0.040703,-0.031126,9.957788,,,,-6.5E-05,-0.001075,0.002341,-19.44,-13.44,-47.88,126.3572,0.1349,0.2056,8331
-0.03352,-0.031126,9.962578,,,,-0.001287,-0.001686,0.000509,-19.44,-13.44,-47.88,126.3572,0.1349,0.2056,8342
-0.055068,-0.01676,9.964972,,,,-0.001287,-0.001686,0.000509,-19.26,-13.5,-48.84,124.3637,0.133,0.2082,8351
-0.047885,-0.023943,9.955395,,,,-6.5E-05,0.000147,0.003563,-19.26,-13.62,-49.26,124.3637,0.133,0.2082,8362
-0.047885,-0.023943,9.955395,,,,-0.001287,-0.002297,0.000509,-19.26,-13.62,-49.26,124.3637,0.133,0.2082,8371
-0.031126,-0.009577,9.972155,,,,-0.001287,-0.000464,-0.001324,-19.5,-14.16,-49.08,124.3637,0.133,0.2082,8381
-0.05028,-0.019154,9.955395,,,,-6.5E-05,-0.000464,0.00112,-19.5,-14.16,-49.08,124.3637,0.133,0.2082,8392
-0.052674,-0.026337,9.960183,,,,0.001156,0.001979,0.002952,-19.62,-13.32,-48.66,123.0271,0.141,0.2138,8401
-0.052674,-0.026337,9.964972,,,,-0.000676,0.001979,0.001731,-19.68,-12.72,-48.54,123.0271,0.141,0.2138,8411
-0.052674,-0.026337,9.964972,,,,-0.001287,0.000147,-0.001935,-19.68,-12.72,-48.54,123.0271,0.141,0.2138,8422
-0.038308,-0.031126,9.933846,,,,-0.000676,-0.001686,0.000509,-20.1,-13.44,-48.78,123.0271,0.141,0.2138,8431
-0.043097,-0.004789,9.960183,,,,-0.000676,-0.001686,0.000509,-20.1,-13.44,-48.78,123.0271,0.141,0.2138,8441
-0.031126,-0.03352,9.953,,,,-0.00312,-0.005351,0.003563,-19.56,-14.34,-48.36,124.9691,0.1414,0.2223,8452
-0.026337,-0.028731,9.957788,,,,-0.000676,0.000147,0.002952,-19.56,-14.34,-48.36,124.9691,0.1414,0.2223,8462
-0.026337,-0.028731,9.957788,,,,-0.000676,0.000147,0.002952,-19.2,-13.62,-47.34,124.9691,0.1414,0.2223,8471
-0.047885,-0.021548,9.967366,,,,0.001156,-0.001686,0.002341,-19.2,-13.62,-47.34,124.9691,0.1414,0.2223,8482
-0.038308,-0.028731,9.945818,,,,0.001156,0.00259,-0.000102,-19.14,-13.14,-47.52,124.3555,0.1436,0.231,8493
-0.045491,-0.023943,9.950606,,,,0.001156,0.00259,-0.000102,-19.14,-13.14,-47.52,124.3555,0.1436,0.231,8501
-0.023943,-0.028731,9.957788,,,,-0.000676,0.001368,0.004174,-19.26,-13.56,-48.18,124.3555,0.1436,0.231,8511
-0.038308,-0.038308,9.967366,,,,-0.001287,0.000757,-0.001935,-19.26,-13.56,-48.18,124.3555,0.1436,0.231,8522
-0.038308,-0.038308,9.967366,,,,0.002989,0.000147,0.002341,-19.26,-14.1,-48.06,126.3357,0.1375,0.2271,8532
-0.038308,-0.019154,9.957788,,,,-6.5E-05,0.001368,-0.000102,-19.26,-14.1,-48.06,126.3357,0.1375,0.2271,8541
-0.031126,-0.028731,9.945818,,,,-6.5E-05,-0.002908,-0.000713,-19.02,-14.52,-48,126.3357,0.1375,0.2271,8552
-0.040703,-0.035914,9.962578,,,,-6.5E-05,0.001368,-0.000102,-19.02,-14.52,-48,126.3357,0.1375,0.2271,8561
-0.040703,-0.035914,9.962578,,,,-0.002509,0.001368,0.00112,-19.2,-13.98,-48.12,126.3518,0.1421,0.2199,8571
-0.040703,-0.028731,9.948212,,,,-0.000676,0.001368,0.002341,-19.2,-13.98,-48.12,126.3518,0.1421,0.2199,8582
-0.040703,-0.014366,9.950606,,,,0.001699,-0.000536,0.001927,-19.32,-13.68,-47.76,126.3518,0.1421,0.2199,8592
-0.040703,-0.014366,9.950606,,,,-0.001966,0.000686,0.001927,-19.32,-13.68,-47.76,126.3518,0.1421,0.2199,8601
-0.057463,-0.014366,9.941029,,,,-0.000134,-0.000536,0.001927,-19.32,-13.32,-47.46,124.3797,0.1457,0.2133,8612
-0.038308,-0.01676,9.974549,,,,0.000477,-0.002368,-0.001739,-19.32,-13.32,-47.46,124.3797,0.1457,0.2133,8621
-0.031126,-0.011971,9.96976,,,,-0.003799,0.002519,0.000705,-18.84,-13.44,-47.82,124.3797,0.1457,0.2133,8631
-0.038308,-0.021548,9.950606,,,,-0.000745,0.001908,0.001927,-18.84,-13.44,-47.82,124.3797,0.1457,0.2133,8642
-0.038308,-0.038308,9.974549,,,,-0.000745,-0.001147,-0.003571,-19.02,-13.74,-47.88,126.3702,0.1471,0.2113,8652
-0.038308,-0.038308,9.974549,,,,-0.000134,-0.001147,0.001316,-19.02,-13.74,-47.88,126.3702,0.1471,0.2113,8661
-0.047885,-0.021548,9.96976,,,,-0.000134,0.002519,0.000705,-19.62,-13.86,-48.3,126.3702,0.1471,0.2113,8671
-0.047885,-0.035914,9.941029,,,,0.000477,-0.002368,0.000705,-19.62,-13.86,-48.3,126.3702,0.1471,0.2113,8681
-0.040703,-0.038308,9.950606,,,,0.000477,-0.000536,9.4E-05,-19.68,-14.46,-48.6,124.9915,0.15,0.2145,8691
-0.040703,-0.038308,9.950606,,,,-0.001966,7.5E-05,9.4E-05,-19.68,-14.46,-48.6,124.9915,0.15,0.2145,8701
-0.03352,-0.011971,9.976943,,,,-0.001966,7.5E-05,9.4E-05,-19.32,-14.58,-47.88,124.9915,0.15,0.2145,8711
-0.040703,-0.019154,9.945818,,,,-0.000745,-0.001147,-0.002349,-19.32,-14.58,-47.88,124.9915,0.15,0.2145,8721
-0.026337,-0.019154,9.957788,,,,-0.001966,-0.001147,0.000705,-18.84,-13.98,-48.12,126.3738,0.1513,0.2139,8732
-0.040703,-0.026337,9.964972,,,,-0.001966,0.000686,-0.000517,-18.84,-13.98,-48.12,126.3738,0.1513,0.2139,8741
-0.040703,-0.026337,9.964972,,,,0.001699,-0.001757,-0.000517,-19.32,-13.68,-48.24,126.3738,0.1513,0.2139,8751
-0.019154,-0.019154,9.943423,,,,-0.000745,-0.001147,-0.001128,-19.32,-13.68,-48.24,126.3738,0.1513,0.2139,8762
-0.047885,-0.026337,9.967366,,,,-0.000745,0.002519,0.000705,-19.68,-13.74,-48.06,124.9951,0.1523,0.2145,8771
-0.038308,-0.026337,9.960183,,,,-0.000745,-0.000536,-0.000517,-19.68,-13.74,-48.06,124.9951,0.1523,0.2145,8782
-0.023943,-0.035914,9.962578,,,,-0.002577,7.5E-05,-0.00296,-19.2,-13.68,-48,124.9951,0.1523,0.2145,8792
-0.023943,-0.035914,9.962578,,,,-0.000134,0.00374,0.000705,-19.2,-13.68,-48,124.9951,0.1523,0.2145,8801
-0.035914,-0.026337,9.953,,,,-0.001966,-0.001757,-0.004182,-18.9,-13.86,-47.82,126.3834,0.1544,0.2101,8812
-0.031126,-0.03352,9.972155,,,,-0.001966,-0.001757,-0.004182,-18.9,-13.86,-47.82,126.3834,0.1544,0.2101,8821
-0.043097,-0.01676,9.976943,,,,0.001699,-0.000536,0.001316,-19.02,-13.92,-47.76,126.3834,0.1544,0.2101,8832
-0.026337,-0.019154,9.964972,,,,0.001699,-0.000536,0.001316,-19.02,-13.92,-47.76,126.3834,0.1544,0.2101,8841
-0.026337,-0.019154,9.964972,,,,-0.000134,7.5E-05,0.002538,-19.2,-13.44,-47.46,124.4048,0.1554,0.2055,8852
-0.023943,-0.028731,9.948212,,,,-0.001966,-0.002979,-0.002349,-19.2,-13.44,-47.46,124.4048,0.1554,0.2055,8862
-0.023943,-0.007183,9.972155,,,,0.001088,0.000686,0.000705,-19.32,-13.92,-47.58,124.4048,0.1554,0.2055,8871
-0.03352,-0.026337,9.948212,,,,0.00231,0.001908,0.001316,-19.32,-13.92,-47.58,124.4048,0.1554,0.2055,8882
-0.03352,-0.026337,9.948212,,,,0.000477,-0.001147,0.001927,-19.68,-13.8,-47.94,125.0135,0.1543,0.201,8892
-0.03352,-0.026337,9.964972,,,,-0.000745,-0.002979,0.002538,-19.68,-13.8,-47.94,125.0135,0.1543,0.201,8901
-0.040703,-0.028731,9.98652,,,,-0.000745,-0.002979,0.002538,-19.2,-13.44,-47.82,125.0135,0.1543,0.201,8912
-0.03352,-0.03352,9.955395,,,,0.000477,-0.000536,0.001927,-19.2,-13.44,-47.82,125.0135,0.1543,0.201,8922
-0.03352,-0.03352,9.955395,,,,-0.000134,-0.002368,-0.001128,-19.2,-13.92,-47.46,126.38,0.1432,0.1978,8931
-0.021548,-0.040703,9.962578,,,,0.001699,7.5E-05,0.001316,-19.2,-13.92,-47.46,126.38,0.1432,0.1978,8941
-0.028731,-0.019154,9.96976,,,,-0.001966,0.001297,0.001927,-19.32,-14.1,-47.76,126.38,0.1432,0.1978,8951
-0.038308,-0.03352,9.964972,,,,-0.000134,-0.001757,9.4E-05,-19.32,-14.1,-47.76,126.38,0.1432,0.1978,8962
-0.038308,-0.023943,9.948212,,,,0.000477,0.001908,-0.000517,-18.36,-14.04,-48.3,127.8619,0.1449,0.1963,8971
-0.038308,-0.023943,9.948212,,,,-0.000134,-0.000536,0.001927,-18.36,-14.04,-48.3,127.8619,0.1449,0.1963,8981
-0.038308,-0.023943,9.960183,,,,-0.000134,-0.000536,0.001927,-18.42,-13.86,-48,127.8619,0.1449,0.1963,8992
-0.031126,-0.026337,9.953,,,,-0.000134,0.001297,-0.000517,-18.42,-13.86,-48,127.8619,0.1449,0.1963,9002
-0.045491,-0.021548,9.962578,,,,-0.001356,7.5E-05,0.000705,-18.78,-13.62,-48.06,126.3795,0.1448,0.2003,9011
-0.031126,-0.026337,9.953,,,,0.001088,-0.000536,0.003759,-18.78,-13.62,-48.06,126.3795,0.1448,0.2003,9022
-0.01676,-0.011971,9.981731,,,,-0.001966,0.001908,-0.001739,-19.2,-13.68,-48.54,126.3795,0.1448,0.2003,9032
-0.01676,-0.011971,9.981731,,,,-0.002577,-0.000536,-0.004793,-19.2,-13.68,-48.54,126.3795,0.1448,0.2003,9041
-0.040703,-0.014366,9.957788,,,,-0.001966,-0.002368,-0.001128,-19.5,-14.22,-48.42,126.3736,0.1452,0.2058,9051
-0.045491,-0.026337,9.950606,,,,0.000477,0.000686,0.001316,-19.5,-14.22,-48.42,126.3736,0.1452,0.2058,9062
-0.043097,-0.038308,9.953,,,,0.000477,0.000686,0.001316,-18.84,-14.04,-48.06,126.3736,0.1452,0.2058,9072
-0.035914,-0.03352,9.950606,,,,-0.000134,-0.000536,-0.000517,-18.42,-14.16,-47.88,126.3736,0.1452,0.2058,9082
-0.035914,-0.03352,9.950606,,,,-0.000745,0.000686,-0.001739,-18.42,-14.16,-47.88,126.3736,0.1452,0.2058,9092
-0.047885,-0.019154,9.96976,,,,-0.001966,-0.001757,0.002538,-18.42,-14.04,-47.88,127.8428,0.1455,0.2121,9102
-0.026337,-0.023943,9.950606,,,,-0.001966,0.001297,-0.000517,-18.42,-14.04,-47.88,127.8428,0.1455,0.2121,9111
-0.043097,-0.019154,9.948212,,,,0.000477,0.001297,0.001316,-19.44,-14.16,-47.58,127.8428,0.1455,0.2121,9122
-0.043097,-0.019154,9.948212,,,,-0.000745,7.5E-05,9.4E-05,-19.44,-14.16,-47.58,127.8428,0.1455,0.2121,9132
-0.040703,-0.038308,9.962578,,,,0.004753,0.001908,0.003759,-19.62,-14.04,-47.34,124.9817,0.1441,0.2151,9142
-0.043097,-0.007183,9.972155,,,,0.001088,0.003129,-0.001739,-19.62,-14.04,-47.34,124.9817,0.1441,0.2151,9152
-0.040703,-0.031126,9.957788,,,,0.000477,-0.001757,-0.001128,-18.72,-13.98,-48.18,124.9817,0.1441,0.2151,9162
-0.021548,-0.019154,9.960183,,,,-0.001356,7.5E-05,-0.001128,-18.72,-13.98,-48.18,124.9817,0.1441,0.2151,9172
-0.021548,-0.019154,9.960183,,,,-0.001356,-0.00359,-0.001739,-18.84,-14.4,-48.6,126.3546,0.1423,0.2173,9182
-0.035914,-0.023943,9.955395,,,,-0.001356,-0.00359,-0.001739,-18.84,-14.4,-48.6,126.3546,0.1423,0.2173,9191
-0.021548,-0.009577,9.955395,,,,0.002921,-0.000536,0.002538,-18.9,-13.8,-48.54,126.3546,0.1423,0.2173,9202
-0.021548,-0.038308,9.976943,,,,0.001088,-0.001147,0.001316,-18.9,-13.8,-48.54,126.3546,0.1423,0.2173,9211
-0.043097,-0.023943,9.964972,,,,0.002921,0.001908,-0.001128,-18.9,-13.5,-48.12,124.3703,0.1421,0.2161,9222
-0.043097,-0.023943,9.964972,,,,-0.003188,0.001297,-0.000517,-18.9,-13.5,-48.12,124.3703,0.1421,0.2161,9231
-0.023943,-0.028731,9.938635,,,,-0.000134,0.000686,9.4E-05,-19.08,-13.44,-47.94,124.3703,0.1421,0.2161,9241
-0.019154,-0.031126,9.974549,,,,0.001088,-0.000536,0.001927,-19.08,-13.44,-47.94,124.3703,0.1421,0.2161,9252
-0.047885,-0.026337,9.967366,,,,-0.000745,0.000686,0.001316,-18.96,-12.9,-47.94,124.3693,0.1368,0.2092,9261
-0.028731,-0.047885,9.955395,,,,0.000477,-0.001757,-0.001128,-18.96,-12.9,-47.94,124.3693,0.1368,0.2092,9271
-0.028731,-0.047885,9.955395,,,,-0.000134,0.001297,0.001316,-19.14,-13.44,-47.46,124.3693,0.1368,0.2092,9282
-0.028731,-0.004789,9.950606,,,,-0.001966,0.000686,-0.000517,-19.14,-13.44,-47.46,124.3693,0.1368,0.2092,9291
-0.028731,-0.031126,9.988914,,,,0.001699,7.5E-05,9.4E-05,-19.14,-13.86,-48.42,126.3712,0.1395,0.2001,9302
-0.043097,-0.023943,9.957788,,,,0.001699,0.003129,0.000705,-19.14,-13.86,-48.42,126.3712,0.1395,0.2001,9311
-0.035914,-0.035914,9.962578,,,,-0.003188,0.002519,0.001316,-19.14,-13.98,-48.6,126.3712,0.1395,0.2001,9322
-0.035914,-0.035914,9.962578,,,,-0.000745,-0.004201,9.4E-05,-19.44,-13.98,-48.48,126.3712,0.1395,0.2001,9331
-0.019154,-0.026337,9.964972,,,,0.000477,7.5E-05,0.000705,-19.44,-13.98,-48.48,126.3712,0.1395,0.2001,9341
-0.03352,-0.038308,9.960183,,,,0.000477,-0.001147,0.000705,-19.08,-13.62,-48.48,126.374,0.1399,0.1983,9351
-0.035914,-0.028731,9.960183,,,,0.001699,0.000686,0.001927,-19.08,-13.62,-48.48,126.374,0.1399,0.1983,9361
-0.038308,-0.011971,9.972155,,,,-0.000134,-0.002979,0.003148,-18.96,-13.5,-48.96,126.374,0.1399,0.1983,9372
-0.038308,-0.011971,9.972155,,,,-0.001966,-0.001757,-0.003571,-18.96,-13.5,-48.96,126.374,0.1399,0.1983,9381
-0.021548,-0.035914,9.979338,,,,0.001088,0.004351,0.001316,-19.38,-13.32,-48.9,124.3954,0.143,0.1961,9392
-0.03352,-0.019154,9.953,,,,-0.000134,-0.000536,-0.002349,-19.38,-13.32,-48.9,124.3954,0.143,0.1961,9401
-0.03352,-0.035914,9.972155,,,,-0.000745,7.5E-05,-0.003571,-19.38,-13.44,-48.24,124.3954,0.143,0.1961,9411
-0.019154,-0.031126,9.960183,,,,-0.001966,0.001297,-0.003571,-19.38,-13.44,-48.24,124.3954,0.143,0.1961,9422
-0.019154,-0.031126,9.960183,,,,0.00231,0.002519,-0.001739,-19.38,-13.26,-48.3,124.4003,0.146,0.196,9431
-0.059857,-0.009577,9.955395,,,,0.001699,0.004351,0.000705,-19.38,-13.26,-48.3,124.4003,0.146,0.196,9441
-0.045491,-0.004789,9.960183,,,,-0.002577,-0.002368,0.001927,-19.08,-13.62,-48.66,124.4003,0.146,0.196,9452
-0.026337,-0.031126,9.974549,,,,0.000477,0.001297,0.002538,-19.08,-13.62,-48.66,124.4003,0.146,0.196,9461
-0.040703,-0.009577,9.974549,,,,0.000477,0.000686,0.001927,-19.08,-14.28,-48.48,126.3817,0.1432,0.1963,9472
-0.040703,-0.009577,9.974549,,,,-0.000134,-0.001147,-0.000517,-19.08,-14.28,-48.48,126.3817,0.1432,0.1963,9481
-0.03352,-0.028731,9.957788,,,,0.001088,-0.000536,-0.001128,-19.38,-14.28,-48.9,126.3817,0.1432,0.1963,9491
-0.047885,-0.01676,9.962578,,,,-0.001356,7.5E-05,0.001316,-19.38,-14.28,-48.9,126.3817,0.1432,0.1963,9501
-0.035914,-0.01676,9.948212,,,,-0.001966,7.5E-05,0.001316,-18.84,-13.98,-48.54,126.3825,0.1463,0.1998,9511
-0.035914,-0.026337,9.962578,,,,0.001088,-0.000536,0.003148,-18.84,-13.98,-48.54,126.3825,0.1463,0.1998,9522
-0.035914,-0.026337,9.962578,,,,0.001699,-0.001757,0.003148,-18.42,-13.98,-47.94,126.3825,0.1463,0.1998,9531
-0.035914,-0.021548,9.96976,,,,-0.000745,0.001297,0.001316,-18.42,-13.98,-47.94,126.3825,0.1463,0.1998,9542
-0.031126,-0.009577,9.955395,,,,0.001088,-0.001757,-0.001739,-18.84,-14.22,-48.3,126.3814,0.1489,0.2043,9551
-0.035914,-0.026337,9.93624,,,,0.001088,7.5E-05,-0.001128,-18.84,-14.22,-48.3,126.3814,0.1489,0.2043,9562
-0.035914,-0.026337,9.93624,,,,-0.001356,-0.001147,-0.001128,-19.02,-13.8,-48.24,126.3814,0.1489,0.2043,9572
-0.040703,-0.019154,9.945818,,,,-0.001356,-0.001147,-0.001128,-19.02,-13.8,-48.24,126.3814,0.1489,0.2043,9581
-0.031126,-0.021548,9.948212,,,,-0.000134,-0.001147,0.001927,-19.26,-13.32,-48.18,124.4012,0.1506,0.202,9591
-0.043097,-0.011971,9.938635,,,,-0.000745,-0.002979,9.4E-05,-19.26,-13.32,-48.18,124.4012,0.1506,0.202,9601
-0.043097,-0.035914,9.96976,,,,-0.001356,-0.000536,0.001316,-19.5,-13.92,-48.18,124.4012,0.1506,0.202,9611
-0.038308,-0.035914,9.96976,,,,-0.001356,-0.000536,0.001316,-19.5,-13.92,-48.18,124.4012,0.1506,0.202,9621
-0.043097,-0.01676,9.945818,,,,-0.000134,-0.000536,0.001316,-19.14,-13.56,-47.76,126.3843,0.1492,0.2023,9631
-0.026337,-0.026337,9.957788,,,,-0.003799,-0.001757,9.4E-05,-19.14,-13.56,-47.76,126.3843,0.1492,0.2023,9641
-0.057463,0,9.950606,,,,0.00231,0.001297,0.002538,-18.9,-12.96,-48.06,126.3843,0.1492,0.2023,9651
-0.057463,0,9.950606,,,,0.000477,0.001908,9.4E-05,-18.9,-12.96,-48.06,126.3843,0.1492,0.2023,9662
-0.026337,-0.03352,9.964972,,,,0.00231,-0.001757,-0.002349,-18.78,-13.26,-48.6,124.4007,0.1499,0.2017,9671
-0.023943,-0.026337,9.974549,,,,-0.001356,0.003129,-0.002349,-18.78,-13.26,-48.6,124.4007,0.1499,0.2017,9682
-0.038308,-0.019154,9.960183,,,,0.001699,-0.001147,9.4E-05,-18.6,-13.26,-48.24,124.4007,0.1499,0.2017,9691
-0.038308,-0.019154,9.960183,,,,-0.000134,-0.001757,-0.002349,-18.6,-13.26,-48.24,124.4007,0.1499,0.2017,9701
-0.028731,-0.028731,9.962578,,,,0.000477,0.001297,9.4E-05,-19.14,-13.62,-48.06,126.3854,0.1498,0.2022,9711
-0.035914,-0.026337,9.96976,,,,0.001699,7.5E-05,0.001316,-19.14,-13.62,-48.06,126.3854,0.1498,0.2022,9722
-0.028731,-0.028731,9.967366,,,,0.00231,0.003129,-0.001128,-18.96,-13.5,-48.18,126.3854,0.1498,0.2022,9732
-0.028731,-0.028731,9.967366,,,,-0.000134,-0.002368,-0.000517,-18.96,-13.5,-48.18,126.3854,0.1498,0.2022,9741
-0.03352,-0.021548,9.957788,,,,-0.000745,0.001297,0.003759,-18.9,-13.56,-47.76,126.3853,0.1494,0.2017,9752
-0.043097,-0.01676,9.950606,,,,-0.000134,-0.002368,0.002538,-18.9,-13.56,-47.76,126.3853,0.1494,0.2017,9762
-0.038308,-0.031126,9.974549,,,,-0.000134,-0.002368,0.002538,-18.9,-14.04,-47.88,126.3853,0.1494,0.2017,9771
-0.028731,-0.03352,9.960183,,,,0.000477,-0.001147,9.4E-05,-18.96,-14.34,-48.3,126.3853,0.1494,0.2017,9782
-0.028731,-0.03352,9.960183,,,,-0.000134,0.001297,0.003148,-18.96,-14.34,-48.3,126.3853,0.1494,0.2017,9791
-0.031126,-0.007183,9.964972,,,,-0.001966,-0.002979,9.4E-05,-18.78,-14.16,-48.42,126.38,0.147,0.203,9802
-0.040703,-0.038308,9.988914,,,,0.000477,-0.001757,-0.002349,-18.78,-14.16,-48.42,126.38,0.147,0.203,9811
-0.023943,-0.021548,9.974549,,,,-0.000134,0.001908,0.003148,-18.84,-14.46,-48.78,126.38,0.147,0.203,9822
-0.028731,-0.026337,9.957788,,,,0.000477,-0.001147,-0.002349,-18.84,-14.46,-48.78,126.38,0.147,0.203,9832
-0.028731,-0.026337,9.957788,,,,0.001699,0.001908,0.001927,-18.84,-13.62,-48.42,126.3797,0.1469,0.2031,9842
-0.028731,-0.040703,9.974549,,,,-0.00441,7.5E-05,0.001927,-18.84,-13.62,-48.42,126.3797,0.1469,0.2031,9851
-0.03352,-0.026337,9.943423,,,,-0.001356,0.001297,0.001927,-18.72,-12.66,-47.64,126.3797,0.1469,0.2031,9862
-0.040703,-0.014366,9.938635,,,,0.001088,0.000686,0.000705,-18.72,-12.66,-47.64,126.3797,0.1469,0.2031,9872
-0.040703,-0.038308,9.96976,,,,0.001088,0.000686,0.001927,-18.84,-12.96,-48.48,124.3856,0.1444,0.2063,9881
-0.040703,-0.038308,9.96976,,,,-0.000745,0.002519,0.001927,-18.84,-12.96,-48.48,124.3856,0.1444,0.2063,9892
-0.045491,-0.021548,9.950606,,,,-0.000745,0.002519,0.001927,-18.9,-13.32,-49.26,124.3856,0.1444,0.2063,9902
-0.026337,-0.031126,9.945818,,,,-0.000745,-0.002979,9.4E-05,-18.9,-13.32,-49.26,124.3856,0.1444,0.2063,9911
-0.035914,-0.031126,9.967366,,,,-0.000745,0.002519,9.4E-05,-18.6,-13.32,-49.2,124.3834,0.1454,0.2097,9921
-0.05028,-0.031126,9.948212,,,,0.001699,-0.000536,-0.000517,-18.6,-13.32,-49.2,124.3834,0.1454,0.2097,9932
-0.05028,-0.031126,9.948212,,,,-0.000134,-0.001147,9.4E-05,-18.3,-13.14,-49.26,124.3834,0.1454,0.2097,9941
-0.026337,-0.038308,9.953,,,,0.000477,0.002519,0.002538,-18.3,-13.14,-49.26,124.3834,0.1454,0.2097,9951
-0.045491,-0.014366,9.964972,,,,0.000477,0.002519,0.002538,-19.02,-13.74,-49.02,126.3606,0.1435,0.214,9962
-0.035914,-0.026337,9.967366,,,,0.002921,-0.000536,0.003148,-19.02,-13.74,-49.02,126.3606,0.1435,0.214,9971
-0.031126,-0.040703,9.950606,,,,0.00231,0.000686,0.001927,-19.38,-13.62,-48.96,126.3606,0.1435,0.214,9981
-0.031126,-0.040703,9.950606,,,,0.003531,0.002519,0.002538,-19.38,-13.62,-48.96,126.3606,0.1435,0.214,9992
-0.038308,-0.021548,9.953,,,,0.000477,-0.001757,0.001927,-19.2,-13.62,-48.48,126.3593,0.141,0.212,10001
-0.045491,-0.023943,9.962578,,,,0.001088,0.001297,-0.001739,-19.2,-13.62,-48.48,126.3593,0.141,0.212,10012
-0.026337,-0.004789,9.953,,,,-0.000134,7.5E-05,0.000705,-19.44,-13.68,-48.12,126.3593,0.141,0.212,10021
-0.026337,-0.004789,9.953,,,,-0.000745,0.001297,0.000705,-19.44,-13.68,-48.12,126.3593,0.141,0.212,10031
-0.038308,-0.05028,9.957788,,,,-0.000745,0.004962,9.4E-05,-19.5,-13.5,-48.3,124.3683,0.1402,0.2151,10042
-0.035914,-0.03352,9.933846,,,,0.00231,0.000686,0.002538,-19.5,-13.5,-48.3,124.3683,0.1402,0.2151,10051
-0.038308,-0.019154,9.964972,,,,0.000477,0.002519,0.000705,-19.02,-14.34,-47.64,124.3683,0.1402,0.2151,10061
-0.045491,-0.023943,9.945818,,,,0.000477,0.002519,0.000705,-19.02,-14.34,-47.64,124.3683,0.1402,0.2151,10072
-0.045491,-0.023943,9.945818,,,,-0.001966,-0.002979,0.001927,-18.9,-14.22,-47.7,126.3665,0.1459,0.2127,10081
-0.035914,-0.026337,9.979338,,,,-0.000134,-0.001147,0.002538,-18.9,-14.22,-47.7,126.3665,0.1459,0.2127,10092
-0.028731,-0.007183,9.950606,,,,0.000477,0.001908,0.001927,-18.84,-13.62,-48.54,126.3665,0.1459,0.2127,10101
-0.045491,-0.026337,9.967366,,,,-0.000745,-0.001147,-0.000517,-18.84,-13.62,-48.54,126.3665,0.1459,0.2127,10113
-0.045491,-0.026337,9.967366,,,,-0.000745,-0.001147,-0.000517,-18.84,-12.96,-48.36,124.3852,0.1473,0.2109,10122
-0.023943,-0.035914,9.953,,,,-0.002577,0.001297,-0.000517,-18.84,-12.96,-48.36,124.3852,0.1473,0.2109,10131
-0.031126,-0.019154,9.955395,,,,-0.000745,-0.001147,9.4E-05,-18.9,-13.5,-48.3,124.3852,0.1473,0.2109,10141
-0.035914,-0.028731,9.962578,,,,0.000477,0.000686,0.002538,-18.54,-13.44,-48.12,124.3852,0.1473,0.2109,10151
-0.023943,-0.01676,9.955395,,,,0.000477,7.5E-05,-0.001739,-18.54,-13.44,-48.12,124.3852,0.1473,0.2109,10162
-0.023943,-0.01676,9.955395,,,,-0.001356,-0.000536,-0.001739,-18.96,-14.04,-48.48,126.3665,0.1466,0.2136,10171
-0.047885,-0.023943,9.974549,,,,-0.000134,0.003129,0.000705,-18.96,-14.04,-48.48,126.3665,0.1466,0.2136,10182
-0.021548,-0.040703,9.964972,,,,0.000477,-0.007255,0.001316,-20.04,-13.5,-49.02,126.3665,0.1466,0.2136,10191
-0.023943,-0.007183,9.967366,,,,-0.001356,0.001297,-0.000517,-20.04,-13.5,-49.02,126.3665,0.1466,0.2136,10202
-0.035914,-0.038308,9.962578,,,,0.001699,-0.001147,-0.001739,-19.8,-13.2,-48.54,123.0386,0.1469,0.2124,10212
-0.035914,-0.038308,9.962578,,,,0.001088,0.003129,-0.000517,-19.8,-13.2,-48.54,123.0386,0.1469,0.2124,10222
-0.040703,-0.026337,9.964972,,,,0.001088,0.005573,0.002538,-19.32,-13.92,-48.66,123.0386,0.1469,0.2124,10231
-0.035914,-0.026337,9.948212,,,,-0.003188,-0.002368,-0.001739,-19.32,-13.92,-48.66,123.0386,0.1469,0.2124,10242
-0.043097,-0.031126,9.967366,,,,-0.000134,-0.002368,9.4E-05,-19.68,-13.44,-49.14,123.0321,0.1414,0.2098,10252
-0.040703,-0.014366,9.943423,,,,0.000477,-0.001757,0.002538,-19.68,-13.44,-49.14,123.0321,0.1414,0.2098,10262
-0.040703,-0.040703,9.960183,,,,-0.001966,-0.001147,-0.001128,-19.44,-13.38,-48.84,123.0321,0.1414,0.2098,10272
-0.03352,-0.040703,9.960183,,,,0.002921,0.002519,-0.001739,-19.44,-13.38,-48.84,123.0321,0.1414,0.2098,10281
-0.026337,-0.035914,9.953,,,,-0.001356,0.004351,0.002538,-19.08,-13.14,-49.08,124.3793,0.1417,0.2078,10291
-0.043097,-0.026337,9.967366,,,,-0.001356,0.000686,-0.001739,-19.5,-12.96,-48.78,124.3793,0.1417,0.2078,10301
-0.031126,-0.026337,9.96976,,,,0.001088,0.000686,-0.001128,-19.5,-12.96,-48.78,124.3793,0.1417,0.2078,10312
-0.031126,-0.026337,9.96976,,,,-0.000134,0.001297,0.000705,-19.5,-13.92,-47.88,124.3793,0.1417,0.2078,10321
-0.035914,-0.011971,9.960183,,,,-0.001356,7.5E-05,9.4E-05,-19.5,-13.92,-47.88,124.3793,0.1417,0.2078,10331
-0.021548,-0.019154,9.96976,,,,-0.001356,7.5E-05,9.4E-05,-18.18,-13.74,-47.82,127.8511,0.1442,0.2039,10341
-0.045491,-0.047885,9.955395,,,,-0.001966,-0.000536,-0.000517,-18.18,-13.74,-47.82,127.8511,0.1442,0.2039,10352
-0.045491,-0.047885,9.955395,,,,-0.001966,-0.000536,-0.000517,-18,-14.22,-48.66,127.8511,0.1442,0.2039,10362
-0.031126,-0.023943,9.964972,,,,0.000477,-0.000536,-0.002349,-18.42,-14.04,-48.24,127.8511,0.1442,0.2039,10372
-0.031126,-0.021548,9.941029,,,,-0.001356,-0.000536,-0.000517,-18.42,-14.04,-48.24,127.8511,0.1442,0.2039,10381
-0.040703,-0.03352,9.964972,,,,0.001088,-0.001757,0.001927,-19.5,-13.68,-48.36,126.3922,0.149,0.1954,10391
-0.040703,-0.03352,9.964972,,,,-0.001356,7.5E-05,-0.000517,-19.5,-13.68,-48.36,126.3922,0.149,0.1954,10402
-0.03352,-0.03352,9.96976,,,,0.000477,0.001297,-0.000517,-19.8,-13.56,-48.9,126.3922,0.149,0.1954,10411
-0.031126,-0.023943,9.962578,,,,0.001088,0.001908,-0.001128,-19.8,-13.56,-48.9,126.3922,0.149,0.1954,10422
-0.040703,-0.028731,9.945818,,,,0.000477,-0.001147,-0.001128,-18.9,-13.62,-48.72,126.4121,0.1567,0.1897,10431
-0.028731,-0.014366,9.964972,,,,0.000477,-0.000536,9.4E-05,-18.9,-13.62,-48.72,126.4121,0.1567,0.1897,10442
-0.045491,-0.019154,9.96976,,,,-0.000134,0.001297,0.002538,-18.48,-12.9,-48.66,126.4121,0.1567,0.1897,10452
-0.045491,-0.019154,9.96976,,,,-0.000134,7.5E-05,0.003148,-18.48,-12.9,-48.66,126.4121,0.1567,0.1897,10462
-0.05028,-0.045491,9.964972,,,,0.00231,0.001908,0.001927,-18.96,-12.78,-49.2,124.4333,0.16,0.1891,10471
-0.055068,-0.028731,9.964972,,,,-0.000134,0.003129,0.000705,-18.96,-12.78,-49.2,124.4333,0.16,0.1891,10481
-0.031126,-0.05028,9.964972,,,,0.000477,-0.001147,0.001927,-19.2,-13.2,-49.02,124.4333,0.16,0.1891,10491
-0.031126,-0.05028,9.964972,,,,0.001088,0.000686,9.4E-05,-19.32,-13.5,-49.14,124.4333,0.16,0.1891,10501
-0.026337,-0.035914,9.979338,,,,0.001699,0.001297,0.000705,-19.32,-13.5,-49.14,124.4333,0.16,0.1891,10512
-0.045491,-0.01676,9.979338,,,,0.001699,0.001297,0.000705,-19.68,-13.38,-48.9,123.0668,0.1536,0.1973,10521
-0.043097,-0.028731,9.96976,,,,0.000477,0.000686,-0.001739,-19.68,-13.38,-48.9,123.0668,0.1536,0.1973,10532
-0.045491,-0.05028,9.979338,,,,-0.001356,0.000686,9.4E-05,-19.02,-13.44,-49.44,123.0668,0.1536,0.1973,10541
-0.045491,-0.05028,9.979338,,,,0.00231,7.5E-05,0.001316,-18.96,-13.38,-49.08,123.0668,0.1536,0.1973,10551
-0.028731,-0.028731,9.976943,,,,-0.000745,0.000686,0.003148,-18.96,-13.38,-49.08,123.0668,0.1536,0.1973,10562
-0.028731,-0.026337,9.976943,,,,0.00231,0.001297,-0.001128,-18.72,-13.38,-48.9,124.4173,0.1566,0.1976,10572
-0.055068,-0.026337,10.020041,,,,-0.000134,-0.001757,0.001927,-18.72,-13.38,-48.9,124.4173,0.1566,0.1976,10581
-0.011971,-0.03352,9.967366,,,,0.001088,-0.000536,-0.000517,-18.36,-13.62,-48.78,124.4173,0.1566,0.1976,10592
-0.011971,-0.03352,9.967366,,,,-0.000745,-0.001757,-0.000517,-18.6,-13.74,-48.36,124.4173,0.1566,0.1976,10601
-0.035914,-0.023943,9.974549,,,,0.000477,0.004351,0.001927,-18.6,-13.74,-48.36,124.4173,0.1566,0.1976,10611
-0.023943,-0.040703,9.996098,,,,0.000477,-0.001757,-0.000517,-18.9,-13.8,-48.36,126.3937,0.1575,0.2058,10622
-0.05028,-0.004789,9.976943,,,,0.00231,0.002519,0.003148,-18.9,-13.8,-48.36,126.3937,0.1575,0.2058,10631
-0.03352,-0.043097,9.974549,,,,-0.000134,-0.001147,9.4E-05,-19.14,-13.5,-48.96,126.3937,0.1575,0.2058,10642
-0.038308,-0.028731,9.962578,,,,0.000477,0.001297,-0.001739,-19.14,-13.5,-48.96,126.3937,0.1575,0.2058,10652
-0.038308,-0.028731,9.962578,,,,0.001088,0.00374,9.4E-05,-19.14,-13.14,-48.72,124.4069,0.1598,0.211,10661
-0.047885,-0.009577,9.96976,,,,0.000477,-0.002368,-0.000517,-19.14,-13.14,-48.72,124.4069,0.1598,0.211,10671
-0.031126,-0.043097,9.981731,,,,-0.001966,7.5E-05,-0.001739,-19.08,-12.66,-48.54,124.4069,0.1598,0.211,10681
-0.028731,-0.023943,9.974549,,,,0.010862,-0.01031,0.001316,-19.08,-12.66,-48.54,124.4069,0.1598,0.211,10691
-0.028731,-0.023943,9.974549,,,,-0.001966,0.009238,9.4E-05,-19.14,-12.72,-48.78,124.3981,0.1569,0.2141,10701
-0.038308,-0.040703,10.00328,,,,-0.000134,-0.004201,9.4E-05,-19.14,-12.72,-48.78,124.3981,0.1569,0.2141,10713
-0.028731,-0.038308,9.976943,,,,-0.001356,-0.001147,9.4E-05,-19.14,-13.2,-48.3,124.3981,0.1569,0.2141,10721
-0.028731,-0.038308,9.976943,,,,-0.001356,-0.001147,9.4E-05,-19.14,-13.2,-48.3,124.3981,0.1569,0.2141,10732
-0.031126,-0.014366,9.905115,,,,0.001699,0.001908,0.003148,-19.38,-13.14,-49.02,124.3955,0.154,0.2122,10741
-0.01676,-0.064645,10.017646,,,,-0.000745,-0.006644,-0.001128,-19.38,-13.14,-49.02,124.3955,0.154,0.2122,10752
-0.055068,-0.014366,9.921875,,,,-0.000745,0.00374,0.004981,-19.56,-13.5,-49.14,124.3955,0.154,0.2122,10762
-0.035914,-0.026337,9.981731,,,,0.00231,-0.002368,0.005592,-19.56,-13.5,-49.14,124.3955,0.154,0.2122,10771
-0.035914,-0.026337,9.981731,,,,-0.000745,0.003129,-0.001128,-19.44,-13.02,-48.78,124.3934,0.1521,0.2111,10782
-0.035914,-0.011971,9.974549,,,,-0.000134,-0.000536,0.000705,-19.44,-13.02,-48.78,124.3934,0.1521,0.2111,10791
-0.028731,-0.035914,9.984126,,,,0.001088,-0.001757,9.4E-05,-19.56,-12.9,-49.32,124.3934,0.1521,0.2111,10802
-0.028731,-0.035914,9.984126,,,,0.001088,-0.001757,0.001927,-19.56,-12.9,-49.32,124.3934,0.1521,0.2111,10813
-0.045491,-0.01676,9.998491,,,,0.001088,-0.001757,0.001927,-18.9,-13.38,-49.38,124.3944,0.1527,0.2112,10822
-0.038308,-0.009577,9.98652,,,,-0.000745,7.5E-05,0.000705,-18.9,-13.38,-49.38,124.3944,0.1527,0.2112,10832
-0.038308,-0.023943,9.993703,,,,0.001088,0.001297,-0.001739,-18.18,-13.02,-49.74,124.3944,0.1527,0.2112,10841
-0.038308,-0.023943,9.993703,,,,0.001699,0.001297,0.001316,-18.18,-13.02,-49.74,124.3944,0.1527,0.2112,10851
-0.038308,-0.045491,9.974549,,,,-0.001356,7.5E-05,0.000705,-18.78,-13.26,-49.86,124.3864,0.1499,0.2139,10861
-0.014366,-0.03352,10.008069,,,,0.001088,0.002519,0.000705,-18.24,-13.56,-49.44,124.3864,0.1499,0.2139,10871
-0.014366,-0.03352,10.008069,,,,-0.000745,-0.001757,-0.000517,-18.24,-13.56,-49.44,124.3864,0.1499,0.2139,10881
-0.057463,-0.035914,9.991309,,,,0.001699,0.001297,0.000705,-18.6,-13.5,-48.36,124.3864,0.1499,0.2139,10891
-0.026337,-0.043097,9.984126,,,,-0.000134,0.000686,0.001316,-18.72,-13.62,-48.48,126.3894,0.1569,0.2084,10901
-0.038308,-0.028731,9.96976,,,,-0.005021,7.5E-05,-0.001128,-18.72,-13.62,-48.48,126.3894,0.1569,0.2084,10911
-0.028731,-0.031126,9.979338,,,,-0.005021,7.5E-05,-0.001128,-18.84,-13.26,-48,126.3894,0.1569,0.2084,10921
-0.026337,-0.011971,9.991309,,,,0.001088,-0.001757,-0.000517,-18.84,-13.26,-48,126.3894,0.1569,0.2084,10933
-0.026337,-0.011971,9.991309,,,,0.001088,-0.001757,-0.000517,-19.14,-13.08,-48.78,124.4094,0.1597,0.2088,10942
-0.038308,-0.040703,9.998491,,,,0.001088,0.001908,0.001316,-19.5,-13.02,-48.72,124.4094,0.1597,0.2088,10952
-0.038308,-0.031126,9.96976,,,,0.001088,0.001908,0.001316,-19.5,-13.02,-48.72,124.4094,0.1597,0.2088,10962
-0.038308,-0.035914,10.00328,,,,0.001088,-0.002368,-0.000517,-18.84,-12.84,-48.66,124.4094,0.1597,0.2088,10972
-0.040703,-0.021548,9.984126,,,,0.000477,0.000686,-0.001739,-18.84,-12.84,-48.66,124.4094,0.1597,0.2088,10983
-0.040703,-0.021548,9.984126,,,,-0.002577,-0.001757,-0.000517,-18.48,-13.32,-48.9,125.8636,0.1652,0.2082,10991
-0.040703,-0.035914,10.000886,,,,0.000477,-0.000536,-0.001128,-18.54,-13.26,-48.84,125.8636,0.1652,0.2082,11001
-0.031126,-0.03352,9.98652,,,,-0.001356,-0.002979,0.001927,-18.54,-13.26,-48.84,125.8636,0.1652,0.2082,11011
-0.035914,-0.040703,10.008069,,,,-0.000134,7.5E-05,0.003759,-18.9,-13.14,-48.9,125.8636,0.1652,0.2082,11021
-0.035914,-0.03352,9.96976,,,,0.001699,-0.001757,-0.000517,-18.9,-13.14,-48.9,125.8636,0.1652,0.2082,11032
-0.035914,-0.03352,9.96976,,,,-0.003188,-0.000536,-0.001128,-19.44,-13.02,-48.84,124.4213,0.1656,0.2073,11041
-0.019154,-0.028731,9.998491,,,,-0.000745,0.001908,-0.000517,-19.26,-13.02,-48.96,124.4213,0.1656,0.2073,11051
-0.021548,-0.028731,9.991309,,,,-0.00441,-0.001757,-0.000517,-19.26,-13.02,-48.96,124.4213,0.1656,0.2073,11062
-0.045491,-0.019154,9.972155,,,,0.005975,-0.005423,-0.000517,-19.44,-12.9,-49.38,124.4213,0.1656,0.2073,11071
-0.045491,-0.019154,9.972155,,,,0.001088,-0.001757,9.4E-05,-19.44,-12.9,-49.38,124.4213,0.1656,0.2073,11081
-0.023943,-0.038308,9.998491,,,,0.001088,-0.001147,0.001927,-19.44,-12.96,-49.92,124.4332,0.1693,0.2037,11091
-0.05028,-0.03352,9.991309,,,,-0.000134,-0.000536,-0.001128,-19.44,-12.96,-49.92,124.4332,0.1693,0.2037,11102
-0.028731,-0.043097,10.000886,,,,0.000477,0.001297,0.000705,-18.84,-13.44,-49.56,124.4332,0.1693,0.2037,11111
-0.028731,-0.021548,9.964972,,,,0.00231,0.001908,0.002538,-18.84,-13.44,-49.56,124.4332,0.1693,0.2037,11121
-0.03352,-0.038308,10.010463,,,,0.001088,-0.002979,0.000705,-18.54,-13.38,-48.78,124.4381,0.1718,0.2022,11132
-0.03352,-0.038308,10.010463,,,,0.000477,0.000686,-0.000517,-18.54,-13.38,-48.78,124.4381,0.1718,0.2022,11141
-0.031126,-0.028731,9.962578,,,,0.000477,0.000686,-0.000517,-19.26,-13.02,-48.54,124.4381,0.1718,0.2022,11151
-0.03352,-0.028731,9.993703,,,,0.00231,0.00374,0.001927,-19.26,-13.02,-48.54,124.4381,0.1718,0.2022,11162
-0.043097,-0.031126,9.996098,,,,0.00231,0.00374,0.001927,-19.62,-12,-48.54,121.048,0.1682,0.2014,11171
-0.03352,-0.019154,9.976943,,,,0.000477,-0.000536,0.00437,-19.62,-12,-48.54,121.048,0.1682,0.2014,11182
