ACCELEROMETER X (m/s²),ACCELEROMETER Y (m/s²),ACCELEROMETER Z (m/s²),GYROSCOPE X (rad/s),GYROSCOPE Y (rad/s),GYROSCOPE Z (rad/s),MAGNETIC FIELD X (μT),MAGNETIC FIELD Y (μT),MAGNETIC FIELD Z (μT),ORIENTATION Z (azimuth °),ORIENTATION X (pitch °),ORIENTATION Y (roll °),LOCATION Latitude : ,LOCATION Longitude : ,LOCATION Altitude ( m),LOCATION Speed ( m/s),Time since start in ms 
-0.040703,-0.023943,9.893144,-0.000375,0.002861,0.000213,-19.5,-12.9,-49.08,122.888,0.0689,0.2284,55.81406,37.500443,210.6,0,39
-0.038308,-0.021548,9.862018,0.001458,0.000418,0.002657,-19.44,-12.6,-49.38,122.888,0.0689,0.2284,55.81406,37.500443,210.6,0,49
-0.040703,-0.007183,9.854836,0.002679,0.002861,0.003268,-19.44,-12.6,-49.38,122.888,0.0689,0.2284,55.81406,37.500443,210.6,0,58
-0.055068,-0.019154,9.888355,0.000236,0.00164,-0.001009,-19.74,-12.9,-49.02,122.8799,0.0655,0.2304,55.81406,37.500443,210.6,0,69
-0.055068,-0.019154,9.888355,0.000236,0.00164,-0.001009,-19.74,-12.9,-49.02,122.8799,0.0655,0.2304,55.81406,37.500443,210.6,0,79
-0.023943,-0.011971,9.873989,-0.001597,0.00164,-0.00223,-20.1,-13.08,-48.96,122.8799,0.0655,0.2304,55.81406,37.500443,210.6,0,89
-0.023943,-0.011971,9.873989,-0.001597,-0.000193,-0.001619,-20.1,-13.08,-48.96,122.8799,0.0655,0.2304,55.81406,37.500443,210.6,0,98
-0.03352,-0.009577,9.893144,0.002068,-0.000193,0.001435,-20.1,-12.54,-48.96,122.8799,0.0655,0.2304,55.81406,37.500443,210.6,0,108
-0.038308,-0.021548,9.878778,-0.002208,-0.003858,0.002046,-20.1,-12.6,-48.84,122.8729,0.064,0.2345,55.81406,37.500443,210.6,0,119
-0.038308,-0.021548,9.878778,0.004512,-0.001415,0.004489,-20.1,-12.6,-48.84,122.8729,0.064,0.2345,55.81406,37.500443,210.6,0,129
-0.035914,-0.009577,9.864412,-0.002819,0.000418,0.000824,-19.8,-13.74,-48.78,122.8729,0.064,0.2345,55.81406,37.500443,210.6,0,138
-0.031126,0,9.883567,-0.000986,-0.001415,-0.001009,-19.8,-13.74,-48.78,122.8729,0.064,0.2345,55.81406,37.500443,210.6,0,148
-0.028731,-0.014366,9.885961,0.000847,-0.001415,-0.000398,-19.68,-13.68,-48.96,124.8317,0.0644,0.2323,55.81406,37.500443,210.6,0,159
-0.038308,-0.023943,9.854836,0.000847,0.000418,0.002046,-19.68,-13.68,-48.96,124.8317,0.0644,0.2323,55.81406,37.500443,210.6,0,169
-0.038308,-0.023943,9.854836,0.000236,0.000418,0.000824,-19.86,-12.72,-48.6,124.8317,0.0644,0.2323,55.81406,37.500443,210.6,0,179
-0.035914,-0.026337,9.866806,0.000847,0.002861,-0.000398,-19.86,-12.72,-48.6,124.8317,0.0644,0.2323,55.81406,37.500443,210.6,0,189
-0.03352,-0.004789,9.878778,-0.002819,-0.001415,0.000213,-20.1,-13.38,-48.66,122.8987,0.072,0.2235,55.81406,37.500443,210.6,0,199
-0.035914,0,9.888355,0.002068,0.001029,-0.000398,-20.1,-13.38,-48.66,122.8987,0.072,0.2235,55.81406,37.500443,210.6,0,208
-0.035914,0,9.888355,0.002679,0.000418,0.000213,-20.22,-13.26,-48.72,122.8987,0.072,0.2235,55.81406,37.500443,210.6,0,218
-0.052674,-0.009577,9.857229,-0.002208,-0.001415,-0.000398,-20.22,-13.26,-48.72,122.8987,0.072,0.2235,55.81406,37.500443,210.6,0,229
-0.038308,-0.002394,9.854836,0.002068,0.003472,0.000824,-19.86,-12.84,-48.36,122.9146,0.0753,0.2162,55.81406,37.500443,210.6,0,239
-0.035914,-0.014366,9.881172,0.002068,0.003472,0.000824,-19.86,-12.84,-48.36,122.9146,0.0753,0.2162,55.81406,37.500443,210.6,0,249
-0.03352,0,9.883567,0.000236,-0.000804,-0.001009,-19.56,-12.78,-47.82,122.9146,0.0753,0.2162,55.81406,37.500443,210.6,0,258
-0.03352,0,9.883567,-0.002819,-0.000804,-0.000398,-19.8,-12.36,-48.72,122.9146,0.0753,0.2162,55.81406,37.500443,210.6,0,269
-0.05028,0.002394,9.873989,-0.000986,0.000418,-0.003452,-19.8,-12.36,-48.72,122.9146,0.0753,0.2162,55.81406,37.500443,210.6,0,278
-0.040703,-0.009577,9.864412,-0.000375,-0.001415,-0.001009,-19.68,-12.6,-48.96,122.9237,0.0773,0.2092,55.81406,37.500443,210.6,0,288
-0.031126,-0.014366,9.866806,-0.000375,-0.000804,0.000213,-19.68,-12.6,-48.96,122.9237,0.0773,0.2092,55.81406,37.500443,210.6,0,299
-0.038308,-0.007183,9.885961,-0.002208,-0.001415,0.000213,-19.86,-12.72,-48.72,122.9237,0.0773,0.2092,55.81406,37.500443,210.6,0,309
-0.038308,-0.007183,9.885961,0.000236,0.000418,-0.00223,-19.92,-12.12,-49.08,122.9237,0.0773,0.2092,55.81406,37.500443,210.6,0,318
-0.019154,-0.019154,9.857229,0.000236,-0.003247,-0.001009,-19.92,-12.12,-49.08,122.9237,0.0773,0.2092,55.81406,37.500443,210.6,0,328
-0.03352,-0.011971,9.873989,-0.000375,0.004694,-0.000398,-20.16,-12,-49.5,120.8693,0.0749,0.213,55.81406,37.500443,210.6,0,339
-0.062251,-0.028731,9.869201,-0.002208,-0.002636,-0.001009,-20.16,-12,-49.5,120.8693,0.0749,0.213,55.81406,37.500443,210.6,0,348
-0.062251,-0.028731,9.869201,-0.000986,-0.004469,-0.000398,-19.98,-13.08,-48.54,120.8693,0.0749,0.213,55.81406,37.500443,210.6,0,359
-0.038308,-0.009577,9.878778,-0.000986,-0.004469,-0.000398,-19.98,-13.08,-48.54,120.8693,0.0749,0.213,55.81406,37.500443,210.6,0,369
-0.038308,-0.01676,9.871595,-0.000375,-0.000193,0.001435,-19.68,-13.56,-48.48,120.8693,0.0749,0.213,55.81406,37.500443,210.6,0,379
-0.023943,-0.026337,9.864412,-0.002208,-0.001415,0.001435,-19.92,-12.78,-47.34,122.9182,0.0748,0.2142,55.81406,37.500443,210.6,0,389
-0.045491,-0.007183,9.871595,-0.000986,-0.000193,0.001435,-20.1,-12.24,-47.7,122.9182,0.0748,0.2142,55.81406,37.500443,210.6,0,401
-0.045491,-0.007183,9.871595,0.000236,-0.000193,0.000213,-20.1,-12.24,-47.7,122.9182,0.0748,0.2142,55.81406,37.500443,210.6,0,409
-0.05028,-0.021548,9.866806,-0.001597,-0.002636,-0.001009,-20.58,-12.54,-48.6,122.9182,0.0748,0.2142,55.81406,37.500443,210.6,0,419
-0.035914,-0.021548,9.871595,-0.000986,0.000418,0.000213,-20.58,-12.54,-48.6,122.9182,0.0748,0.2142,55.81406,37.500443,210.6,0,429
-0.05028,-0.002394,9.876384,-0.001597,-0.000804,-0.000398,-20.04,-13.32,-48.96,122.9222,0.0794,0.2137,55.81406,37.500443,210.6,0,438
-0.05028,-0.035914,9.871595,0.001458,-0.000804,0.000824,-20.04,-13.32,-48.96,122.9222,0.0794,0.2137,55.81406,37.500443,210.6,0,451
-0.038308,-0.035914,9.871595,-0.000986,-0.000193,-0.000398,-19.98,-12.78,-48.72,122.9222,0.0794,0.2137,55.81406,37.500443,210.6,0,458
-0.040703,-0.011971,9.890749,-0.000375,0.00164,0.000213,-19.98,-12.78,-48.72,122.9222,0.0794,0.2137,55.81406,37.500443,210.6,0,469
-0.028731,-0.004789,9.890749,-0.000986,-0.001415,-0.001619,-20.04,-12.9,-48.54,122.9153,0.0814,0.2229,55.81406,37.500443,210.6,0,479
-0.028731,-0.004789,9.890749,-0.000986,-0.001415,-0.001619,-20.04,-12.9,-48.54,122.9153,0.0814,0.2229,55.81406,37.500443,210.6,0,489
-0.047885,-0.014366,9.862018,-0.002208,-0.000804,-0.000398,-20.04,-12.9,-48.54,122.9153,0.0814,0.2229,55.81406,37.500443,210.6,0,498
-0.031126,-0.004789,9.866806,0.000236,0.00225,0.001435,-19.56,-13.14,-48.42,122.9153,0.0814,0.2229,55.81406,37.500443,210.6,0,509
-0.023943,-0.002394,9.885961,0.000847,-0.002026,-0.001619,-19.56,-12.48,-48.72,120.876,0.0884,0.2292,55.81406,37.500443,210.6,0,518
-0.047885,-0.01676,9.871595,-0.000375,0.000418,0.001435,-19.56,-12.48,-48.72,120.876,0.0884,0.2292,55.81406,37.500443,210.6,0,529
-0.047885,-0.01676,9.871595,0.000236,-0.002636,0.003268,-19.32,-12.84,-48.54,120.876,0.0884,0.2292,55.81406,37.500443,210.6,0,538
-0.03352,-0.023943,9.866806,-0.000375,-0.002026,0.000213,-19.32,-12.84,-48.54,120.876,0.0884,0.2292,55.81406,37.500443,210.6,0,549
-0.05028,-0.009577,9.869201,-0.002208,0.003472,0.000824,-19.74,-13.02,-49.26,122.9175,0.0898,0.234,55.81406,37.500443,210.6,0,558
-0.03352,-0.007183,9.866806,0.000236,0.00164,0.002657,-19.74,-13.02,-49.26,122.9175,0.0898,0.234,55.81406,37.500443,210.6,0,569
-0.03352,-0.007183,9.866806,0.000236,0.00164,0.000824,-19.56,-13.32,-48.96,122.9175,0.0898,0.234,55.81406,37.500443,210.6,0,578
-0.035914,-0.007183,9.873989,0.001458,0.00225,0.000213,-19.56,-13.32,-48.96,122.9175,0.0898,0.234,55.81406,37.500443,210.6,0,589
-0.045491,-0.023943,9.866806,-0.001597,-0.000193,-0.000398,-19.5,-13.38,-47.94,124.2677,0.0929,0.2322,55.81406,37.500443,210.6,0,599
-0.035914,-0.028731,9.864412,-0.001597,-0.000193,-0.000398,-19.5,-13.38,-47.94,124.2677,0.0929,0.2322,55.81406,37.500443,210.6,0,609
-0.028731,-0.002394,9.871595,-0.000375,-0.001415,-0.000398,-19.86,-13.26,-48.12,124.2677,0.0929,0.2322,55.81406,37.500443,210.6,0,620
-0.028731,-0.002394,9.871595,0.000236,-0.001415,-0.001009,-19.86,-13.26,-48.12,124.2677,0.0929,0.2322,55.81406,37.500443,210.6,0,629
-0.035914,-0.004789,9.866806,0.000236,0.001029,-0.001009,-19.86,-13.26,-48.12,124.2677,0.0929,0.2252,55.81406,37.500443,210.6,0,638
-0.023943,-0.019154,9.873989,-0.000986,-0.000804,-0.00223,-19.08,-13.56,-48.84,126.27,0.097,0.2252,55.81406,37.500443,210.6,0,648
-0.028731,-0.019154,9.888355,0.000236,0.001029,0.000213,-19.56,-13.44,-48.66,126.27,0.097,0.2252,55.81406,37.500443,210.6,0,659
-0.028731,-0.019154,9.888355,-0.000986,-0.000193,0.000824,-19.56,-13.44,-48.66,126.27,0.097,0.2252,55.81406,37.500443,210.6,0,669
-0.043097,-0.011971,9.876384,0.000236,0.000418,0.000213,-19.86,-12.96,-47.94,126.27,0.097,0.2252,55.81406,37.500443,210.6,0,678
-0.055068,-0.009577,9.869201,-0.000375,0.000418,-0.001619,-19.8,-12.78,-48.06,122.9513,0.0963,0.2148,55.81406,37.500443,210.6,0,688
-0.031126,-0.009577,9.862018,0.000847,-0.003858,0.003878,-19.8,-12.78,-48.06,122.9513,0.0963,0.2148,55.81406,37.500443,210.6,0,699
-0.031126,-0.009577,9.862018,0.000847,-0.003858,0.003878,-20.04,-13.26,-48.54,122.9513,0.0963,0.2148,55.81406,37.500443,210.6,0,709
-0.038308,-0.009577,9.873989,-0.001597,-0.001415,0.000824,-20.04,-13.26,-48.54,122.9513,0.0963,0.2148,55.81406,37.500443,210.6,0,719
-0.043097,-0.009577,9.881172,-0.000375,0.00164,0.002657,-19.8,-13.62,-48.24,124.9013,0.0919,0.2123,55.81406,37.500443,210.6,0,729
-0.040703,-0.002394,9.850046,0.003901,-0.001415,0.002657,-19.8,-13.62,-48.24,124.9013,0.0919,0.2123,55.81406,37.500443,210.6,0,739
-0.045491,-0.028731,9.883567,-0.000375,-0.000804,-0.001009,-18.96,-13.2,-48.18,124.9013,0.0919,0.2123,55.81406,37.500443,210.6,0,748
-0.045491,-0.028731,9.883567,0.000236,-0.000804,0.000213,-18.96,-13.2,-48.18,124.9013,0.0919,0.2123,55.81406,37.500443,210.6,0,758
-0.028731,-0.023943,9.859624,-0.000375,0.001029,-0.00223,-19.26,-13.2,-48.96,124.2777,0.0848,0.21,55.81406,37.500443,210.6,0,768
-0.031126,-0.01676,9.878778,0.001458,0.000418,0.002657,-19.26,-13.2,-48.96,124.2777,0.0848,0.21,55.81406,37.500443,210.6,0,779
-0.045491,-0.009577,9.876384,-0.000375,-0.000193,0.000824,-19.14,-13.32,-49.08,124.2777,0.0848,0.21,55.81406,37.500443,210.6,0,789
-0.045491,-0.009577,9.876384,0.000236,-0.000804,0.000213,-19.2,-13.62,-48.6,124.2777,0.0848,0.21,55.81406,37.500443,210.6,0,799
-0.035914,-0.019154,9.859624,0.001458,-0.000804,-0.000398,-19.2,-13.62,-48.6,124.2777,0.0848,0.21,55.81406,37.500443,210.6,0,809
-0.023943,-0.01676,9.876384,0.001458,-0.000804,-0.000398,-20.28,-13.2,-48.48,122.9267,0.0821,0.2156,55.81406,37.500443,210.6,0,819
-0.045491,-0.009577,9.869201,0.001458,0.00225,0.000824,-20.28,-13.2,-48.48,122.9267,0.0821,0.2156,55.81406,37.500443,210.6,0,828
-0.043097,0.002394,9.862018,-0.000986,0.00225,-0.001619,-20.28,-13.2,-48.54,122.9267,0.0821,0.2156,55.81406,37.500443,210.6,0,838
-0.043097,0.002394,9.862018,-0.000986,0.004083,-0.00223,-20.28,-13.2,-48.54,122.9267,0.0821,0.2156,55.81406,37.500443,210.6,0,849
-0.021548,-0.004789,9.871595,-0.000375,-0.003247,0.000824,-19.74,-13.02,-48.18,122.9267,0.0821,0.2156,55.81406,37.500443,210.6,0,858
-0.031126,-0.009577,9.862018,-0.000986,-0.000804,0.000824,-19.68,-13.26,-48.54,122.9207,0.0825,0.2198,55.81406,37.500443,210.6,0,869
-0.040703,-0.031126,9.885961,-0.000375,0.000418,0.002046,-19.68,-13.26,-48.54,122.9207,0.0825,0.2198,55.81406,37.500443,210.6,0,879
-0.045491,-0.007183,9.866806,-0.000986,0.00164,0.003268,-19.74,-13.14,-48.72,122.9207,0.0825,0.2198,55.81406,37.500443,210.6,0,888
-0.045491,-0.007183,9.866806,-0.001597,-0.000193,-0.001009,-19.74,-13.14,-48.72,122.9207,0.0825,0.2198,55.81406,37.500443,210.6,0,899
-0.03352,-0.014366,9.885961,-0.001597,-0.000804,-0.001009,-19.74,-12.9,-48.84,122.908,0.0737,0.2177,55.81406,37.500443,210.6,0,909
-0.040703,-0.007183,9.873989,-0.001597,-0.000804,-0.001009,-19.74,-12.9,-48.84,122.908,0.0737,0.2177,55.81406,37.500443,210.6,0,918
-0.040703,-0.007183,9.873989,0.000236,0.001029,-0.000398,-19.98,-13.2,-48.6,122.908,0.0737,0.2177,55.81406,37.500443,210.6,0,928
-0.05028,-0.009577,9.885961,-0.000986,-0.000193,0.002657,-19.98,-13.2,-48.6,122.908,0.0737,0.2177,55.81406,37.500443,210.6,0,939
-0.021548,-0.01676,9.871595,-0.000375,-0.001415,-0.001619,-20.04,-13.32,-48.06,122.9025,0.0713,0.2212,55.81406,37.500443,210.6,0,948
-0.026337,-0.01676,9.866806,-0.001597,0.000418,-0.001619,-20.04,-13.32,-48.06,122.9025,0.0713,0.2212,55.81406,37.500443,210.6,0,959
-0.026337,-0.01676,9.866806,0.000847,-0.000804,0.003878,-20.1,-13.02,-48.6,122.9025,0.0713,0.2212,55.81406,37.500443,210.6,0,968
-0.059857,-0.014366,9.866806,0.000236,-0.003247,0.000213,-20.1,-13.02,-48.6,122.9025,0.0713,0.2212,55.81406,37.500443,210.6,0,979
-0.03352,-0.009577,9.859624,-0.000375,-0.000804,-0.001009,-20.7,-13.02,-48.78,121.6548,0.0717,0.2169,55.81406,37.500443,210.6,0,988
-0.03352,-0.009577,9.859624,-0.000986,-0.002026,-0.001619,-20.7,-13.02,-48.78,121.6548,0.0717,0.2169,55.81406,37.500443,210.6,0,999
-0.038308,-0.019154,9.864412,0.000847,-0.000193,-0.002841,-20.28,-13.44,-48.78,121.6548,0.0717,0.2169,55.81406,37.500443,210.6,0,1009
-0.035914,-0.011971,9.859624,-0.002819,0.000418,-0.000398,-20.28,-13.44,-48.78,121.6548,0.0717,0.2169,55.81406,37.500443,210.6,0,1019
-0.05028,-0.014366,9.866806,0.001458,0.000418,0.000213,-19.44,-13.32,-48.96,124.2516,0.0735,0.2154,55.81406,37.500443,210.6,0,1029
-0.05028,-0.014366,9.866806,0.001458,-0.002026,-0.001619,-19.44,-13.32,-48.96,124.2516,0.0735,0.2154,55.81406,37.500443,210.6,0,1038
-0.045491,-0.031126,9.869201,-0.002819,-0.003247,0.000213,-18.84,-12.66,-48.84,124.2516,0.0735,0.2154,55.81406,37.500443,210.6,0,1048
-0.040703,-0.01676,9.847652,-0.000375,0.000418,-0.001009,-18.84,-12.66,-48.84,124.2516,0.0735,0.2154,55.81406,37.500443,210.6,0,1058
-0.03352,-0.007183,9.890749,0.004512,-0.000193,0.002657,-18.84,-13.02,-48.42,124.2548,0.0713,0.2117,55.81406,37.500443,210.6,0,1069
-0.031126,-0.002394,9.857229,-0.002208,0.00225,-0.000398,-18.84,-13.02,-48.42,124.2548,0.0713,0.2117,55.81406,37.500443,210.6,0,1078
-0.031126,-0.002394,9.857229,0.000236,0.000418,-0.00223,-19.08,-13.44,-48.66,124.2548,0.0713,0.2117,55.81406,37.500443,210.6,0,1088
-0.043097,-0.01676,9.869201,0.000236,0.000418,-0.00223,-19.08,-13.44,-48.66,124.2548,0.0713,0.2117,55.81406,37.500443,210.6,0,1099
-0.021548,-0.007183,9.864412,-0.000986,-0.001415,-0.00223,-19.32,-12.9,-48.48,124.2507,0.074,0.2192,55.81406,37.500443,210.6,0,1109
-0.021548,-0.023943,9.869201,-0.002208,-0.002026,-0.001619,-19.32,-12.9,-48.48,124.2507,0.074,0.2192,55.81406,37.500443,210.6,0,1118
-0.038308,-0.021548,9.864412,0.000236,-0.000193,0.000213,-20.52,-12.42,-48.66,124.2507,0.074,0.2192,55.81406,37.500443,210.6,0,1128
-0.038308,-0.021548,9.864412,0.001458,0.00225,0.000213,-20.52,-12.42,-48.66,124.2507,0.074,0.2192,55.81406,37.500443,210.6,0,1139
-0.03352,-0.014366,9.878778,0.002068,-0.000804,0.001435,-20.94,-12.3,-48.42,119.6632,0.0776,0.2194,55.81406,37.500443,210.6,0,1148
-0.043097,-0.004789,9.885961,0.001458,0.007137,0.001435,-20.94,-12.3,-48.42,119.6632,0.0776,0.2194,55.81406,37.500443,210.6,0,1158
-0.038308,-0.019154,9.862018,0.000847,0.001029,-0.003452,-20.58,-12.18,-48.3,119.6632,0.0776,0.2194,55.81406,37.500443,210.6,0,1168
-0.038308,-0.019154,9.862018,0.000847,-0.001415,0.000213,-20.58,-12.18,-48.3,119.6632,0.0776,0.2194,55.81406,37.500443,210.6,0,1178
-0.035914,-0.014366,9.864412,0.000236,-0.000804,0.000824,-19.68,-12.6,-49.08,122.8976,0.0725,0.2253,55.81406,37.500443,210.6,0,1189
-0.038308,-0.01676,9.854836,0.000236,-0.000193,-0.001009,-19.68,-12.6,-49.08,122.8976,0.0725,0.2253,55.81406,37.500443,210.6,0,1199
-0.031126,-0.01676,9.897932,-0.000375,-0.001415,0.000213,-19.38,-13.02,-48.96,122.8976,0.0725,0.2253,55.81406,37.500443,210.6,0,1208
-0.043097,-0.01676,9.866806,0.000236,0.00225,-0.001619,-19.38,-13.02,-48.96,122.8976,0.0725,0.2253,55.81406,37.500443,210.6,0,1219
-0.043097,-0.01676,9.866806,0.002068,0.001029,0.002046,-19.68,-12.96,-48.48,122.9033,0.073,0.2231,55.81406,37.500443,210.6,0,1228
-0.047885,-0.01676,9.881172,-0.000986,-0.000804,0.000824,-19.68,-12.96,-48.48,122.9033,0.073,0.2231,55.81406,37.500443,210.6,0,1238
-0.047885,-0.011971,9.885961,0.000847,0.001029,0.001435,-19.74,-13.2,-47.88,122.9033,0.073,0.2231,55.81406,37.500443,210.6,0,1248
-0.05028,-0.019154,9.859624,-0.000375,-0.000804,0.002657,-19.74,-13.2,-47.88,122.9033,0.073,0.2231,55.81406,37.500443,210.6,0,1259
-0.03352,-0.01676,9.881172,-0.002208,0.000418,0.000213,-19.98,-13.5,-48.06,122.907,0.0727,0.2193,55.81406,37.500443,210.6,0,1268
-0.028731,-0.019154,9.866806,-0.000375,-0.001415,0.000213,-19.98,-13.5,-48.06,122.907,0.0727,0.2193,55.81406,37.500443,210.6,0,1278
-0.028731,-0.019154,9.866806,0.002679,-0.000804,0.000824,-20.28,-13.38,-47.82,122.907,0.0727,0.2193,55.81406,37.500443,210.6,0,1289
-0.03352,-0.014366,9.866806,0.001458,-0.001415,0.000824,-20.28,-13.38,-47.82,122.907,0.0727,0.2193,55.81406,37.500443,210.6,0,1299
-0.035914,-0.03352,9.871595,0.001458,-0.001415,0.000824,-20.16,-13.08,-47.88,122.924,0.0824,0.2185,55.81406,37.500443,210.6,0,1308
-0.040703,-0.009577,9.883567,0.000236,0.00164,-0.000398,-20.16,-13.08,-47.88,122.924,0.0824,0.2185,55.81406,37.500443,210.6,0,1318
-0.028731,0,9.847652,-0.000986,0.000418,0.000213,-19.74,-12.96,-48.18,122.924,0.0824,0.2185,55.81406,37.500443,210.6,0,1329
-0.028731,0,9.847652,-0.001597,-0.003858,-0.001009,-19.74,-12.96,-48.18,122.924,0.0824,0.2185,55.81406,37.500443,210.6,0,1339
-0.05028,0,9.885961,0.002679,-0.002026,0.000213,-20.04,-13.2,-48,122.9196,0.0802,0.2192,55.81406,37.500443,210.6,0,1348
-0.035914,-0.014366,9.878778,0.000236,-0.000193,0.002046,-20.04,-13.2,-48,122.9196,0.0802,0.2192,55.81406,37.500443,210.6,0,1359
-0.040703,-0.002394,9.878778,-0.000375,-0.000193,-0.004063,-20.1,-13.2,-48.78,122.9196,0.0802,0.2192,55.81406,37.500443,210.6,0,1368
-0.040703,-0.002394,9.878778,-0.000986,-0.001415,0.000213,-20.1,-13.2,-48.78,122.9196,0.0802,0.2192,55.81406,37.500443,210.6,0,1378
-0.045491,-0.01676,9.871595,0.000236,0.000418,-0.001009,-19.92,-13.2,-48.54,122.9104,0.076,0.219,55.81406,37.500443,210.6,0,1389
-0.019154,-0.007183,9.881172,0.002068,0.000418,0.000824,-19.92,-13.2,-48.54,122.9104,0.076,0.219,55.81406,37.500443,210.6,0,1399
-0.064645,-0.014366,9.857229,0.002068,0.00225,0.001435,-19.8,-12.96,-48.18,122.9104,0.076,0.219,55.81406,37.500443,210.6,0,1409
-0.035914,-0.01676,9.857229,0.000236,-0.000804,0.002046,-19.8,-12.96,-48.18,122.9104,0.076,0.219,55.81406,37.500443,210.6,0,1419
-0.035914,-0.01676,9.857229,0.002068,0.000418,0.000824,-19.5,-12.48,-48.78,122.1408,0.0677,0.224,55.81406,37.500443,210.6,0,1428
-0.047885,-0.007183,9.869201,-0.000986,-0.000193,0.000213,-19.5,-12.48,-48.78,122.1408,0.0677,0.224,55.81406,37.500443,210.6,0,1438
-0.05028,0.002394,9.857229,0.002068,0.001029,0.001435,-19.86,-12.78,-48.3,122.1408,0.0677,0.224,55.81406,37.500443,210.6,0,1448
-0.026337,-0.004789,9.873989,0.000236,0.002861,0.002657,-19.86,-12.78,-48.3,122.1408,0.0677,0.224,55.81406,37.500443,210.6,0,1458
-0.026337,-0.011971,9.864412,-0.001597,0.000418,0.001435,-19.98,-13.2,-48.18,122.8919,0.0665,0.2235,55.81406,37.500443,210.6,0,1469
-0.021548,-0.011971,9.864412,0.000236,-0.000804,0.000213,-19.98,-13.2,-48.18,122.8919,0.0665,0.2235,55.81406,37.500443,210.6,0,1478
-0.028731,-0.01676,9.871595,0.000847,0.00164,0.000824,-19.8,-13.2,-48.48,122.8919,0.0665,0.2235,55.81406,37.500443,210.6,0,1488
-0.057463,-0.004789,9.881172,0.001458,0.000418,0.002046,-19.8,-13.2,-48.48,122.8919,0.0665,0.2235,55.81406,37.500443,210.6,0,1499
-0.057463,-0.004789,9.881172,0.001458,0.004083,0.003268,-20.46,-12.6,-48.84,122.8891,0.067,0.2245,55.81406,37.500443,210.6,0,1508
-0.043097,-0.026337,9.876384,0.000236,0.001029,-0.000398,-20.46,-12.6,-48.84,122.8891,0.067,0.2245,55.81406,37.500443,210.6,0,1519
-0.031126,-0.021548,9.852441,0.000236,0.001029,-0.000398,-20.4,-13.14,-49.2,122.8891,0.067,0.2245,55.81406,37.500443,210.6,0,1529
-0.026337,-0.026337,9.866806,-0.001597,-0.000193,0.000213,-20.4,-13.14,-49.2,122.8891,0.067,0.2245,55.81406,37.500443,210.6,0,1539
-0.019154,-0.01676,9.873989,0.000236,0.00225,0.002046,-19.44,-13.56,-49.14,126.2212,0.0686,0.2266,55.81406,37.500443,210.6,0,1548
-0.019154,-0.01676,9.873989,-0.002819,-0.003247,-0.001619,-19.44,-13.56,-49.14,126.2212,0.0686,0.2266,55.81406,37.500443,210.6,0,1558
-0.035914,-0.019154,9.852441,-0.000986,-0.001415,-0.001009,-19.14,-13.38,-49.02,126.2212,0.0686,0.2266,55.81406,37.500443,210.6,0,1569
-0.043097,-0.009577,9.871595,0.002068,0.002861,0.001435,-19.14,-13.38,-49.02,126.2212,0.0686,0.2266,55.81406,37.500443,210.6,0,1578
-0.038308,-0.021548,9.885961,-0.001597,0.001029,-0.001009,-19.86,-12.96,-48.54,122.9001,0.0728,0.2234,55.81406,37.500443,210.6,0,1588
-0.038308,-0.021548,9.885961,-0.000375,-0.003247,0.002046,-19.86,-12.96,-48.54,122.9001,0.0728,0.2234,55.81406,37.500443,210.6,0,1599
-0.038308,-0.009577,9.864412,0.001458,0.00225,-0.001619,-20.16,-13.02,-48.66,122.9001,0.0728,0.2234,55.81406,37.500443,210.6,0,1609
-0.031126,-0.009577,9.869201,0.001458,-0.000193,0.000213,-20.16,-13.02,-48.66,122.9001,0.0728,0.2234,55.81406,37.500443,210.6,0,1619
-0.040703,-0.002394,9.864412,-0.000986,0.000418,-0.00223,-19.68,-13.02,-48.9,122.8989,0.0712,0.2221,55.81406,37.500443,210.6,0,1628
-0.03352,-0.01676,9.878778,-0.000986,0.000418,-0.00223,-19.68,-13.02,-48.9,122.8989,0.0712,0.2221,55.81406,37.500443,210.6,0,1638
-0.03352,-0.011971,9.871595,0.001458,-0.001415,-0.001009,-19.8,-12.6,-49.02,122.8989,0.0712,0.2221,55.81406,37.500443,210.6,0,1649
-0.03352,-0.011971,9.871595,-0.001597,0.00164,0.000824,-19.8,-12.6,-49.02,122.8989,0.0712,0.2221,55.81406,37.500443,210.6,0,1658
-0.047885,-0.01676,9.871595,-0.000986,0.00164,0.002657,-20.16,-12.72,-49.02,122.89,0.0664,0.2227,55.81406,37.500443,210.6,0,1669
-0.028731,-0.021548,9.881172,0.000236,-0.002636,0.001435,-20.16,-12.72,-49.02,122.89,0.0664,0.2227,55.81406,37.500443,210.6,0,1679
-0.028731,-0.021548,9.881172,0.000236,-0.000804,-0.001619,-20.16,-12.72,-49.02,122.89,0.0664,0.2227,55.81406,37.500443,210.6,0,1689
-0.021548,-0.026337,9.876384,0.001458,-0.000193,-0.001619,-19.98,-13.5,-49.2,122.89,0.0664,0.2227,55.81406,37.500443,210.6,0,1699
-0.009577,-0.023943,9.866806,-0.000375,0.00225,-0.001009,-19.56,-13.74,-49.44,124.84,0.0635,0.2239,55.81406,37.500443,210.6,0,1708
-0.040703,-0.023943,9.866806,-0.002819,-0.001415,-0.001619,-19.56,-13.74,-49.44,124.84,0.0635,0.2239,55.81406,37.500443,210.6,0,1718
-0.040703,-0.023943,9.866806,0.000236,-0.000193,0.000824,-19.68,-13.44,-48.96,124.84,0.0635,0.2239,55.81406,37.500443,210.6,0,1728
-0.026337,-0.002394,9.878778,0.000236,-0.003247,0.000213,-19.68,-13.44,-48.96,124.84,0.0635,0.2239,55.81406,37.500443,210.6,0,1739
-0.040703,-0.028731,9.869201,0.000236,-0.003247,0.000213,-19.74,-13.92,-49.26,124.8665,0.0734,0.2147,55.81406,37.500443,210.6,0,1748
-0.045491,-0.028731,9.881172,-0.000986,0.00225,-0.002841,-19.74,-13.92,-49.26,124.8665,0.0734,0.2147,55.81406,37.500443,210.6,0,1759
-0.023943,0.007183,9.881172,-0.002208,-0.000804,0.000824,-19.38,-13.26,-49.8,124.8665,0.0734,0.2147,55.81406,37.500443,210.6,0,1769
-0.03352,-0.023943,9.878778,-0.001597,-0.001415,0.000824,-19.38,-13.26,-49.8,124.8665,0.0734,0.2147,55.81406,37.500443,210.6,0,1779
-0.03352,-0.023943,9.878778,0.000847,0.00164,-0.000398,-19.32,-13.14,-48.72,124.2516,0.0734,0.2153,55.81406,37.500443,210.6,0,1788
-0.05028,-0.004789,9.893144,-0.000375,-0.001415,0.000213,-19.32,-13.14,-48.72,124.2516,0.0734,0.2153,55.81406,37.500443,210.6,0,1799
-0.03352,-0.019154,9.866806,0.000847,-0.001415,0.001435,-19.62,-13.32,-48.66,124.2516,0.0734,0.2153,55.81406,37.500443,210.6,0,1808
-0.031126,0,9.866806,-0.000986,0.002861,0.000213,-19.62,-13.32,-48.66,124.2516,0.0734,0.2153,55.81406,37.500443,210.6,0,1819
-0.031126,0,9.866806,-0.001597,-0.002026,0.000213,-19.92,-12.84,-48.78,122.9175,0.075,0.2111,55.81406,37.500443,210.6,0,1829
-0.035914,-0.038308,9.862018,0.000236,0.000418,-0.001009,-19.92,-12.84,-48.78,122.9175,0.075,0.2111,55.81406,37.500443,210.6,0,1839
-0.05028,-0.040703,9.883567,0.000236,0.000418,-0.001009,-20.28,-12.66,-48.48,122.9175,0.075,0.2111,55.81406,37.500443,210.6,0,1848
-0.045491,0.004789,9.840469,-0.000375,0.004694,0.002046,-20.28,-12.66,-48.48,122.9175,0.075,0.2111,55.81406,37.500443,210.6,0,1858
-0.023943,-0.047885,9.871595,-0.000986,-0.001415,-0.001009,-20.34,-13.02,-48.12,122.9248,0.0752,0.2067,55.81406,37.500443,210.6,0,1869
-0.023943,-0.047885,9.871595,0.000847,0.005305,-0.00223,-20.34,-13.02,-48.12,122.9248,0.0752,0.2067,55.81406,37.500443,210.6,0,1879
-0.038308,0.004789,9.859624,0.002068,0.001029,0.000824,-19.8,-13.08,-48.72,122.9248,0.0752,0.2067,55.81406,37.500443,210.6,0,1888
-0.026337,0.004789,9.912297,0.000236,-0.002026,-0.000398,-19.8,-13.08,-48.72,122.9248,0.0752,0.2067,55.81406,37.500443,210.6,0,1898
-0.038308,-0.014366,9.859624,0.000847,0.002861,-0.001009,-19.5,-12.66,-49.14,124.2867,0.092,0.213,55.81406,37.500443,210.6,0,1909
-0.038308,0.009577,9.866806,-0.001597,-0.003247,-0.001009,-20.1,-12.54,-49.02,124.2867,0.092,0.213,55.81406,37.500443,210.6,0,1919
-0.038308,0.009577,9.866806,-0.001597,-0.003247,-0.001009,-20.1,-12.54,-49.02,124.2867,0.092,0.213,55.81406,37.500443,210.6,0,1928
-0.035914,-0.019154,9.883567,-0.000986,-0.000193,-0.00223,-19.86,-12.66,-49.26,124.2867,0.092,0.213,55.81406,37.500443,210.6,0,1938
-0.035914,-0.019154,9.883567,0.001458,-0.001415,0.000824,-19.86,-12.66,-49.26,124.2867,0.092,0.213,55.81406,37.500443,210.6,0,1949
-0.055068,-0.011971,9.873989,0.002068,-0.002026,0.000824,-19.86,-12.66,-49.26,124.2867,0.092,0.213,55.81406,37.500443,210.6,0,1959
-0.05028,-0.011971,9.869201,-0.000986,-0.002026,0.000213,-19.68,-12.72,-49.92,122.9173,0.0802,0.2173,55.81406,37.500443,210.6,0,1969
-0.045491,-0.023943,9.893144,-0.000375,0.001029,-0.004063,-20.28,-13.38,-49.14,122.9173,0.0802,0.2173,55.81406,37.500443,210.6,0,1978
-0.014366,-0.026337,9.859624,-0.002819,0.001029,-0.000398,-20.28,-13.38,-49.14,122.9173,0.0802,0.2173,55.81406,37.500443,210.6,0,1988
-0.014366,-0.026337,9.859624,0.002679,0.000418,-0.001009,-19.8,-13.2,-48.66,122.9113,0.0754,0.2173,55.81406,37.500443,210.6,0,1999
-0.043097,0.004789,9.883567,-0.000986,-0.002636,-0.001619,-19.8,-13.2,-48.66,122.9113,0.0754,0.2173,55.81406,37.500443,210.6,0,2008
-0.03352,-0.023943,9.871595,-0.000986,-0.002636,0.000824,-19.8,-12.96,-48.66,122.9113,0.0754,0.2173,55.81406,37.500443,210.6,0,2019
-0.031126,-0.014366,9.871595,-0.000375,-0.003858,-0.001009,-19.8,-12.96,-48.66,122.9113,0.0754,0.2173,55.81406,37.500443,210.6,0,2029
-0.031126,-0.014366,9.871595,-0.000375,-0.003858,-0.001009,-20.22,-13.14,-48.72,122.9208,0.0782,0.2131,55.81406,37.500443,210.6,0,2038
-0.045491,-0.023943,9.864412,0.000847,-0.000804,0.000213,-20.22,-13.14,-48.72,122.9208,0.0782,0.2131,55.81406,37.500443,210.6,0,2048
-0.05028,-0.002394,9.878778,0.003901,0.002861,-0.000398,-19.8,-12.96,-48.96,122.9208,0.0782,0.2131,55.81406,37.500443,210.6,0,2058
-0.038308,-0.007183,9.862018,0.000236,0.004694,-0.001009,-19.8,-12.96,-48.96,122.9208,0.0782,0.2131,55.81406,37.500443,210.6,0,2068
-0.038308,-0.007183,9.862018,-0.000375,-0.003247,0.001435,-19.44,-12.66,-49.44,124.2611,0.0749,0.2094,55.81406,37.500443,210.6,0,2078
-0.03352,-0.019154,9.873989,0.000847,0.00225,0.001435,-19.44,-12.66,-49.44,124.2611,0.0749,0.2094,55.81406,37.500443,210.6,0,2088
-0.052674,0,9.854836,-0.002208,0.000418,0.002046,-19.92,-12.42,-49.02,124.2611,0.0749,0.2094,55.81406,37.500443,210.6,0,2098
-0.035914,-0.023943,9.897932,0.000236,-0.002026,-0.001619,-19.92,-12.42,-49.02,124.2611,0.0749,0.2094,55.81406,37.500443,210.6,0,2108
-0.035914,-0.023943,9.897932,-0.000986,0.002861,0.001435,-19.44,-13.02,-48.78,124.2579,0.073,0.2093,55.81406,37.500443,210.6,0,2118
-0.038308,-0.007183,9.878778,-0.000986,0.00225,0.003878,-19.44,-13.02,-48.78,124.2579,0.073,0.2093,55.81406,37.500443,210.6,0,2129
-0.035914,-0.023943,9.864412,0.000847,-0.002636,0.000824,-19.44,-13.38,-49.26,124.2579,0.073,0.2093,55.81406,37.500443,210.6,0,2138
-0.03352,-0.007183,9.869201,0.000847,0.004694,-0.001009,-19.44,-13.38,-49.26,124.2579,0.073,0.2093,55.81406,37.500443,210.6,0,2148
-0.03352,-0.007183,9.869201,0.000236,-0.000804,0.000213,-20.04,-13.02,-49.56,122.9095,0.0709,0.21,55.81406,37.500443,210.6,0,2159
-0.040703,-0.014366,9.850046,-0.001597,0.00164,-0.000398,-20.28,-12.9,-49.38,122.9095,0.0709,0.21,55.81406,37.500443,210.6,0,2168
-0.035914,-0.019154,9.881172,-0.001597,0.00164,-0.000398,-20.28,-12.9,-49.38,122.9095,0.0709,0.21,55.81406,37.500443,210.6,0,2179
-0.043097,0.004789,9.881172,0.000236,0.000418,0.003268,-19.86,-13.32,-48.78,122.9095,0.0709,0.21,55.81406,37.500443,210.6,0,2189
-0.043097,0.004789,9.881172,-0.000375,-0.000804,-0.001619,-19.86,-13.32,-48.78,122.9095,0.0709,0.21,55.81406,37.500443,210.6,0,2198
-0.038308,-0.019154,9.895537,0.000847,0.000418,0.001435,-19.86,-12.78,-48.42,122.9073,0.068,0.2117,55.81406,37.500443,210.6,0,2208
-0.043097,-0.023943,9.876384,-0.000986,0.001029,0.000824,-19.86,-12.78,-48.42,122.9073,0.068,0.2117,55.81406,37.500443,210.6,0,2218
-0.040703,-0.023943,9.885961,-0.002819,0.00164,-0.001009,-19.5,-12.84,-49.14,122.9073,0.068,0.2117,55.81406,37.500443,210.6,0,2229
-0.040703,-0.023943,9.885961,0.000236,-0.001415,0.000213,-19.5,-12.84,-49.14,122.9073,0.068,0.2117,55.81406,37.500443,210.6,0,2239
-0.031126,-0.007183,9.873989,0.002068,-0.000193,0.000213,-19.68,-12.66,-49.5,122.8983,0.0668,0.2158,55.81406,37.500443,210.6,0,2250
-0.043097,-0.007183,9.864412,0.002068,0.001029,0.000213,-19.68,-12.66,-49.5,122.8983,0.0668,0.2158,55.81406,37.500443,210.6,0,2258
-0.031126,-0.014366,9.878778,0.002068,-0.002026,0.000213,-19.86,-12.36,-48.6,122.8983,0.0668,0.2158,55.81406,37.500443,210.6,0,2269
-0.038308,-0.021548,9.869201,-0.001597,-0.002026,-0.000398,-19.86,-12.36,-48.6,122.8983,0.0668,0.2158,55.81406,37.500443,210.6,0,2278
-0.038308,-0.021548,9.869201,-0.001597,-0.002026,-0.000398,-19.98,-13.02,-48.78,122.8982,0.0699,0.2208,55.81406,37.500443,210.6,0,2289
-0.038308,-0.011971,9.876384,-0.000375,-0.002636,0.000213,-19.98,-13.02,-48.78,122.8982,0.0699,0.2208,55.81406,37.500443,210.6,0,2299
-0.040703,-0.007183,9.876384,-0.002819,-0.003247,-0.002841,-19.98,-13.38,-49.92,122.8982,0.0699,0.2208,55.81406,37.500443,210.6,0,2309
-0.038308,-0.007183,9.890749,-0.001597,-0.000193,0.001435,-19.98,-13.38,-49.92,122.8982,0.0699,0.2208,55.81406,37.500443,210.6,0,2318
-0.05028,-0.009577,9.873989,-0.000375,-0.002026,-0.000398,-19.5,-13.26,-49.26,124.24,0.072,0.2231,55.81406,37.500443,210.6,0,2329
-0.035914,-0.011971,9.885961,-0.002208,-0.000193,-0.000398,-19.5,-13.26,-49.26,124.24,0.072,0.2231,55.81406,37.500443,210.6,0,2339
-0.05028,-0.011971,9.878778,-0.002208,0.00164,-0.000398,-19.2,-13.02,-48.9,124.24,0.072,0.2231,55.81406,37.500443,210.6,0,2350
-0.05028,-0.011971,9.878778,0.002068,0.00164,0.000213,-19.2,-13.02,-48.9,124.24,0.072,0.2231,55.81406,37.500443,210.6,0,2358
-0.031126,0.002394,9.876384,0.000847,0.00164,-0.001619,-19.38,-13.2,-49.32,124.24,0.0741,0.226,55.81406,37.500443,210.6,0,2369
-0.031126,-0.023943,9.897932,-0.001597,0.002861,-0.000398,-19.38,-13.2,-49.32,124.24,0.0741,0.226,55.81406,37.500443,210.6,0,2378
-0.031126,-0.023943,9.897932,-0.001597,-0.000193,-0.001009,-19.74,-13.5,-48.66,124.24,0.0741,0.226,55.81406,37.500443,210.6,0,2388
-0.045491,-0.021548,9.869201,-0.002819,-0.001415,-0.002841,-19.74,-13.5,-48.66,124.24,0.0741,0.226,55.81406,37.500443,210.6,0,2399
-0.026337,-0.019154,9.885961,-0.000986,-0.000804,-0.00223,-19.56,-13.62,-48.6,124.8468,0.0695,0.2264,55.81406,37.500443,210.6,0,2409
-0.026337,-0.021548,9.873989,-0.000986,-0.000193,-0.001009,-19.5,-13.62,-48.42,124.8468,0.0695,0.2264,55.81406,37.500443,210.6,0,2418
-0.026337,-0.021548,9.873989,-0.000986,-0.000193,-0.001009,-19.5,-13.62,-48.42,124.8468,0.0695,0.2264,55.81406,37.500443,210.6,0,2428
-0.009577,-0.011971,9.873989,-0.000375,-0.000804,0.000213,-20.16,-13.86,-48.36,124.8468,0.0695,0.2264,55.81406,37.500443,210.6,0,2439
-0.055068,-0.004789,9.881172,0.000847,-0.000193,-0.000398,-20.16,-13.86,-48.36,124.8468,0.0695,0.2264,55.81406,37.500443,210.6,0,2450
-0.040703,-0.009577,9.873989,-0.000375,0.00164,0.000213,-19.92,-13.38,-48.78,122.8871,0.0644,0.2222,55.81406,37.500443,210.6,0,2459
-0.052674,-0.007183,9.876384,-0.000986,-0.001415,-0.001009,-19.74,-13.38,-48.84,122.8871,0.0644,0.2222,55.81406,37.500443,210.6,0,2469
-0.052674,-0.007183,9.876384,-0.000986,0.001029,0.002046,-19.74,-13.38,-48.84,122.8871,0.0644,0.2222,55.81406,37.500443,210.6,0,2478
-0.038308,-0.007183,9.854836,-0.000375,-0.000193,0.000213,-19.5,-12.96,-49.32,122.8871,0.0644,0.2222,55.81406,37.500443,210.6,0,2489
-0.028731,-0.011971,9.890749,0.000847,-0.000804,-0.001009,-19.5,-12.96,-49.32,122.8871,0.0644,0.2222,55.81406,37.500443,210.6,0,2498
-0.038308,-0.007183,9.881172,-0.000375,0.00164,0.002657,-19.2,-12.72,-49.14,124.2212,0.0623,0.2247,55.81406,37.500443,210.6,0,2508
-0.038308,-0.007183,9.881172,-0.000375,0.00164,0.002657,-19.2,-12.72,-49.14,124.2212,0.0623,0.2247,55.81406,37.500443,210.6,0,2518
-0.031126,-0.028731,9.876384,-0.000986,-0.000804,-0.000398,-19.08,-13.14,-49.38,124.2212,0.0623,0.2247,55.81406,37.500443,210.6,0,2528
-0.045491,-0.007183,9.854836,-0.002208,-0.000804,-0.001009,-19.08,-13.14,-49.38,124.2212,0.0623,0.2247,55.81406,37.500443,210.6,0,2539
-0.019154,-0.014366,9.876384,-0.003429,-0.002636,-0.004674,-19.2,-13.86,-48.84,126.2149,0.0636,0.225,55.81406,37.500443,210.6,0,2548
-0.05028,-0.009577,9.869201,0.000847,-0.001415,0.001435,-19.2,-13.86,-48.84,126.2149,0.0636,0.225,55.81406,37.500443,210.6,0,2559
-0.05028,-0.009577,9.869201,0.002068,0.001029,-0.001619,-19.68,-13.44,-48.48,126.2149,0.0636,0.225,55.81406,37.500443,210.6,0,2568
-0.047885,-0.011971,9.876384,0.000847,-0.002026,-0.001619,-19.68,-13.44,-48.48,126.2149,0.0636,0.225,55.81406,37.500443,210.6,0,2579
-0.035914,-0.014366,9.876384,0.000236,0.00164,-0.001009,-20.16,-12.78,-48.78,122.8978,0.0661,0.2152,55.81406,37.500443,210.6,0,2589
-0.052674,-0.014366,9.876384,-0.000375,0.001029,-0.001009,-20.16,-12.78,-48.78,122.8978,0.0661,0.2152,55.81406,37.500443,210.6,0,2598
-0.035914,-0.009577,9.864412,-0.001597,-0.002636,-0.001009,-20.04,-12.66,-49.38,122.8978,0.0661,0.2152,55.81406,37.500443,210.6,0,2608
-0.035914,-0.009577,9.864412,-0.001597,-0.002636,-0.001009,-20.04,-12.66,-49.38,122.8978,0.0661,0.2152,55.81406,37.500443,210.6,0,2618
-0.043097,-0.019154,9.890749,-0.000375,0.000418,0.000824,-20.16,-12.66,-49.38,122.8978,0.0661,0.2152,55.81406,37.500443,210.6,0,2629
-0.045491,-0.014366,9.890749,0.000236,-0.000193,-0.000398,-20.28,-13.26,-49.74,122.9049,0.0686,0.2105,55.81406,37.500443,210.6,0,2638
-0.045491,-0.021548,9.885961,0.002068,-0.001415,-0.001009,-20.28,-13.26,-49.74,122.9049,0.0686,0.2105,55.81406,37.500443,210.6,0,2650
-0.045491,-0.021548,9.885961,-0.001597,0.00164,-0.000398,-19.92,-13.44,-49.68,122.9049,0.0686,0.2105,55.81406,37.500443,210.6,0,2659
-0.03352,-0.01676,9.888355,0.000847,-0.000193,-0.001009,-19.92,-13.44,-49.68,122.9049,0.0686,0.2105,55.81406,37.500443,210.6,0,2668
-0.043097,-0.014366,9.873989,-0.000986,-0.000193,-0.00223,-19.98,-13.08,-49.38,122.9049,0.0686,0.2105,55.81406,37.500443,210.6,0,2679
-0.031126,-0.026337,9.876384,0.001458,-0.000193,0.001435,-19.56,-12.84,-49.44,122.9146,0.0744,0.2128,55.81406,37.500443,210.6,0,2689
-0.031126,-0.026337,9.876384,-0.000375,0.002861,0.000213,-19.56,-12.84,-49.44,122.9146,0.0744,0.2128,55.81406,37.500443,210.6,0,2698
-0.028731,0.011971,9.850046,0.000236,-0.004469,0.002657,-19.68,-13.02,-49.68,122.9146,0.0744,0.2128,55.81406,37.500443,210.6,0,2709
-0.023943,-0.031126,9.873989,0.001458,0.000418,-0.000398,-19.68,-13.02,-49.68,122.9146,0.0744,0.2128,55.81406,37.500443,210.6,0,2718
-0.05028,-0.002394,9.876384,-0.000375,0.00164,-0.000398,-20.22,-13.02,-49.14,122.919,0.0789,0.2158,55.81406,37.500443,210.6,0,2729
-0.05028,-0.002394,9.876384,-0.000986,-0.001415,0.002657,-20.22,-13.02,-49.14,122.919,0.0789,0.2158,55.81406,37.500443,210.6,0,2739
-0.038308,-0.01676,9.876384,0.001458,0.000418,0.000824,-19.68,-12.54,-48.9,122.919,0.0789,0.2158,55.81406,37.500443,210.6,0,2748
-0.031126,-0.014366,9.871595,-0.000375,0.00164,0.000824,-19.68,-12.54,-48.9,122.919,0.0789,0.2158,55.81406,37.500443,210.6,0,2758
-0.01676,-0.019154,9.873989,-0.002208,-0.002636,0.000213,-19.86,-12.48,-48.72,120.8694,0.0764,0.2153,55.81406,37.500443,210.6,0,2768
-0.01676,-0.019154,9.873989,-0.000986,-0.003247,-0.002841,-19.86,-12.48,-48.72,120.8694,0.0764,0.2153,55.81406,37.500443,210.6,0,2778
-0.038308,-0.019154,9.881172,0.002679,0.00164,0.000824,-19.44,-13.08,-49.2,120.8694,0.0764,0.2153,55.81406,37.500443,210.6,0,2789
-0.031126,-0.002394,9.876384,0.002679,0.00164,0.000824,-19.44,-13.08,-49.2,120.8694,0.0764,0.2153,55.81406,37.500443,210.6,0,2799
-0.047885,-0.007183,9.871595,0.000236,0.00225,0.000824,-19.02,-12.84,-49.08,124.2543,0.075,0.2153,55.81406,37.500443,210.6,0,2808
-0.047885,-0.007183,9.871595,0.001458,0.00225,0.001435,-19.02,-12.84,-49.08,124.2543,0.075,0.2153,55.81406,37.500443,210.6,0,2818
-0.040703,-0.021548,9.869201,-0.002819,-0.000804,-0.002841,-19.26,-12.78,-49.32,124.2543,0.075,0.2153,55.81406,37.500443,210.6,0,2828
-0.045491,-0.009577,9.864412,0.002679,0.00225,0.001435,-19.68,-12.9,-49.08,124.2543,0.075,0.2153,55.81406,37.500443,210.6,0,2838
-0.047885,-0.007183,9.862018,0.001458,-0.001415,0.000824,-19.68,-12.9,-49.08,124.2543,0.075,0.2153,55.81406,37.500443,210.6,0,2848
-0.047885,-0.007183,9.862018,0.000236,-0.001415,-0.001619,-19.86,-12.48,-48.84,120.8743,0.0779,0.2133,55.81406,37.500443,210.6,0,2858
-0.05028,-0.004789,9.866806,0.000236,-0.000193,0.000824,-19.86,-12.48,-48.84,120.8743,0.0779,0.2133,55.81406,37.500443,210.6,0,2869
-0.023943,-0.028731,9.878778,-0.001597,-0.002636,-0.001009,-20.1,-12.78,-49.56,120.8743,0.0779,0.2133,55.81406,37.500443,210.6,0,2879
-0.043097,-0.023943,9.859624,0.000847,-0.001415,0.000213,-20.1,-12.78,-49.56,120.8743,0.0779,0.2133,55.81406,37.500443,210.6,0,2888
-0.05028,-0.009577,9.871595,0.000847,0.001029,0.001435,-20.28,-13.32,-49.14,122.9088,0.0712,0.213,55.81406,37.500443,210.6,0,2899
-0.05028,-0.009577,9.871595,-0.002208,-0.000193,-0.002841,-20.28,-13.32,-49.14,122.9088,0.0712,0.213,55.81406,37.500443,210.6,0,2908
-0.023943,-0.01676,9.876384,0.000847,0.001029,0.002046,-20.1,-12.96,-48.9,122.9088,0.0712,0.213,55.81406,37.500443,210.6,0,2919
-0.043097,-0.023943,9.854836,0.002068,0.00164,0.000824,-20.1,-12.96,-48.9,122.9088,0.0712,0.213,55.81406,37.500443,210.6,0,2929
-0.038308,-0.021548,9.888355,0.001458,0.002861,-0.000398,-19.56,-12.96,-48.96,122.8993,0.067,0.2152,55.81406,37.500443,210.6,0,2939
-0.038308,-0.021548,9.888355,0.001458,0.002861,-0.000398,-19.56,-12.96,-48.96,122.8993,0.067,0.2152,55.81406,37.500443,210.6,0,2948
-0.035914,-0.014366,9.859624,0.001458,0.00225,0.001435,-19.5,-12.6,-49.14,122.8993,0.067,0.2152,55.81406,37.500443,210.6,0,2959
-0.040703,-0.007183,9.862018,-0.000986,-0.002636,0.002657,-19.5,-12.6,-49.14,122.8993,0.067,0.2152,55.81406,37.500443,210.6,0,2968
-0.01676,-0.014366,9.878778,0.000847,0.000418,-0.00223,-19.86,-12.6,-49.14,122.893,0.0644,0.2169,55.81406,37.500443,210.6,0,2978
-0.05028,-0.009577,9.871595,-0.000986,-0.002026,-0.001009,-19.86,-12.6,-49.14,122.893,0.0644,0.2169,55.81406,37.500443,210.6,0,2989
-0.05028,-0.009577,9.871595,-0.000375,-0.000804,0.000213,-20.04,-12.72,-48.48,122.893,0.0644,0.2169,55.81406,37.500443,210.6,0,2998
-0.03352,-0.011971,9.881172,-0.002819,-0.000804,0.000824,-20.04,-12.72,-48.48,122.893,0.0644,0.2169,55.81406,37.500443,210.6,0,3009
-0.052674,-0.004789,9.878778,-0.000375,0.001029,-0.001619,-20.34,-12.84,-48.66,122.8977,0.0673,0.2171,55.81406,37.500443,210.6,0,3019
-0.052674,-0.004789,9.878778,-0.000375,0.001029,-0.001619,-20.34,-12.84,-48.66,122.8977,0.0673,0.2171,55.81406,37.500443,210.6,0,3029
-0.045491,-0.014366,9.866806,0.000236,0.000418,0.002046,-20.76,-13.2,-48.36,122.8977,0.0673,0.2171,55.81406,37.500443,210.6,0,3038
-0.040703,0.004789,9.864412,-0.000375,-0.000804,0.000213,-20.28,-12.42,-48.42,122.8977,0.0673,0.2171,55.81406,37.500443,210.6,0,3048
-0.03352,-0.019154,9.883567,0.000847,-0.000193,0.000213,-20.28,-12.42,-48.42,122.8977,0.0673,0.2171,55.81406,37.500443,210.6,0,3058
-0.055068,-0.014366,9.847652,0.000847,0.00225,0.002046,-19.5,-12.66,-49.56,124.2366,0.0688,0.2187,55.81406,37.500443,210.6,0,3069
-0.055068,-0.014366,9.847652,-0.004651,-0.003247,-0.004674,-19.5,-12.66,-49.56,124.2366,0.0688,0.2187,55.81406,37.500443,210.6,0,3078
-0.019154,-0.026337,9.862018,-0.004651,-0.003247,-0.004674,-19.5,-12.66,-49.56,124.2366,0.0688,0.2187,55.81406,37.500443,210.6,0,3089
-0.031126,-0.014366,9.866806,-0.000375,-0.000804,-0.000398,-19.62,-13.92,-48.9,124.2366,0.0688,0.2187,55.81406,37.500443,210.6,0,3098
-0.028731,-0.028731,9.864412,-0.001597,0.005305,-0.001009,-20.28,-13.68,-48.24,124.8511,0.0682,0.2233,55.81406,37.500443,210.6,0,3108
-0.023943,-0.021548,9.885961,-0.002208,-0.002026,-0.000398,-20.28,-13.68,-48.24,124.8511,0.0682,0.2233,55.81406,37.500443,210.6,0,3118
-0.023943,-0.021548,9.885961,-0.001597,0.000418,-0.00223,-20.76,-12.84,-48.78,124.8511,0.0682,0.2233,55.81406,37.500443,210.6,0,3129
-0.03352,-0.01676,9.862018,0.001458,-0.000193,0.002046,-20.76,-12.84,-48.78,124.8511,0.0682,0.2233,55.81406,37.500443,210.6,0,3138
-0.023943,-0.03352,9.883567,-0.002208,-0.003858,-0.001009,-19.86,-12.42,-48.96,120.8499,0.0681,0.2196,55.81406,37.500443,210.6,0,3148
-0.043097,-0.004789,9.864412,0.000236,-0.000804,0.000213,-19.86,-12.42,-48.96,120.8499,0.0681,0.2196,55.81406,37.500443,210.6,0,3158
-0.043097,-0.004789,9.864412,-0.003429,-0.003858,-0.000398,-19.86,-12.6,-48.9,120.8499,0.0681,0.2196,55.81406,37.500443,210.6,0,3168
-0.035914,-0.009577,9.871595,-0.000986,0.000418,-0.002841,-19.86,-12.6,-48.9,120.8499,0.0681,0.2196,55.81406,37.500443,210.6,0,3178
-0.05028,-0.023943,9.866806,0.000236,0.00225,0.002657,-19.62,-13.38,-48.96,122.9056,0.0702,0.2145,55.81406,37.500443,210.6,0,3189
-0.040703,-0.011971,9.878778,-0.002819,0.001029,0.000824,-19.62,-13.38,-48.96,122.9056,0.0702,0.2145,55.81406,37.500443,210.6,0,3198
-0.040703,-0.011971,9.878778,-0.000986,-0.000804,-0.00223,-19.8,-12.84,-49.26,122.9056,0.0702,0.2145,55.81406,37.500443,210.6,0,3209
-0.043097,-0.004789,9.883567,-0.001597,-0.000193,0.000824,-19.8,-12.84,-49.26,122.9056,0.0702,0.2145,55.81406,37.500443,210.6,0,3218
-0.045491,0.007183,9.878778,0.000236,0.001029,0.0051,-20.04,-12.48,-49.02,120.875,0.0754,0.2083,55.81406,37.500443,210.6,0,3228
-0.043097,-0.021548,9.873989,0.001458,0.001029,0.000213,-20.28,-12.66,-48.84,120.875,0.0754,0.2083,55.81406,37.500443,210.6,0,3239
-0.043097,-0.021548,9.873989,0.001458,0.001029,0.000213,-20.28,-12.66,-48.84,120.875,0.0754,0.2083,55.81406,37.500443,210.6,0,3248
-0.03352,-0.009577,9.873989,-0.002208,-0.002026,-0.000398,-19.98,-12.78,-48.42,120.875,0.0754,0.2083,55.81406,37.500443,210.6,0,3259
-0.038308,-0.014366,9.883567,0.000236,0.000418,-0.001619,-19.98,-12.78,-48.42,120.875,0.0754,0.2083,55.81406,37.500443,210.6,0,3268
-0.038308,-0.014366,9.883567,-0.000375,0.001029,-0.000398,-20.1,-12.72,-48.54,122.9161,0.0791,0.2186,55.81406,37.500443,210.6,0,3279
-0.031126,-0.011971,9.869201,-0.000375,0.000418,0.000824,-20.1,-12.72,-48.54,122.9161,0.0791,0.2186,55.81406,37.500443,210.6,0,3288
-0.047885,0.002394,9.869201,-0.001597,-0.002636,-0.001009,-20.34,-12.9,-49.08,122.9161,0.0791,0.2186,55.81406,37.500443,210.6,0,3298
-0.035914,-0.007183,9.876384,0.001458,0.002861,-0.000398,-20.34,-12.9,-49.08,122.9161,0.0791,0.2186,55.81406,37.500443,210.6,0,3308
-0.038308,-0.002394,9.869201,0.000236,-0.000193,0.000824,-19.26,-13.26,-49.44,124.2559,0.0788,0.2196,55.81406,37.500443,210.6,0,3319
-0.038308,-0.002394,9.869201,-0.000986,0.00225,0.000213,-19.26,-13.26,-49.44,124.2559,0.0788,0.2196,55.81406,37.500443,210.6,0,3328
-0.035914,-0.009577,9.890749,-0.000375,0.000418,0.000213,-19.02,-13.38,-49.02,124.2559,0.0788,0.2196,55.81406,37.500443,210.6,0,3338
-0.038308,-0.014366,9.866806,0.000847,0.00225,0.000213,-19.02,-13.38,-49.02,124.2559,0.0788,0.2196,55.81406,37.500443,210.6,0,3348
-0.035914,-0.01676,9.893144,-0.001597,0.00164,-0.000398,-19.62,-13.08,-48.66,122.9205,0.0815,0.2184,55.81406,37.500443,210.6,0,3359
-0.047885,-0.004789,9.881172,-0.001597,0.00164,-0.000398,-19.62,-13.08,-48.66,122.9205,0.0815,0.2184,55.81406,37.500443,210.6,0,3368
-0.047885,-0.004789,9.881172,0.000847,-0.000193,0.002657,-20.04,-12.84,-48.6,122.9205,0.0815,0.2184,55.81406,37.500443,210.6,0,3379
-0.023943,-0.007183,9.883567,0.000236,0.004083,0.001435,-20.04,-12.84,-48.6,122.9205,0.0815,0.2184,55.81406,37.500443,210.6,0,3388
-0.040703,-0.014366,9.883567,0.000236,-0.003858,-0.001009,-20.46,-12.84,-48.9,122.9075,0.0799,0.2277,55.81406,37.500443,210.6,0,3398
-0.03352,-0.01676,9.869201,-0.000375,-0.003858,-0.001619,-20.46,-12.84,-48.9,122.9075,0.0799,0.2277,55.81406,37.500443,210.6,0,3409
-0.011971,-0.028731,9.876384,0.000236,0.000418,0.001435,-20.22,-13.38,-49.14,122.9075,0.0799,0.2277,55.81406,37.500443,210.6,0,3419
-0.023943,0,9.862018,0.002068,0.000418,0.001435,-20.22,-13.38,-49.14,122.9075,0.0799,0.2277,55.81406,37.500443,210.6,0,3430
-0.023943,0,9.862018,-0.001597,0.001029,0.000213,-19.74,-13.44,-48.9,122.9184,0.0829,0.2226,55.81406,37.500443,210.6,0,3438
-0.023943,-0.011971,9.873989,-0.000986,-0.001415,-0.000398,-19.74,-13.44,-48.9,122.9184,0.0829,0.2226,55.81406,37.500443,210.6,0,3449
-0.028731,-0.021548,9.869201,0.000847,0.000418,-0.001009,-20.04,-13.08,-49.14,122.9184,0.0829,0.2226,55.81406,37.500443,210.6,0,3459
-0.03352,-0.014366,9.876384,0.000236,-0.001415,0.000824,-20.04,-13.08,-49.14,122.9184,0.0829,0.2226,55.81406,37.500443,210.6,0,3468
-0.03352,-0.014366,9.876384,0.000847,-0.001415,-0.001619,-19.92,-13.44,-49.44,122.9227,0.0841,0.2204,55.81406,37.500443,210.6,0,3478
-0.038308,-0.014366,9.893144,0.000847,-0.000804,-0.001009,-19.56,-13.14,-49.44,122.9227,0.0841,0.2204,55.81406,37.500443,210.6,0,3489
-0.05028,-0.002394,9.876384,0.000847,-0.000804,-0.001009,-19.56,-13.14,-49.44,122.9227,0.0841,0.2204,55.81406,37.500443,210.6,0,3498
-0.071828,-0.007183,9.888355,-0.002208,-0.002026,0.001435,-18.96,-13.26,-49.56,122.9227,0.0841,0.2204,55.81406,37.500443,210.6,0,3508
-0.045491,-0.004789,9.864412,-0.000375,-0.000804,-0.004063,-18.96,-13.26,-49.56,122.9227,0.0841,0.2204,55.81406,37.500443,210.6,0,3518
-0.045491,-0.004789,9.864412,-0.002819,-0.002026,-0.001009,-19.68,-13.2,-48.78,122.929,0.0848,0.2158,55.81406,37.500443,210.6,0,3528
-0.035914,-0.031126,9.876384,0.002068,0.00225,0.002046,-19.68,-13.2,-48.78,122.929,0.0848,0.2158,55.81406,37.500443,210.6,0,3539
-0.05028,-0.002394,9.871595,0.001458,0.00164,-0.000398,-19.98,-12.54,-48.84,122.929,0.0848,0.2158,55.81406,37.500443,210.6,0,3549
-0.026337,-0.014366,9.859624,0.000847,-0.001415,0.000824,-19.98,-12.54,-48.84,122.929,0.0848,0.2158,55.81406,37.500443,210.6,0,3558
-0.026337,-0.014366,9.859624,0.000847,-0.001415,0.000824,-19.5,-12.6,-49.26,124.2676,0.0839,0.2172,55.81406,37.500443,210.6,0,3569
-0.035914,-0.002394,9.873989,0.001458,0.00225,0.000824,-19.5,-12.6,-49.26,124.2676,0.0839,0.2172,55.81406,37.500443,210.6,0,3579
-0.035914,-0.002394,9.873989,0.000236,0.00164,-0.001009,-19.5,-12.6,-49.26,124.2676,0.0839,0.2172,55.81406,37.500443,210.6,0,3588
-0.028731,-0.009577,9.869201,0.000236,0.000418,0.001435,-19.32,-12.9,-48.84,124.2676,0.0839,0.2172,55.81406,37.500443,210.6,0,3598
-0.038308,-0.014366,9.857229,0.000236,0.00164,-0.000398,-19.92,-13.38,-47.88,122.9313,0.0845,0.215,55.81406,37.500443,210.6,0,3608
-0.043097,-0.002394,9.864412,-0.000375,-0.003247,-0.001009,-19.92,-13.38,-47.88,122.9313,0.0845,0.215,55.81406,37.500443,210.6,0,3619
-0.035914,-0.01676,9.885961,-0.001597,-0.000804,-0.003452,-19.86,-13.44,-48.18,122.9313,0.0845,0.215,55.81406,37.500443,210.6,0,3628
-0.052674,-0.019154,9.869201,0.000847,0.000418,0.000824,-19.86,-13.44,-48.18,122.9313,0.0845,0.215,55.81406,37.500443,210.6,0,3638
-0.052674,-0.019154,9.869201,-0.000986,-0.002636,-0.00223,-19.68,-13.5,-49.14,122.9162,0.0725,0.2084,55.81406,37.500443,210.6,0,3648
-0.026337,-0.009577,9.881172,-0.003429,-0.000193,0.001435,-19.32,-13.38,-49.32,122.9162,0.0725,0.2084,55.81406,37.500443,210.6,0,3658
-0.045491,-0.009577,9.873989,-0.001597,-0.001415,-0.001009,-19.32,-13.38,-49.32,122.9162,0.0725,0.2084,55.81406,37.500443,210.6,0,3669
-0.05028,0,9.854836,-0.001597,-0.001415,-0.001009,-19.86,-12.72,-49.62,122.9162,0.0725,0.2084,55.81406,37.500443,210.6,0,3678
-0.05028,0,9.854836,-0.000375,0.001029,0.002657,-19.86,-12.72,-49.62,122.9162,0.0725,0.2084,55.81406,37.500443,210.6,0,3688
-0.05028,-0.007183,9.888355,-0.002208,-0.002636,-0.001619,-19.38,-13.08,-49.68,124.256,0.0712,0.2062,55.81406,37.500443,210.6,0,3699
-0.035914,-0.004789,9.871595,0.000847,0.00164,0.000824,-19.38,-13.08,-49.68,124.256,0.0712,0.2062,55.81406,37.500443,210.6,0,3709
-0.038308,-0.011971,9.873989,0.001458,0.00225,0.000824,-18.9,-13.56,-49.32,124.256,0.0712,0.2062,55.81406,37.500443,210.6,0,3719
-0.040703,0.002394,9.881172,0.000236,-0.003858,-0.000398,-18.9,-13.56,-49.32,124.256,0.0712,0.2062,55.81406,37.500443,210.6,0,3728
-0.040703,0.002394,9.881172,0.000236,-0.003858,-0.000398,-18.9,-13.56,-49.32,124.256,0.0712,0.2062,55.81406,37.500443,210.6,0,3738
-0.035914,-0.01676,9.876384,-0.002175,0.002212,-0.001637,-19.38,-13.38,-49.98,124.2451,0.0676,0.21,55.81406,37.500443,210.6,0,3748
-0.035914,-0.011971,9.873989,0.002101,-0.001453,0.001417,-19.26,-13.32,-49.62,124.2451,0.0676,0.21,55.81406,37.500443,210.6,0,3759
-0.026337,-0.011971,9.876384,-0.000953,0.000379,0.001417,-19.26,-13.32,-49.62,124.2451,0.0676,0.21,55.81406,37.500443,210.6,0,3768
-0.026337,-0.011971,9.876384,0.000269,0.000379,0.000195,-19.38,-13.08,-48.96,124.2479,0.0694,0.2126,55.81406,37.500443,210.6,0,3778
-0.03352,-0.007183,9.876384,0.002101,-0.000232,-0.001026,-19.38,-13.08,-48.96,124.2479,0.0694,0.2126,55.81406,37.500443,210.6,0,3790
-0.03352,-0.002394,9.866806,-0.001564,-0.000232,0.000195,-19.74,-12.54,-49.14,124.2479,0.0694,0.2126,55.81406,37.500443,210.6,0,3799
-0.03352,-0.023943,9.885961,-0.000953,0.00099,-0.002859,-19.68,-12.42,-49.2,124.2479,0.0694,0.2126,55.81406,37.500443,210.6,0,3808
-0.03352,-0.023943,9.885961,-0.000953,0.00099,-0.002859,-19.68,-12.42,-49.2,124.2479,0.0694,0.2126,55.81406,37.500443,210.6,0,3819
-0.045491,-0.009577,9.890749,-0.000953,-0.000232,-0.001026,-20.04,-12,-49.38,120.8541,0.0683,0.2162,55.81406,37.500443,210.6,0,3828
-0.035914,-0.023943,9.881172,0.001491,-0.000842,-0.000415,-20.28,-12.36,-49.68,120.8541,0.0683,0.2162,55.81406,37.500443,210.6,0,3840
-0.057463,0.009577,9.862018,0.000269,0.000379,0.001417,-20.28,-12.36,-49.68,120.8541,0.0683,0.2162,55.81406,37.500443,210.6,0,3849
-0.031126,-0.009577,9.876384,-0.002175,-0.000232,-0.001026,-20.04,-12.84,-49.62,120.8541,0.0683,0.2162,55.81406,37.500443,210.6,0,3859
-0.031126,-0.009577,9.876384,0.002101,0.000379,0.000806,-20.04,-12.84,-49.62,120.8541,0.0683,0.2162,55.81406,37.500443,210.6,0,3868
-0.03352,-0.007183,9.878778,-0.002175,-0.000842,0.000806,-19.44,-13.08,-49.26,124.244,0.0671,0.2124,55.81406,37.500443,210.6,0,3879
-0.038308,-0.019154,9.847652,0.003323,0.003434,0.001417,-19.44,-13.08,-49.26,124.244,0.0671,0.2124,55.81406,37.500443,210.6,0,3890
-0.045491,-0.01676,9.881172,-0.002175,-0.000842,-0.001026,-19.14,-13.32,-49.02,124.244,0.0671,0.2124,55.81406,37.500443,210.6,0,3898
-0.045491,-0.01676,9.881172,0.000269,0.003434,0.001417,-19.14,-13.32,-49.02,124.244,0.0671,0.2124,55.81406,37.500443,210.6,0,3909
-0.047885,-0.01676,9.864412,-0.000342,-0.001453,0.002028,-19.68,-13.32,-48.42,122.9081,0.0685,0.2118,55.81406,37.500443,210.6,0,3919
-0.040703,-0.026337,9.876384,-0.001564,-0.000842,-0.002248,-19.68,-13.32,-48.42,122.9081,0.0685,0.2118,55.81406,37.500443,210.6,0,3928
-0.047885,-0.007183,9.871595,-0.000342,0.002212,0.000195,-20.4,-12.96,-49.14,122.9081,0.0685,0.2118,55.81406,37.500443,210.6,0,3940
-0.047885,-0.007183,9.871595,-0.000342,0.001601,-0.001026,-20.4,-12.96,-49.14,122.9081,0.0685,0.2118,55.81406,37.500443,210.6,0,3948
-0.035914,-0.01676,9.869201,-0.000342,0.001601,-0.001026,-20.28,-13.2,-49.44,122.9091,0.07,0.2109,55.81406,37.500443,210.6,0,3958
-0.040703,-0.007183,9.864412,0.000269,-0.000232,-0.001026,-20.28,-13.2,-49.44,122.9091,0.07,0.2109,55.81406,37.500443,210.6,0,3968
-0.023943,-0.007183,9.873989,-0.002175,-0.002675,-0.001637,-19.86,-13.38,-48.78,122.9091,0.07,0.2109,55.81406,37.500443,210.6,0,3978
-0.035914,-0.021548,9.871595,-0.000342,-0.001453,0.000195,-19.68,-13.32,-48.78,122.9091,0.07,0.2109,55.81406,37.500443,210.6,0,3988
-0.035914,-0.021548,9.871595,-0.000953,-0.000232,0.00325,-19.68,-13.32,-48.78,122.9091,0.07,0.2109,55.81406,37.500443,210.6,0,3998
-0.052674,0,9.873989,-0.002175,-0.000842,0.000806,-19.08,-13.2,-49.02,124.2317,0.0629,0.2166,55.81406,37.500443,210.6,0,4009
-0.035914,-0.01676,9.883567,0.002101,0.002212,0.001417,-19.08,-13.2,-49.02,124.2317,0.0629,0.2166,55.81406,37.500443,210.6,0,4019
-0.052674,-0.014366,9.871595,0.000269,-0.000232,0.000195,-18.72,-13.38,-49.26,124.2317,0.0629,0.2166,55.81406,37.500443,210.6,0,4028
-0.03352,-0.007183,9.862018,-0.000342,0.000379,0.001417,-19.14,-13.5,-49.32,124.2317,0.0629,0.2166,55.81406,37.500443,210.6,0,4039
-0.03352,-0.007183,9.873989,0.001491,-0.000232,0.002639,-19.14,-13.5,-49.32,124.2317,0.0629,0.2166,55.81406,37.500443,210.6,0,4048
-0.03352,-0.007183,9.873989,0.001491,-0.000232,0.002639,-19.86,-13.26,-48.6,122.8839,0.0603,0.2188,55.81406,37.500443,210.6,0,4058
-0.03352,0.009577,9.871595,0.001491,-0.000232,0.001417,-19.86,-13.26,-48.6,122.8839,0.0603,0.2188,55.81406,37.500443,210.6,0,4069
-0.045491,-0.026337,9.869201,-0.000342,0.001601,-0.001637,-20.16,-13.62,-48.18,122.8839,0.0603,0.2188,55.81406,37.500443,210.6,0,4078
-0.038308,-0.01676,9.845258,-0.000342,-0.000232,0.000195,-20.16,-13.62,-48.18,122.8839,0.0603,0.2188,55.81406,37.500443,210.6,0,4091
-0.038308,-0.01676,9.845258,0.00088,0.000379,0.001417,-20.28,-13.62,-49.14,124.8389,0.0604,0.2204,55.81406,37.500443,210.6,0,4099
-0.023943,-0.004789,9.876384,0.000269,0.000379,-0.001026,-20.28,-13.62,-49.14,124.8389,0.0604,0.2204,55.81406,37.500443,210.6,0,4108
-0.03352,-0.019154,9.869201,-0.001564,-0.000842,-0.001637,-20.28,-12.72,-49.62,124.8389,0.0604,0.2204,55.81406,37.500443,210.6,0,4118
-0.038308,-0.019154,9.873989,0.001491,-0.000232,-0.000415,-19.86,-12.6,-49.26,124.8389,0.0604,0.2204,55.81406,37.500443,210.6,0,4129
-0.038308,-0.019154,9.873989,-0.001564,-0.000232,0.002028,-19.86,-12.6,-49.26,124.8389,0.0604,0.2204,55.81406,37.500443,210.6,0,4138
-0.040703,-0.004789,9.871595,0.000269,0.000379,-0.002859,-19.44,-12.84,-48.72,124.2437,0.0697,0.2164,55.81406,37.500443,210.6,0,4148
-0.026337,-0.014366,9.876384,-0.001564,-0.000232,0.000806,-19.44,-12.84,-48.72,124.2437,0.0697,0.2164,55.81406,37.500443,210.6,0,4159
-0.040703,-0.009577,9.857229,-0.001564,-0.000232,0.000806,-19.8,-12.84,-48.48,124.2437,0.0697,0.2164,55.81406,37.500443,210.6,0,4168
-0.057463,-0.007183,9.878778,-0.002786,0.001601,-0.002248,-19.8,-12.84,-48.48,124.2437,0.0697,0.2164,55.81406,37.500443,210.6,0,4178
-0.057463,-0.007183,9.878778,0.000269,-0.002064,0.000806,-19.8,-12.96,-48.36,122.902,0.0667,0.2146,55.81406,37.500443,210.6,0,4188
-0.05028,-0.023943,9.873989,0.001491,0.002823,-0.001637,-19.8,-12.96,-48.36,122.902,0.0667,0.2146,55.81406,37.500443,210.6,0,4198
-0.035914,0,9.878778,-0.000342,-0.002064,-0.000415,-18.96,-12.66,-48.9,122.902,0.0667,0.2146,55.81406,37.500443,210.6,0,4209
-0.045491,-0.009577,9.876384,0.00088,-0.001453,-0.001026,-18.96,-12.66,-48.9,122.902,0.0667,0.2146,55.81406,37.500443,210.6,0,4218
-0.043097,-0.019154,9.883567,-0.001564,-0.000842,-0.000415,-19.14,-12.54,-49.5,124.2434,0.0695,0.2164,55.81406,37.500443,210.6,0,4228
-0.052674,-0.011971,9.869201,-0.001564,0.00099,0.002028,-19.14,-12.54,-49.5,124.2434,0.0695,0.2164,55.81406,37.500443,210.6,0,4239
-0.052674,-0.011971,9.869201,-0.000342,0.000379,-0.001026,-19.62,-12.54,-49.2,124.2434,0.0695,0.2164,55.81406,37.500443,210.6,0,4248
-0.045491,-0.011971,9.866806,0.001491,0.00099,-0.000415,-19.62,-12.54,-49.2,124.2434,0.0695,0.2164,55.81406,37.500443,210.6,0,4259
-0.03352,-0.009577,9.895537,-0.000342,-0.001453,0.000195,-19.74,-12.66,-49.08,122.8967,0.0729,0.2268,55.81406,37.500443,210.6,0,4268
-0.055068,0,9.876384,-0.001564,-0.002064,0.000806,-19.74,-12.66,-49.08,122.8967,0.0729,0.2268,55.81406,37.500443,210.6,0,4278
-0.055068,0,9.876384,0.000269,0.000379,-0.001026,-19.86,-13.02,-49.5,122.8967,0.0729,0.2268,55.81406,37.500443,210.6,0,4289
-0.052674,-0.007183,9.845258,0.000269,-0.000232,-0.000415,-19.44,-12.9,-49.44,122.8967,0.0729,0.2268,55.81406,37.500443,210.6,0,4299
-0.05028,-0.014366,9.876384,0.000269,-0.000232,-0.000415,-19.44,-12.9,-49.44,122.8967,0.0729,0.2268,55.81406,37.500443,210.6,0,4308
-0.05028,-0.011971,9.873989,-0.000953,-0.000842,0.000806,-19.62,-13.62,-49.2,124.8456,0.075,0.2353,55.81406,37.500443,210.6,0,4318
-0.03352,-0.002394,9.864412,-0.000342,-0.003897,0.000806,-19.62,-13.62,-49.2,124.8456,0.075,0.2353,55.81406,37.500443,210.6,0,4329
-0.03352,-0.002394,9.864412,-0.000342,-0.003897,0.000806,-19.68,-13.62,-48.9,124.8456,0.075,0.2353,55.81406,37.500443,210.6,0,4338
-0.019154,-0.004789,9.881172,0.00088,0.001601,0.000806,-19.68,-13.62,-48.9,124.8456,0.075,0.2353,55.81406,37.500443,210.6,0,4349
-0.059857,-0.01676,9.876384,0.00088,0.001601,0.000806,-20.52,-13.26,-49.2,121.6387,0.0734,0.2352,55.81406,37.500443,210.6,0,4358
-0.043097,-0.021548,9.895537,-0.002786,-0.000842,-0.001637,-20.52,-13.26,-49.2,121.6387,0.0734,0.2352,55.81406,37.500443,210.6,0,4369
-0.038308,-0.007183,9.869201,0.000269,-0.001453,-0.001026,-20.94,-13.68,-48.9,121.6387,0.0734,0.2352,55.81406,37.500443,210.6,0,4379
-0.031126,-0.004789,9.864412,-0.002175,0.002212,-0.001026,-20.94,-13.68,-48.9,121.6387,0.0734,0.2352,55.81406,37.500443,210.6,0,4389
-0.031126,-0.004789,9.864412,0.002101,-0.000842,-0.002248,-19.92,-13.14,-48.48,122.885,0.0686,0.2331,55.81406,37.500443,210.6,0,4399
-0.035914,-0.009577,9.876384,-0.000953,-0.002675,-0.00347,-19.92,-13.14,-48.48,122.885,0.0686,0.2331,55.81406,37.500443,210.6,0,4409
-0.035914,-0.002394,9.871595,-0.000342,0.002212,-0.000415,-19.44,-12.78,-48.3,122.885,0.0686,0.2331,55.81406,37.500443,210.6,0,4418
-0.028731,-0.03352,9.869201,0.000269,0.000379,0.000195,-19.44,-12.78,-48.3,122.885,0.0686,0.2331,55.81406,37.500443,210.6,0,4429
-0.028731,-0.03352,9.869201,0.000269,0.000379,0.000195,-20.1,-13.14,-49.08,122.8908,0.068,0.2245,55.81406,37.500443,210.6,0,4438
-0.031126,-0.002394,9.885961,-0.001564,0.002212,-0.002248,-20.1,-13.14,-49.08,122.8908,0.068,0.2245,55.81406,37.500443,210.6,0,4448
-0.023943,-0.031126,9.866806,0.001491,-0.001453,0.003861,-20.16,-12.78,-49.74,122.8908,0.068,0.2245,55.81406,37.500443,210.6,0,4459
-0.043097,-0.002394,9.876384,0.000269,0.00099,-0.001637,-20.16,-12.78,-49.74,122.8908,0.068,0.2245,55.81406,37.500443,210.6,0,4468
-0.021548,-0.026337,9.862018,-0.002175,-0.003286,0.001417,-20.16,-12.9,-49.02,122.891,0.0676,0.2237,55.81406,37.500443,210.6,0,4478
-0.021548,-0.026337,9.862018,0.000269,-0.002675,-0.001026,-20.16,-12.9,-49.02,122.891,0.0676,0.2237,55.81406,37.500443,210.6,0,4488
-0.038308,-0.011971,9.866806,0.000269,0.002212,0.000195,-19.56,-13.08,-48.72,122.891,0.0676,0.2237,55.81406,37.500443,210.6,0,4498
-0.038308,-0.011971,9.866806,0.002101,-0.000842,0.001417,-19.56,-13.08,-48.72,122.891,0.0676,0.2237,55.81406,37.500443,210.6,0,4508
-0.043097,-0.007183,9.854836,0.001491,-0.000232,0.001417,-19.26,-12.72,-49.02,124.2413,0.0702,0.2193,55.81406,37.500443,210.6,0,4519
-0.043097,-0.019154,9.881172,0.00088,0.002823,-0.002248,-19.26,-12.72,-49.02,124.2413,0.0702,0.2193,55.81406,37.500443,210.6,0,4529
-0.023943,-0.01676,9.842864,-0.002175,-0.000842,0.002639,-20.1,-12.48,-49.38,124.2413,0.0702,0.2193,55.81406,37.500443,210.6,0,4539
-0.023943,-0.01676,9.842864,-0.001564,-0.000842,-0.000415,-20.1,-12.48,-49.38,124.2413,0.0702,0.2193,55.81406,37.500443,210.6,0,4549
-0.043097,-0.023943,9.883567,0.000269,0.001601,-0.001026,-20.1,-12.84,-49.26,122.9021,0.0716,0.2199,55.81406,37.500443,210.6,0,4559
-0.05028,-0.014366,9.857229,-0.001564,-0.000842,0.001417,-20.1,-12.84,-49.26,122.9021,0.0716,0.2199,55.81406,37.500443,210.6,0,4568
-0.021548,-0.043097,9.878778,0.000269,0.000379,-0.000415,-19.26,-12.84,-49.14,122.9021,0.0716,0.2199,55.81406,37.500443,210.6,0,4579
-0.055068,-0.002394,9.845258,0.000269,-0.001453,-0.000415,-19.26,-12.84,-49.14,122.9021,0.0716,0.2199,55.81406,37.500443,210.6,0,4590
-0.055068,-0.002394,9.845258,0.000269,-0.001453,-0.000415,-19.56,-12.24,-49.44,120.8653,0.0776,0.2211,55.81406,37.500443,210.6,0,4599
-0.035914,-0.026337,9.859624,0.00088,-0.002064,0.000806,-19.5,-12.36,-49.74,120.8653,0.0776,0.2211,55.81406,37.500443,210.6,0,4609
-0.031126,-0.014366,9.881172,0.001491,0.002823,0.000806,-19.5,-12.36,-49.74,120.8653,0.0776,0.2211,55.81406,37.500443,210.6,0,4618
-0.038308,-0.007183,9.862018,0.001491,0.00099,0.000195,-19.74,-12.96,-48.96,120.8653,0.0776,0.2211,55.81406,37.500443,210.6,0,4628
-0.038308,-0.007183,9.862018,0.00088,-0.001453,0.000195,-19.74,-12.96,-48.96,120.8653,0.0776,0.2211,55.81406,37.500443,210.6,0,4639
-0.026337,-0.007183,9.876384,-0.001564,-0.000232,0.000806,-20.04,-12.78,-49.32,122.9047,0.0794,0.2295,55.81406,37.500443,210.6,0,4648
-0.038308,-0.011971,9.857229,-0.001564,-0.002675,0.000806,-20.04,-12.78,-49.32,122.9047,0.0794,0.2295,55.81406,37.500443,210.6,0,4659
-0.035914,-0.004789,9.854836,-0.001564,-0.001453,-0.001637,-20.34,-12.48,-49.38,122.9047,0.0794,0.2295,55.81406,37.500443,210.6,0,4668
-0.069434,-0.009577,9.873989,-0.001564,0.00099,0.000806,-20.34,-12.48,-49.38,122.9047,0.0794,0.2295,55.81406,37.500443,210.6,0,4679
-0.069434,-0.009577,9.873989,-0.000342,-0.001453,-0.000415,-19.92,-12.42,-48.66,120.8638,0.0799,0.2264,55.81406,37.500443,210.6,0,4688
-0.043097,-0.01676,9.883567,0.000269,-0.000232,-0.000415,-19.92,-12.42,-48.66,120.8638,0.0799,0.2264,55.81406,37.500443,210.6,0,4699
-0.03352,-0.014366,9.888355,0.002712,0.001601,-0.002248,-19.56,-12.9,-49.56,120.8638,0.0799,0.2264,55.81406,37.500443,210.6,0,4708
-0.03352,0.009577,9.881172,0.000269,-0.002064,0.00325,-19.56,-12.9,-49.56,120.8638,0.0799,0.2264,55.81406,37.500443,210.6,0,4719
-0.026337,-0.031126,9.857229,-0.002175,-0.002064,0.001417,-19.56,-13.38,-49.44,122.8982,0.0774,0.2322,55.81406,37.500443,210.6,0,4728
-0.026337,-0.031126,9.857229,-0.001564,-0.000232,-0.004081,-19.56,-13.38,-49.44,122.8982,0.0774,0.2322,55.81406,37.500443,210.6,0,4738
-0.05028,0.002394,9.869201,-0.000342,-0.002675,0.002028,-19.02,-12.48,-48.84,122.8982,0.0774,0.2322,55.81406,37.500443,210.6,0,4749
-0.031126,-0.019154,9.850046,-0.000953,-0.003286,-0.00347,-19.02,-12.48,-48.84,122.8982,0.0774,0.2322,55.81406,37.500443,210.6,0,4758
-0.03352,0,9.857229,0.000269,-0.000232,0.00325,-19.2,-12.18,-49.2,122.151,0.0777,0.2311,55.81406,37.500443,210.6,0,4768
-0.028731,-0.004789,9.864412,0.000269,0.002823,0.000806,-19.2,-12.18,-49.2,122.151,0.0777,0.2311,55.81406,37.500443,210.6,0,4779
-0.028731,-0.004789,9.864412,0.000269,-0.001453,-0.001637,-19.14,-12.6,-49.02,122.151,0.0777,0.2311,55.81406,37.500443,210.6,0,4788
-0.031126,0.002394,9.862018,0.00088,0.00099,0.000195,-19.14,-12.6,-49.02,122.151,0.0777,0.2311,55.81406,37.500443,210.6,0,4798
-0.045491,-0.002394,9.883567,0.000269,0.002823,0.000195,-19.02,-12.48,-48.84,122.1527,0.0731,0.2222,55.81406,37.500443,210.6,0,4809
-0.035914,-0.01676,9.888355,0.000269,0.00099,-0.000415,-19.02,-12.48,-48.84,122.1527,0.0731,0.2222,55.81406,37.500443,210.6,0,4818
-0.035914,-0.01676,9.888355,-0.000342,-0.000842,-0.000415,-19.62,-12.48,-49.02,122.1527,0.0731,0.2222,55.81406,37.500443,210.6,0,4828
-0.040703,-0.021548,9.862018,-0.000953,-0.000842,-0.001637,-19.62,-12.48,-49.02,122.1527,0.0731,0.2222,55.81406,37.500443,210.6,0,4839
-0.038308,-0.021548,9.869201,-0.000342,0.001601,0.002639,-19.8,-12.78,-48.6,122.8964,0.0671,0.218,55.81406,37.500443,210.6,0,4849
-0.035914,0.009577,9.871595,0.001491,0.001601,0.002028,-19.8,-12.78,-48.6,122.8964,0.0671,0.218,55.81406,37.500443,210.6,0,4858
-0.045491,-0.01676,9.888355,0.001491,-0.000842,0.001417,-19.86,-12.96,-48.84,122.8964,0.0671,0.218,55.81406,37.500443,210.6,0,4869
-0.045491,-0.01676,9.888355,0.001491,0.002212,-0.002248,-19.86,-12.96,-48.84,122.8964,0.0671,0.218,55.81406,37.500443,210.6,0,4878
-0.05028,-0.007183,9.876384,-0.000953,-0.002064,0.000806,-19.68,-12.78,-49.5,122.8912,0.065,0.2195,55.81406,37.500443,210.6,0,4889
-0.057463,-0.004789,9.866806,-0.001564,-0.000842,-0.004081,-19.68,-12.78,-49.5,122.8912,0.065,0.2195,55.81406,37.500443,210.6,0,4899
-0.035914,-0.019154,9.883567,-0.000342,-0.000842,0.000195,-19.32,-12.42,-49.8,122.8912,0.065,0.2195,55.81406,37.500443,210.6,0,4910
-0.038308,-0.021548,9.878778,0.000269,-0.000232,0.000806,-19.32,-12.42,-49.8,122.8912,0.065,0.2195,55.81406,37.500443,210.6,0,4919
-0.038308,-0.021548,9.878778,0.000269,-0.000232,0.000806,-18.84,-12.3,-50.1,122.1428,0.0673,0.2193,55.81406,37.500443,210.6,0,4929
-0.01676,-0.011971,9.876384,-0.000342,0.00099,0.000195,-18.84,-12.3,-50.1,122.1428,0.0673,0.2193,55.81406,37.500443,210.6,0,4939
-0.021548,-0.014366,9.876384,0.002101,-0.000842,0.000806,-19.02,-12.54,-49.38,122.1428,0.0673,0.2193,55.81406,37.500443,210.6,0,4949
-0.038308,0.004789,9.864412,-0.002175,-0.000842,0.002028,-19.44,-12.6,-49.32,122.1428,0.0673,0.2193,55.81406,37.500443,210.6,0,4959
-0.03352,-0.040703,9.857229,-0.000342,0.000379,-0.001026,-19.44,-12.6,-49.32,122.1428,0.0673,0.2193,55.81406,37.500443,210.6,0,4968
-0.03352,-0.040703,9.857229,-0.000342,-0.000842,-0.000415,-19.98,-12.72,-48.96,122.8944,0.0668,0.2194,55.81406,37.500443,210.6,0,4978
-0.043097,-0.009577,9.862018,0.000269,-0.000232,0.002028,-19.98,-12.72,-48.96,122.8944,0.0668,0.2194,55.81406,37.500443,210.6,0,4989
-0.023943,-0.014366,9.878778,0.00088,-0.002064,-0.001026,-19.98,-12.18,-48.78,122.8944,0.0668,0.2194,55.81406,37.500443,210.6,0,4998
-0.011971,-0.031126,9.869201,0.000269,0.000379,-0.001026,-19.98,-12.18,-48.78,122.8944,0.0668,0.2194,55.81406,37.500443,210.6,0,5009
-0.021548,-0.023943,9.873989,-0.002175,-0.001453,-0.001026,-20.22,-12.18,-49.02,120.8557,0.0704,0.218,55.81406,37.500443,210.6,0,5019
-0.021548,-0.023943,9.873989,0.002712,-0.000232,0.001417,-20.22,-12.18,-49.02,120.8557,0.0704,0.218,55.81406,37.500443,210.6,0,5028
-0.03352,-0.009577,9.895537,0.000269,0.002823,-0.004081,-20.04,-12.6,-49.2,120.8557,0.0704,0.218,55.81406,37.500443,210.6,0,5039
-0.035914,-0.011971,9.857229,-0.000953,-0.001453,0.001417,-20.04,-12.6,-49.2,120.8557,0.0704,0.218,55.81406,37.500443,210.6,0,5049
-0.03352,-0.023943,9.888355,0.001491,0.000379,0.003861,-20.1,-12.96,-49.5,122.9102,0.0751,0.2179,55.81406,37.500443,210.6,0,5059
-0.038308,-0.002394,9.866806,-0.001564,0.001601,0.001417,-20.1,-12.96,-49.5,122.9102,0.0751,0.2179,55.81406,37.500443,210.6,0,5069
-0.038308,-0.002394,9.866806,0.00088,-0.001453,0.005693,-20.22,-13.98,-49.08,122.9102,0.0751,0.2179,55.81406,37.500443,210.6,0,5078
-0.026337,-0.026337,9.878778,0.00088,-0.001453,0.005693,-20.22,-13.98,-49.08,122.9102,0.0751,0.2179,55.81406,37.500443,210.6,0,5088
-0.045491,-0.026337,9.881172,-0.000953,0.002823,0.000195,-19.74,-13.56,-49.62,124.8738,0.0788,0.214,55.81406,37.500443,210.6,0,5098
-0.045491,-0.007183,9.871595,-0.001564,0.00099,-0.001026,-19.74,-13.56,-49.62,124.8738,0.0788,0.214,55.81406,37.500443,210.6,0,5109
-0.045491,-0.007183,9.871595,0.002101,0.000379,0.000195,-19.8,-12.42,-49.56,124.8738,0.0788,0.214,55.81406,37.500443,210.6,0,5118
-0.045491,-0.002394,9.862018,-0.000342,0.00099,0.002028,-19.8,-12.42,-49.56,124.8738,0.0788,0.214,55.81406,37.500443,210.6,0,5129
-0.03352,-0.019154,9.881172,0.002712,-0.002064,0.000806,-20.1,-12.54,-49.02,122.9196,0.0778,0.2136,55.81406,37.500443,210.6,0,5138
-0.014366,0.002394,9.876384,-0.000953,0.000379,0.000195,-20.1,-12.54,-49.02,122.9196,0.0778,0.2136,55.81406,37.500443,210.6,0,5148
-0.014366,0.002394,9.876384,-0.002175,0.00099,-0.000415,-20.1,-12.54,-49.02,122.9196,0.0778,0.2136,55.81406,37.500443,210.6,0,5159
-0.047885,-0.019154,9.878778,0.00088,-0.002675,-0.001637,-20.04,-12.78,-49.44,122.9196,0.0778,0.2136,55.81406,37.500443,210.6,0,5169
-0.01676,-0.002394,9.866806,0.000269,0.001601,0.001417,-20.22,-12.9,-49.68,122.9005,0.0724,0.2202,55.81406,37.500443,210.6,0,5179
-0.035914,0,9.876384,-0.003396,0.001601,0.001417,-20.22,-12.9,-49.68,122.9005,0.0724,0.2202,55.81406,37.500443,210.6,0,5188
-0.047885,-0.01676,9.864412,-0.000342,0.000379,-0.001637,-20.28,-13.44,-49.62,122.9005,0.0724,0.2202,55.81406,37.500443,210.6,0,5199
-0.047885,-0.01676,9.864412,-0.000342,0.000379,-0.001637,-20.28,-13.44,-49.62,122.9005,0.0724,0.2202,55.81406,37.500443,210.6,0,5208
-0.03352,0,9.883567,0.00088,0.002823,-0.001637,-20.16,-13.2,-49.38,122.9005,0.0724,0.2202,55.81406,37.500443,210.6,0,5218
-0.043097,-0.03352,9.890749,-0.001564,-0.000842,-0.002859,-20.04,-12.54,-49.32,122.8825,0.0674,0.2311,55.81406,37.500443,210.6,0,5229
-0.045491,0.004789,9.890749,0.000269,0.00099,0.000195,-20.04,-12.54,-49.32,122.8825,0.0674,0.2311,55.81406,37.500443,210.6,0,5238
-0.045491,0.004789,9.890749,-0.000342,0.00099,-0.000415,-19.56,-12.72,-49.38,122.8825,0.0674,0.2311,55.81406,37.500443,210.6,0,5248
-0.03352,-0.023943,9.873989,-0.002786,-0.001453,-0.001637,-19.56,-12.72,-49.38,122.8825,0.0674,0.2311,55.81406,37.500443,210.6,0,5258
-0.023943,-0.004789,9.897932,-0.000342,0.002212,-0.004081,-19.74,-13.26,-49.44,122.8766,0.0643,0.2316,55.81406,37.500443,210.6,0,5269
-0.023943,-0.002394,9.871595,0.000269,-0.000842,0.000195,-19.74,-13.26,-49.44,122.8766,0.0643,0.2316,55.81406,37.500443,210.6,0,5278
-0.023943,-0.002394,9.871595,-0.000342,0.000379,0.000195,-20.52,-12.72,-49.8,122.8766,0.0643,0.2316,55.81406,37.500443,210.6,0,5288
-0.038308,-0.014366,9.869201,0.00088,0.00099,-0.001026,-20.52,-12.72,-49.8,122.8766,0.0643,0.2316,55.81406,37.500443,210.6,0,5299
-0.043097,-0.004789,9.883567,0.00088,0.002823,-0.001026,-19.98,-12.36,-49.74,120.8261,0.0617,0.2288,55.81406,37.500443,210.6,0,5308
-0.043097,-0.011971,9.881172,0.00088,0.002823,-0.001026,-19.98,-12.36,-49.74,120.8261,0.0617,0.2288,55.81406,37.500443,210.6,0,5318
-0.043097,-0.011971,9.881172,0.000269,0.002212,0.001417,-19.56,-12.24,-49.26,120.8261,0.0617,0.2288,55.81406,37.500443,210.6,0,5328
-0.045491,-0.023943,9.883567,-0.000342,-0.004508,-0.002248,-19.56,-12.24,-49.26,120.8261,0.0617,0.2288,55.81406,37.500443,210.6,0,5339
-0.05028,-0.021548,9.883567,-0.000342,0.000379,0.000806,-20.1,-13.14,-49.68,122.8682,0.0604,0.2303,55.81406,37.500443,210.6,0,5348
-0.035914,-0.026337,9.876384,0.000269,-0.000842,0.002028,-20.1,-13.44,-49.5,122.8682,0.0604,0.2303,55.81406,37.500443,210.6,0,5358
-0.052674,0.009577,9.854836,0.00088,-0.001453,0.000806,-20.1,-13.44,-49.5,122.8682,0.0604,0.2303,55.81406,37.500443,210.6,0,5368
-0.052674,0.009577,9.854836,-0.003396,0.000379,-0.000415,-20.52,-12.9,-49.86,122.8682,0.0604,0.2303,55.81406,37.500443,210.6,0,5378
-0.038308,-0.021548,9.878778,-0.000342,0.000379,0.001417,-20.52,-12.9,-49.86,122.8682,0.0604,0.2303,55.81406,37.500443,210.6,0,5389
-0.038308,-0.004789,9.869201,0.002101,0.002212,0.002028,-20.52,-12.12,-49.44,119.6339,0.0661,0.2269,55.81406,37.500443,210.6,0,5399
-0.014366,-0.023943,9.864412,0.00088,-0.002675,0.003861,-19.44,-12.3,-49.38,119.6339,0.0661,0.2269,55.81406,37.500443,210.6,0,5409
-0.014366,-0.023943,9.864412,0.002712,-0.001453,0.000806,-19.44,-12.3,-49.38,119.6339,0.0661,0.2269,55.81406,37.500443,210.6,0,5418
-0.062251,0.004789,9.895537,-0.000953,0.002823,0.000195,-19.02,-12.84,-49.5,119.6339,0.0661,0.2269,55.81406,37.500443,210.6,0,5428
-0.028731,-0.023943,9.876384,0.00088,-0.000842,-0.000415,-19.02,-12.84,-49.5,119.6339,0.0661,0.2269,55.81406,37.500443,210.6,0,5438
-0.05028,-0.004789,9.871595,0.001491,0.001601,0.000806,-18.84,-13.26,-49.14,124.2529,0.0716,0.2115,55.81406,37.500443,210.6,0,5449
-0.05028,-0.002394,9.873989,-0.002175,-0.001453,0.000806,-18.9,-13.56,-49.38,124.2529,0.0716,0.2115,55.81406,37.500443,210.6,0,5459
-0.05028,-0.002394,9.873989,0.001491,-0.003897,-0.000415,-18.9,-13.56,-49.38,124.2529,0.0716,0.2115,55.81406,37.500443,210.6,0,5469
-0.040703,-0.002394,9.866806,0.001491,-0.003897,-0.000415,-19.62,-13.32,-49.56,124.2529,0.0716,0.2115,55.81406,37.500443,210.6,0,5478
-0.043097,0.007183,9.873989,-0.002175,-0.000842,-0.001637,-19.62,-13.32,-49.56,124.2529,0.0716,0.2115,55.81406,37.500443,210.6,0,5488
-0.031126,-0.026337,9.885961,0.000269,-0.000232,-0.000415,-20.1,-12.3,-49.56,120.8814,0.0767,0.2031,55.81406,37.500443,210.6,0,5498
-0.038308,-0.011971,9.857229,-0.002175,0.00099,-0.000415,-20.1,-12.3,-49.56,120.8814,0.0767,0.2031,55.81406,37.500443,210.6,0,5509
-0.038308,-0.011971,9.857229,-0.002175,0.00099,-0.000415,-19.86,-12.12,-49.56,120.8814,0.0767,0.2031,55.81406,37.500443,210.6,0,5518
-0.040703,-0.011971,9.876384,0.002712,-0.000232,-0.000415,-19.74,-12.36,-49.74,120.8814,0.0767,0.2031,55.81406,37.500443,210.6,0,5528
-0.047885,-0.014366,9.883567,0.002712,0.00099,-0.001026,-19.74,-12.36,-49.74,120.8814,0.0767,0.2031,55.81406,37.500443,210.6,0,5539
-0.021548,-0.038308,9.859624,-0.000953,0.004045,0.000806,-19.32,-12,-50.04,122.1671,0.0717,0.2056,55.81406,37.500443,210.6,0,5548
-0.021548,-0.038308,9.859624,-0.000342,-0.001453,-0.002248,-19.32,-12,-50.04,122.1671,0.0717,0.2056,55.81406,37.500443,210.6,0,5558
-0.011971,-0.014366,9.876384,-0.000342,0.000379,-0.001026,-19.74,-11.7,-49.38,122.1671,0.0717,0.2056,55.81406,37.500443,210.6,0,5568
-0.045491,0.011971,9.857229,0.002101,-0.000842,-0.000415,-19.74,-11.7,-49.38,122.1671,0.0717,0.2056,55.81406,37.500443,210.6,0,5579
-0.038308,-0.028731,9.878778,0.002101,-0.002064,0.000195,-19.5,-12.42,-49.08,122.1732,0.0718,0.2023,55.81406,37.500443,210.6,0,5588
-0.055068,-0.007183,9.869201,0.00088,-0.000232,-0.001026,-19.5,-12.42,-49.08,122.1732,0.0718,0.2023,55.81406,37.500443,210.6,0,5598
-0.040703,-0.014366,9.850046,-0.003396,-0.002675,-0.000415,-19.26,-12.96,-49.08,122.1732,0.0718,0.2023,55.81406,37.500443,210.6,0,5608
-0.040703,-0.014366,9.850046,-0.000953,-0.000842,-0.001026,-19.26,-12.96,-49.08,122.1732,0.0718,0.2023,55.81406,37.500443,210.6,0,5619
-0.035914,-0.01676,9.871595,-0.000342,0.001601,0.000806,-19.86,-13.14,-49.74,122.9188,0.0727,0.2045,55.81406,37.500443,210.6,0,5628
-0.035914,-0.014366,9.878778,-0.002175,-0.003286,-0.001026,-19.86,-13.14,-49.74,122.9188,0.0727,0.2045,55.81406,37.500443,210.6,0,5638
-0.019154,-0.01676,9.881172,0.002712,0.00099,0.000806,-20.16,-13.02,-49.56,122.9188,0.0727,0.2045,55.81406,37.500443,210.6,0,5648
-0.019154,-0.01676,9.881172,0.000269,0.000379,0.000195,-20.16,-13.02,-49.56,122.9188,0.0727,0.2045,55.81406,37.500443,210.6,0,5659
-0.035914,0.002394,9.871595,0.001491,-0.002675,-0.000415,-19.86,-12.72,-48.96,122.9188,0.0727,0.2045,55.81406,37.500443,210.6,0,5669
-0.019154,-0.011971,9.881172,-0.002786,0.000379,-0.000415,-19.62,-12.66,-48.78,122.9267,0.0819,0.2134,55.81406,37.500443,210.6,0,5679
-0.03352,-0.014366,9.864412,-0.003396,0.001601,-0.000415,-19.62,-12.66,-48.78,122.9267,0.0819,0.2134,55.81406,37.500443,210.6,0,5689
-0.03352,-0.014366,9.864412,0.00088,0.000379,-0.002248,-19.32,-12.72,-48.6,122.9267,0.0819,0.2134,55.81406,37.500443,210.6,0,5698
-0.028731,-0.01676,9.878778,0.00088,0.000379,-0.002248,-19.32,-12.72,-48.6,122.9267,0.0819,0.2134,55.81406,37.500443,210.6,0,5708
-0.035914,-0.021548,9.881172,0.00088,0.00099,-0.001637,-19.2,-13.14,-48.6,122.9267,0.0819,0.2134,55.81406,37.500443,210.6,0,5719
-0.055068,0.002394,9.873989,0.00088,0.00099,-0.001637,-19.32,-13.14,-48.54,124.2691,0.0822,0.2134,55.81406,37.500443,210.6,0,5729
-0.031126,-0.007183,9.883567,0.001491,0.000379,-0.001637,-19.32,-13.14,-48.54,124.2691,0.0822,0.2134,55.81406,37.500443,210.6,0,5739
-0.031126,-0.007183,9.883567,0.001491,0.000379,-0.001637,-20.34,-13.26,-48.78,124.2691,0.0822,0.2134,55.81406,37.500443,210.6,0,5748
-0.047885,-0.019154,9.864412,-0.000953,-0.000842,0.000806,-20.4,-12.84,-49.32,124.2691,0.0822,0.2134,55.81406,37.500443,210.6,0,5758
-0.052674,-0.03352,9.873989,-0.000953,-0.000232,0.002639,-20.4,-12.84,-49.32,124.2691,0.0822,0.2134,55.81406,37.500443,210.6,0,5769
-0.040703,-0.007183,9.873989,0.001491,-0.004508,0.001417,-19.68,-12.9,-49.56,122.9111,0.0762,0.2167,55.81406,37.500443,210.6,0,5779
-0.035914,-0.011971,9.866806,0.000269,0.002212,0.002639,-19.68,-12.9,-49.56,122.9111,0.0762,0.2167,55.81406,37.500443,210.6,0,5789
-0.028731,-0.026337,9.873989,-0.001564,-0.000842,-0.002859,-19.38,-13.62,-48.78,122.9111,0.0762,0.2167,55.81406,37.500443,210.6,0,5799
-0.028731,-0.026337,9.873989,-0.000953,-0.000842,0.000195,-19.38,-13.62,-48.78,122.9111,0.0762,0.2167,55.81406,37.500443,210.6,0,5808
-0.057463,0.007183,9.857229,-0.000953,0.004045,0.002028,-19.8,-13.68,-48.24,124.8624,0.0728,0.2198,55.81406,37.500443,210.6,0,5818
-0.023943,-0.009577,9.866806,0.000269,-0.000842,0.000806,-19.8,-13.68,-48.24,124.8624,0.0728,0.2198,55.81406,37.500443,210.6,0,5829
-0.026337,0.002394,9.876384,0.00088,-0.000842,-0.002248,-19.86,-13.08,-48.9,124.8624,0.0728,0.2198,55.81406,37.500443,210.6,0,5838
-0.026337,0.002394,9.876384,0.00088,0.004045,0.000195,-19.86,-13.08,-48.9,124.8624,0.0728,0.2198,55.81406,37.500443,210.6,0,5848
-0.043097,-0.004789,9.866806,0.00088,-0.000842,0.000195,-19.5,-13.32,-48.72,124.2382,0.0711,0.2233,55.81406,37.500443,210.6,0,5858
-0.028731,-0.009577,9.890749,0.000269,-0.000232,0.000195,-19.5,-13.32,-48.72,124.2382,0.0711,0.2233,55.81406,37.500443,210.6,0,5868
-0.05028,-0.011971,9.862018,0.000269,0.004045,0.000806,-19.5,-14.1,-48.66,124.2382,0.0711,0.2233,55.81406,37.500443,210.6,0,5878
-0.05028,-0.011971,9.862018,0.00088,0.000379,0.002639,-19.5,-14.1,-48.66,124.2382,0.0711,0.2233,55.81406,37.500443,210.6,0,5888
-0.038308,-0.011971,9.871595,-0.000953,0.001601,-0.000415,-19.56,-14.1,-49.2,124.8451,0.0689,0.2271,55.81406,37.500443,210.6,0,5898
-0.059857,-0.009577,9.871595,-0.000953,0.001601,-0.000415,-19.56,-14.1,-49.2,124.8451,0.0689,0.2271,55.81406,37.500443,210.6,0,5909
-0.040703,-0.011971,9.876384,-0.000342,-0.000842,-0.000415,-19.5,-13.08,-48.54,124.8451,0.0689,0.2271,55.81406,37.500443,210.6,0,5919
-0.043097,-0.009577,9.859624,0.000269,0.002212,0.000195,-19.5,-13.08,-48.54,124.8451,0.0689,0.2271,55.81406,37.500443,210.6,0,5928
-0.023943,-0.011971,9.895537,-0.000953,-0.000842,0.001417,-19.56,-12.48,-48.36,120.8506,0.0709,0.226,55.81406,37.500443,210.6,0,5938
-0.023943,-0.011971,9.895537,0.000269,0.003434,0.002028,-19.56,-12.48,-48.36,120.8506,0.0709,0.226,55.81406,37.500443,210.6,0,5949
-0.038308,-0.009577,9.857229,-0.001564,-0.000842,-0.001637,-19.92,-12.9,-48.78,120.8506,0.0709,0.226,55.81406,37.500443,210.6,0,5959
-0.026337,0.002394,9.859624,-0.003396,-0.001453,-0.004081,-19.92,-12.9,-48.78,120.8506,0.0709,0.226,55.81406,37.500443,210.6,0,5969
-0.023943,-0.014366,9.893144,-0.000953,-0.000232,-0.000415,-19.86,-13.38,-48.78,122.8934,0.0719,0.2282,55.81406,37.500443,210.6,0,5979
-0.040703,-0.004789,9.862018,0.001491,0.002823,-0.000415,-19.86,-13.38,-48.78,122.8934,0.0719,0.2282,55.81406,37.500443,210.6,0,5989
-0.040703,-0.004789,9.862018,-0.003396,-0.006951,-0.001026,-19.98,-12.66,-48.9,122.8934,0.0719,0.2282,55.81406,37.500443,210.6,0,5998
-0.019154,-0.026337,9.871595,-0.003396,-0.006951,-0.001026,-19.98,-12.66,-48.9,122.8934,0.0719,0.2282,55.81406,37.500443,210.6,0,6008
-0.057463,-0.004789,9.854836,0.002712,-0.000842,0.00325,-19.98,-12.78,-48.96,122.8928,0.0703,0.2262,55.81406,37.500443,210.6,0,6018
-0.052674,-0.004789,9.854836,-0.000342,0.000379,0.002028,-19.74,-13.08,-48.9,122.8928,0.0703,0.2262,55.81406,37.500443,210.6,0,6028
-0.052674,-0.004789,9.854836,-0.000953,-0.000232,-0.000415,-19.74,-13.08,-48.9,122.8928,0.0703,0.2262,55.81406,37.500443,210.6,0,6039
-0.052674,0,9.876384,0.003934,0.003434,0.000806,-19.56,-13.38,-48.6,122.8928,0.0703,0.2262,55.81406,37.500443,210.6,0,6048
-0.043097,-0.011971,9.864412,-0.000953,-0.005118,0.002028,-19.56,-13.38,-48.6,122.8928,0.0703,0.2262,55.81406,37.500443,210.6,0,6059
-0.028731,-0.021548,9.876384,-0.000953,0.00099,-0.000415,-19.44,-13.14,-47.94,124.2493,0.0748,0.2216,55.81406,37.500443,210.6,0,6068
-0.031126,-0.007183,9.854836,-0.000953,0.00099,0.000195,-19.44,-13.14,-47.94,124.2493,0.0748,0.2216,55.81406,37.500443,210.6,0,6079
-0.031126,-0.007183,9.854836,-0.001564,0.00099,-0.002859,-20.1,-13.08,-48.48,124.2493,0.0748,0.2216,55.81406,37.500443,210.6,0,6088
-0.019154,-0.031126,9.869201,0.00088,-0.001453,-0.00347,-20.1,-13.08,-48.48,124.2493,0.0748,0.2216,55.81406,37.500443,210.6,0,6099
-0.047885,0,9.869201,0.00088,-0.001453,-0.00347,-20.1,-12.78,-49.08,122.9106,0.0761,0.2191,55.81406,37.500443,210.6,0,6108
-0.026337,-0.002394,9.864412,0.001491,-0.000842,0.000806,-20.1,-12.78,-49.08,122.9106,0.0761,0.2191,55.81406,37.500443,210.6,0,6119
-0.026337,-0.002394,9.864412,0.001491,-0.000842,0.000806,-19.74,-13.02,-49.14,122.9106,0.0761,0.2191,55.81406,37.500443,210.6,0,6128
-0.045491,-0.004789,9.881172,0.000269,0.00099,0.000195,-19.74,-13.02,-49.14,122.9106,0.0761,0.2191,55.81406,37.500443,210.6,0,6138
-0.043097,-0.028731,9.873989,-0.002175,0.001601,0.003861,-19.98,-13.32,-49.56,122.8957,0.0704,0.2214,55.81406,37.500443,210.6,0,6148
-0.028731,-0.004789,9.866806,0.002712,0.002212,0.001417,-19.98,-13.32,-49.56,122.8957,0.0704,0.2214,55.81406,37.500443,210.6,0,6159
-0.028731,-0.004789,9.866806,0.00088,-0.000842,-0.001026,-19.8,-12.96,-49.32,122.8957,0.0704,0.2214,55.81406,37.500443,210.6,0,6168
-0.028731,-0.028731,9.862018,0.001491,-0.002064,0.000806,-19.8,-12.96,-49.32,122.8957,0.0704,0.2214,55.81406,37.500443,210.6,0,6180
-0.03352,0,9.871595,0.001491,-0.002064,0.000806,-20.1,-13.68,-48.66,124.8433,0.0659,0.2243,55.81406,37.500443,210.6,0,6188
-0.040703,-0.01676,9.857229,0.000269,0.001601,0.001417,-20.1,-13.68,-48.66,124.8433,0.0659,0.2243,55.81406,37.500443,210.6,0,6198
-0.043097,-0.021548,9.873989,-0.001564,-0.002064,0.001417,-20.52,-13.68,-48.36,124.8433,0.0659,0.2243,55.81406,37.500443,210.6,0,6208
-0.040703,-0.004789,9.862018,-0.000342,-0.000842,-0.000415,-20.52,-13.68,-48.36,124.8433,0.0659,0.2243,55.81406,37.500443,210.6,0,6218
-0.040703,-0.004789,9.862018,-0.002175,0.001601,-0.000415,-19.74,-13.14,-48.78,122.8929,0.0642,0.2167,55.81406,37.500443,210.6,0,6229
-0.038308,-0.004789,9.866806,-0.000342,-0.000842,0.000806,-19.74,-13.14,-48.78,122.8929,0.0642,0.2167,55.81406,37.500443,210.6,0,6238
-0.021548,-0.01676,9.878778,0.001491,0.000379,-0.001026,-19.32,-12.72,-48.84,122.8929,0.0642,0.2167,55.81406,37.500443,210.6,0,6249
-0.047885,-0.007183,9.873989,0.000269,-0.000842,-0.001026,-19.32,-12.72,-48.84,122.8929,0.0642,0.2167,55.81406,37.500443,210.6,0,6259
-0.047885,-0.007183,9.873989,0.000269,-0.002675,0.001417,-19.62,-12.78,-48.54,122.8963,0.0647,0.2144,55.81406,37.500443,210.6,0,6268
-0.035914,-0.009577,9.888355,0.000269,0.001601,0.002028,-19.62,-12.78,-48.54,122.8963,0.0647,0.2144,55.81406,37.500443,210.6,0,6279
-0.040703,-0.021548,9.881172,0.002712,0.004655,0.002028,-19.74,-13.38,-48.96,122.8963,0.0647,0.2144,55.81406,37.500443,210.6,0,6289
-0.019154,-0.011971,9.864412,0.001491,0.002823,-0.002859,-19.62,-13.62,-49.08,122.8963,0.0647,0.2144,55.81406,37.500443,210.6,0,6298
-0.023943,-0.009577,9.878778,0.001491,0.002823,-0.002859,-19.62,-13.62,-49.08,122.8963,0.0647,0.2144,55.81406,37.500443,210.6,0,6309
-0.023943,-0.009577,9.878778,-0.000342,-0.000232,0.002028,-19.8,-13.5,-48.48,122.8927,0.0644,0.2195,55.81406,37.500443,210.6,0,6319
-0.023943,-0.011971,9.873989,0.000269,-0.000842,-0.002859,-19.8,-13.5,-48.48,122.8927,0.0644,0.2195,55.81406,37.500443,210.6,0,6329
-0.03352,0.004789,9.869201,-0.000342,-0.000842,-0.000415,-19.86,-13.08,-48,122.8927,0.0644,0.2195,55.81406,37.500443,210.6,0,6338
-0.03352,-0.01676,9.866806,0.00088,0.00099,0.000195,-19.86,-13.08,-48,122.8927,0.0644,0.2195,55.81406,37.500443,210.6,0,6348
-0.023943,-0.01676,9.871595,-0.000342,0.001601,0.000806,-19.5,-13.5,-48.36,124.2495,0.0674,0.2105,55.81406,37.500443,210.6,0,6358
-0.045491,-0.007183,9.857229,-0.000953,-0.000842,-0.000415,-19.5,-13.5,-48.36,124.2495,0.0674,0.2105,55.81406,37.500443,210.6,0,6369
-0.045491,-0.007183,9.857229,-0.000953,-0.002675,0.000195,-19.8,-13.44,-48.84,124.2495,0.0674,0.2105,55.81406,37.500443,210.6,0,6379
-0.021548,-0.007183,9.859624,-0.003396,-0.000232,-0.002248,-19.8,-13.44,-48.84,124.2495,0.0674,0.2105,55.81406,37.500443,210.6,0,6388
-0.043097,-0.01676,9.857229,-0.000342,-0.002675,0.000806,-19.56,-12.96,-48.78,122.9181,0.0703,0.2033,55.81406,37.500443,210.6,0,6399
-0.055068,-0.007183,9.876384,-0.000953,0.00099,-0.000415,-19.56,-12.96,-48.78,122.9181,0.0703,0.2033,55.81406,37.500443,210.6,0,6408
-0.055068,-0.007183,9.876384,-0.000342,0.000379,-0.001026,-19.56,-13.2,-48.9,122.9181,0.0703,0.2033,55.81406,37.500443,210.6,0,6419
-0.040703,-0.007183,9.873989,0.000269,0.000379,-0.001026,-19.56,-13.2,-48.9,122.9181,0.0703,0.2033,55.81406,37.500443,210.6,0,6428
-0.055068,0.004789,9.866806,0.000269,0.000379,-0.001026,-19.74,-13.62,-49.38,124.8808,0.0711,0.1989,55.81406,37.500443,210.6,0,6439
-0.028731,-0.019154,9.852441,-0.001564,-0.000232,-0.000415,-19.74,-13.62,-49.38,124.8808,0.0711,0.1989,55.81406,37.500443,210.6,0,6448
-0.045491,-0.002394,9.878778,0.000269,-0.000232,0.000195,-19.26,-13.38,-49.38,124.8808,0.0711,0.1989,55.81406,37.500443,210.6,0,6458
-0.055068,-0.021548,9.869201,-0.000342,0.002212,-0.001026,-19.26,-13.38,-49.38,124.8808,0.0711,0.1989,55.81406,37.500443,210.6,0,6469
-0.055068,-0.021548,9.869201,0.000269,-0.000842,0.001417,-19.44,-12.72,-48.84,124.2516,0.0682,0.2076,55.81406,37.500443,210.6,0,6479
-0.03352,-0.031126,9.864412,-0.002786,-0.002675,-0.000415,-19.44,-12.72,-48.84,124.2516,0.0682,0.2076,55.81406,37.500443,210.6,0,6489
-0.040703,0.009577,9.881172,-0.002786,0.001601,0.001417,-20.22,-12.96,-49.14,124.2516,0.0682,0.2076,55.81406,37.500443,210.6,0,6498
-0.023943,-0.035914,9.881172,-0.002175,-0.000232,-0.00347,-20.22,-12.96,-49.14,124.2516,0.0682,0.2076,55.81406,37.500443,210.6,0,6509
-0.023943,-0.035914,9.881172,0.002712,0.004045,0.000195,-20.1,-13.14,-49.2,122.902,0.0691,0.2161,55.81406,37.500443,210.6,0,6518
-0.05028,0.007183,9.862018,-0.000953,0.00099,0.00325,-20.1,-13.14,-49.2,122.902,0.0691,0.2161,55.81406,37.500443,210.6,0,6529
-0.007183,-0.052674,9.864412,0.002712,-0.000232,0.001417,-19.38,-13.08,-48.84,122.902,0.0691,0.2161,55.81406,37.500443,210.6,0,6539
-0.045491,0.026337,9.864412,0.002101,0.004655,0.002639,-19.38,-13.08,-48.84,122.902,0.0691,0.2161,55.81406,37.500443,210.6,0,6548
-0.045491,0.026337,9.864412,0.000269,-0.000232,0.000195,-19.32,-12.9,-48.96,124.2487,0.077,0.2231,55.81406,37.500443,210.6,0,6559
-0.023943,-0.023943,9.866806,0.003934,-0.000842,-0.000415,-19.32,-12.9,-48.96,124.2487,0.077,0.2231,55.81406,37.500443,210.6,0,6568
-0.05028,-0.009577,9.890749,-0.000342,0.00099,-0.001026,-19.68,-12.6,-48.9,124.2487,0.077,0.2231,55.81406,37.500443,210.6,0,6578
-0.043097,0,9.873989,-0.000953,-0.003286,-0.002248,-19.68,-12.6,-48.9,124.2487,0.077,0.2231,55.81406,37.500443,210.6,0,6589
-0.023943,-0.043097,9.881172,-0.000953,-0.003286,-0.002248,-19.68,-13.26,-48.6,122.9115,0.0778,0.2208,55.81406,37.500443,210.6,0,6598
-0.05028,0.009577,9.845258,0.001491,0.000379,0.001417,-19.68,-13.26,-48.6,122.9115,0.0778,0.2208,55.81406,37.500443,210.6,0,6608
-0.05028,0.009577,9.845258,0.001491,0.000379,0.001417,-19.38,-13.68,-49.02,122.9115,0.0778,0.2208,55.81406,37.500443,210.6,0,6618
-0.014366,-0.043097,9.900327,0.000269,-0.001453,-0.002248,-19.38,-13.68,-49.02,122.9115,0.0778,0.2208,55.81406,37.500443,210.6,0,6629
-0.014366,-0.043097,9.900327,0.00088,0.000379,0.002028,-19.68,-13.2,-49.5,122.9154,0.0806,0.2216,55.81406,37.500443,210.6,0,6638
-0.052674,-0.004789,9.864412,-0.001564,0.00099,-0.000415,-19.68,-13.2,-49.5,122.9154,0.0806,0.2216,55.81406,37.500443,210.6,0,6649
-0.023943,-0.019154,9.885961,0.000269,-0.002675,-0.000415,-19.92,-12.72,-49.38,122.9154,0.0806,0.2216,55.81406,37.500443,210.6,0,6658
-0.052674,-0.007183,9.897932,0.002101,0.003434,-0.001026,-19.92,-12.72,-49.38,122.9154,0.0806,0.2216,55.81406,37.500443,210.6,0,6668
-0.031126,-0.009577,9.869201,-0.003396,-0.003286,-0.001026,-19.62,-12.6,-48.66,122.9073,0.0782,0.2253,55.81406,37.500443,210.6,0,6679
-0.031126,-0.009577,9.869201,-0.001564,-0.001453,-0.001026,-19.62,-12.6,-48.66,122.9073,0.0782,0.2253,55.81406,37.500443,210.6,0,6688
-0.043097,-0.026337,9.878778,0.000269,-0.001453,-0.001637,-19.32,-12.66,-48.36,122.9073,0.0782,0.2253,55.81406,37.500443,210.6,0,6699
-0.040703,0.004789,9.857229,-0.000953,0.000379,0.001417,-19.32,-12.66,-48.36,122.9073,0.0782,0.2253,55.81406,37.500443,210.6,0,6708
-0.019154,-0.019154,9.895537,0.002712,0.000379,0.000195,-19.32,-12.72,-49.62,124.2433,0.0789,0.228,55.81406,37.500443,210.6,0,6718
-0.052674,-0.011971,9.850046,-0.000342,-0.000232,-0.002859,-19.32,-12.72,-49.62,124.2433,0.0789,0.228,55.81406,37.500443,210.6,0,6729
-0.028731,-0.007183,9.881172,0.00088,0.00099,0.002639,-19.98,-12.66,-49.98,124.2433,0.0789,0.228,55.81406,37.500443,210.6,0,6739
-0.028731,-0.007183,9.881172,0.00088,0.004045,-0.002859,-19.98,-12.66,-49.98,124.2433,0.0789,0.228,55.81406,37.500443,210.6,0,6749
-0.038308,-0.023943,9.883567,0.00088,0.004045,-0.002859,-19.92,-13.02,-49.02,122.9068,0.0793,0.2275,55.81406,37.500443,210.6,0,6759
-0.028731,-0.009577,9.883567,0.002101,-0.002064,-0.000415,-19.92,-13.02,-49.02,122.9068,0.0793,0.2275,55.81406,37.500443,210.6,0,6768
-0.040703,-0.014366,9.873989,-0.000953,-0.000232,0.000806,-19.38,-13.08,-48.54,122.9068,0.0793,0.2275,55.81406,37.500443,210.6,0,6779
-0.040703,-0.014366,9.873989,0.00088,-0.003286,-0.001026,-19.38,-13.08,-48.54,122.9068,0.0793,0.2275,55.81406,37.500443,210.6,0,6788
-0.043097,-0.002394,9.871595,-0.001564,-0.000232,0.000195,-19.8,-13.2,-48.72,122.9009,0.08,0.2337,55.81406,37.500443,210.6,0,6800
-0.035914,-0.03352,9.857229,-0.002175,0.001601,0.000806,-19.8,-13.2,-48.72,122.9009,0.08,0.2337,55.81406,37.500443,210.6,0,6808
-0.035914,-0.03352,9.857229,0.001491,-0.004508,-0.002859,-20.16,-13.32,-48.54,122.9009,0.08,0.2337,55.81406,37.500443,210.6,0,6819
-0.052674,-0.021548,9.895537,0.001491,0.002823,0.00325,-20.04,-13.08,-48.54,122.9009,0.08,0.2337,55.81406,37.500443,210.6,0,6828
-0.040703,0,9.845258,0.001491,0.002823,0.00325,-20.04,-13.08,-48.54,122.9009,0.08,0.2337,55.81406,37.500443,210.6,0,6839
-0.043097,-0.023943,9.893144,0.001491,-0.002064,-0.000415,-20.16,-13.26,-48.48,122.8977,0.0788,0.2373,55.81406,37.500443,210.6,0,6849
-0.043097,-0.023943,9.893144,-0.000342,-0.002064,-0.00347,-20.16,-13.26,-48.48,122.8977,0.0788,0.2373,55.81406,37.500443,210.6,0,6859
-0.035914,-0.004789,9.859624,-0.002175,0.003434,0.000806,-20.1,-13.26,-48.72,122.8977,0.0788,0.2373,55.81406,37.500443,210.6,0,6868
-0.035914,-0.021548,9.881172,-0.000342,-0.001453,-0.000415,-20.1,-13.26,-48.72,122.8977,0.0788,0.2373,55.81406,37.500443,210.6,0,6879
-0.062251,-0.004789,9.859624,-0.002786,-0.001453,-0.005302,-20.1,-13.8,-48.78,124.8416,0.0735,0.2368,55.81406,37.500443,210.6,0,6888
-0.062251,-0.004789,9.859624,-0.001564,0.00099,0.00325,-20.1,-13.8,-48.78,124.8416,0.0735,0.2368,55.81406,37.500443,210.6,0,6898
-0.021548,-0.021548,9.866806,-0.000342,-0.000842,-0.000415,-20.16,-13.38,-49.14,124.8416,0.0735,0.2368,55.81406,37.500443,210.6,0,6909
-0.045491,-0.007183,9.864412,0.000269,-0.000232,0.001417,-20.16,-13.38,-49.14,124.8416,0.0735,0.2368,55.81406,37.500443,210.6,0,6919
-0.028731,-0.014366,9.876384,-0.000953,-0.000232,0.002639,-20.16,-12.66,-49.44,122.8879,0.0733,0.2352,55.81406,37.500443,210.6,0,6928
-0.031126,0.004789,9.869201,0.00088,0.004655,-0.000415,-20.16,-12.66,-49.44,122.8879,0.0733,0.2352,55.81406,37.500443,210.6,0,6939
-0.031126,0.004789,9.869201,0.001491,-0.002675,-0.002248,-20.04,-12.42,-49.2,122.8879,0.0733,0.2352,55.81406,37.500443,210.6,0,6948
-0.007183,-0.019154,9.890749,0.000269,0.005266,0.002639,-20.04,-12.42,-49.2,122.8879,0.0733,0.2352,55.81406,37.500443,210.6,0,6959
-0.040703,-0.009577,9.859624,0.000269,0.001601,-0.002248,-20.28,-12.96,-48.72,122.8856,0.0727,0.2364,55.81406,37.500443,210.6,0,6969
-0.031126,-0.01676,9.869201,0.000269,-0.003286,0.002028,-20.28,-12.96,-48.72,122.8856,0.0727,0.2364,55.81406,37.500443,210.6,0,6979
-0.031126,-0.01676,9.869201,-0.000953,-0.000842,0.000806,-19.74,-13.32,-48.3,122.8856,0.0727,0.2364,55.81406,37.500443,210.6,0,6989
-0.03352,-0.014366,9.862018,-0.000342,-0.000232,-0.002248,-19.74,-13.32,-48.3,122.8856,0.0727,0.2364,55.81406,37.500443,210.6,0,6999
-0.038308,-0.023943,9.852441,-0.000342,-0.000232,-0.002248,-18.9,-13.68,-48.78,126.2106,0.067,0.2332,55.81406,37.500443,210.6,0,7009
-0.040703,-0.01676,9.881172,0.000269,-0.003897,-0.002859,-18.9,-13.68,-48.78,126.2106,0.067,0.2332,55.81406,37.500443,210.6,0,7018
-0.035914,-0.007183,9.869201,-0.000953,0.003434,-0.001026,-19.02,-13.86,-49.32,126.2106,0.067,0.2332,55.81406,37.500443,210.6,0,7028
-0.035914,-0.007183,9.869201,0.003323,0.000379,0.000195,-19.02,-13.86,-49.32,126.2106,0.067,0.2332,55.81406,37.500443,210.6,0,7038
-0.043097,-0.023943,9.862018,0.000269,-0.000232,0.002028,-19.62,-13.14,-49.2,122.8835,0.0684,0.2317,55.81406,37.500443,210.6,0,7048
-0.047885,0.002394,9.878778,-0.000342,-0.000842,-0.00347,-19.62,-13.14,-49.2,122.8835,0.0684,0.2317,55.81406,37.500443,210.6,0,7059
-0.038308,-0.026337,9.869201,-0.000342,0.002212,-0.000415,-19.8,-12.9,-49.44,122.8835,0.0684,0.2317,55.81406,37.500443,210.6,0,7068
-0.026337,-0.011971,9.885961,0.001491,0.00099,-0.000415,-19.8,-12.9,-49.44,122.8835,0.0684,0.2317,55.81406,37.500443,210.6,0,7079
-0.035914,-0.004789,9.873989,-0.000953,0.002212,-0.002248,-19.26,-13.02,-49.14,124.231,0.0716,0.2301,55.81406,37.500443,210.6,0,7089
-0.035914,-0.004789,9.873989,-0.002175,-0.002675,-0.000415,-19.26,-13.02,-49.14,124.231,0.0716,0.2301,55.81406,37.500443,210.6,0,7099
-0.045491,-0.03352,9.897932,0.002712,0.00099,-0.000415,-19.2,-13.5,-49.08,124.231,0.0716,0.2301,55.81406,37.500443,210.6,0,7109
-0.038308,0.004789,9.876384,0.00088,0.001601,0.000195,-19.2,-13.5,-49.08,124.231,0.0716,0.2301,55.81406,37.500443,210.6,0,7119
-0.038308,0.004789,9.876384,-0.001564,-0.003286,-0.001026,-18.42,-14.22,-49.5,127.7019,0.0734,0.2268,55.81406,37.500443,210.6,0,7129
-0.01676,-0.019154,9.883567,0.00088,0.00099,0.000195,-18.42,-14.22,-49.5,127.7019,0.0734,0.2268,55.81406,37.500443,210.6,0,7139
-0.047885,-0.014366,9.885961,-0.002175,0.001601,0.000195,-18.66,-13.5,-48.66,127.7019,0.0734,0.2268,55.81406,37.500443,210.6,0,7149
-0.023943,-0.026337,9.864412,-0.002175,0.001601,0.000195,-18.66,-13.5,-48.66,127.7019,0.0734,0.2268,55.81406,37.500443,210.6,0,7159
-0.03352,-0.014366,9.883567,-0.000953,-0.001453,0.005082,-19.74,-12.9,-48.6,122.8995,0.0736,0.2252,55.81406,37.500443,210.6,0,7169
-0.03352,-0.014366,9.883567,0.001491,0.003434,-0.001637,-19.5,-13.2,-48.84,122.8995,0.0736,0.2252,55.81406,37.500443,210.6,0,7179
-0.038308,-0.019154,9.883567,-0.002175,0.002212,0.002028,-19.5,-13.2,-48.84,122.8995,0.0736,0.2252,55.81406,37.500443,210.6,0,7188
-0.045491,0,9.883567,0.001491,-0.002064,-0.001026,-19.44,-12.9,-48.6,122.8995,0.0736,0.2252,55.81406,37.500443,210.6,0,7198
-0.026337,-0.021548,9.895537,-0.001564,-0.000842,0.002028,-19.44,-12.9,-48.6,122.8995,0.0736,0.2252,55.81406,37.500443,210.6,0,7209
-0.019154,-0.021548,9.876384,-0.001564,-0.004508,0.001417,-19.98,-12.72,-48.3,122.9099,0.0776,0.2242,55.81406,37.500443,210.6,0,7219
-0.019154,-0.021548,9.876384,0.000269,-0.000232,0.001417,-20.1,-12.96,-48.48,122.9099,0.0776,0.2242,55.81406,37.500443,210.6,0,7229
-0.038308,0,9.873989,-0.000342,0.00099,0.000806,-20.1,-12.96,-48.48,122.9099,0.0776,0.2242,55.81406,37.500443,210.6,0,7239
-0.019154,-0.031126,9.878778,-0.000342,0.00099,0.000806,-20.1,-13.02,-48.54,122.9099,0.0776,0.2242,55.81406,37.500443,210.6,0,7248
-0.040703,0.002394,9.869201,0.000269,0.001601,0.002028,-20.1,-13.02,-48.54,122.9099,0.0776,0.2242,55.81406,37.500443,210.6,0,7258
-0.035914,-0.011971,9.871595,0.001491,-0.000232,-0.001026,-20.1,-13.8,-48.24,124.8714,0.079,0.2207,55.81406,37.500443,210.6,0,7268
-0.035914,-0.011971,9.871595,0.000269,-0.002064,-0.000415,-19.62,-13.62,-48.24,124.8714,0.079,0.2207,55.81406,37.500443,210.6,0,7279
-0.028731,-0.031126,9.888355,-0.000342,-0.003286,-0.000415,-19.62,-13.62,-48.24,124.8714,0.079,0.2207,55.81406,37.500443,210.6,0,7288
-0.047885,0,9.871595,0.000269,0.003434,-0.000415,-19.26,-13.5,-48.3,124.8714,0.079,0.2207,55.81406,37.500443,210.6,0,7299
-0.047885,0,9.871595,-0.000342,0.000379,-0.004081,-19.26,-13.5,-48.3,124.8714,0.079,0.2207,55.81406,37.500443,210.6,0,7308
-0.023943,-0.011971,9.893144,-0.001564,0.003434,0.000195,-19.44,-13.92,-47.7,126.2423,0.0716,0.2158,55.81406,37.500443,210.6,0,7319
-0.021548,-0.019154,9.869201,0.000269,-0.001453,-0.00347,-19.56,-13.8,-47.88,126.2423,0.0716,0.2158,55.81406,37.500443,210.6,0,7329
-0.021548,-0.019154,9.869201,0.000269,-0.001453,-0.00347,-19.56,-13.8,-47.88,126.2423,0.0716,0.2158,55.81406,37.500443,210.6,0,7339
-0.035914,-0.007183,9.885961,0.00088,-0.001453,-0.000415,-19.08,-12.9,-48.18,126.2423,0.0716,0.2158,55.81406,37.500443,210.6,0,7348
-0.026337,-0.007183,9.845258,0.000269,-0.000232,0.002028,-19.08,-12.9,-48.18,126.2423,0.0716,0.2158,55.81406,37.500443,210.6,0,7358
-0.038308,-0.019154,9.871595,0.00088,-0.005729,-0.001026,-19.26,-12.6,-48.78,124.2539,0.0674,0.2045,55.81406,37.500443,210.6,0,7369
-0.038308,-0.019154,9.871595,0.001491,0.002823,0.001417,-19.26,-12.6,-48.78,124.2539,0.0674,0.2045,55.81406,37.500443,210.6,0,7379
-0.045491,0.004789,9.871595,0.00088,0.00099,0.000806,-19.74,-12.84,-48.96,124.2539,0.0674,0.2045,55.81406,37.500443,210.6,0,7389
-0.047885,-0.011971,9.883567,0.000269,-0.002675,-0.000415,-20.16,-13.5,-49.2,124.2539,0.0674,0.2045,55.81406,37.500443,210.6,0,7399
-0.047885,-0.011971,9.883567,-0.000342,0.001601,0.002028,-20.16,-13.5,-49.2,124.2539,0.0674,0.2045,55.81406,37.500443,210.6,0,7408
-0.057463,-0.007183,9.866806,0.000269,0.000379,0.003861,-20.34,-13.5,-48.78,122.8952,0.0553,0.2009,55.81406,37.500443,210.6,0,7419
-0.028731,-0.023943,9.864412,0.000269,0.000379,0.003861,-20.34,-13.5,-48.78,122.8952,0.0553,0.2009,55.81406,37.500443,210.6,0,7428
-0.045491,-0.009577,9.864412,-0.000953,-0.001453,-0.001637,-20.1,-13.44,-48.84,122.8952,0.0553,0.2009,55.81406,37.500443,210.6,0,7439
-0.05028,-0.014366,9.854836,-0.000342,0.001601,0.001417,-19.8,-13.38,-48.96,122.8952,0.0553,0.2009,55.81406,37.500443,210.6,0,7449
-0.05028,-0.014366,9.854836,-0.000953,0.002212,-0.000415,-19.8,-13.38,-48.96,122.8952,0.0553,0.2009,55.81406,37.500443,210.6,0,7458
-0.019154,-0.028731,9.878778,-0.000342,-0.000842,0.000806,-19.86,-12.96,-48.72,122.8792,0.0475,0.2032,55.81406,37.500443,210.6,0,7468
-0.038308,-0.019154,9.885961,0.00088,0.001601,0.00325,-19.86,-12.96,-48.72,122.8792,0.0475,0.2032,55.81406,37.500443,210.6,0,7480
-0.023943,0.002394,9.871595,-0.002175,-0.000232,-0.001026,-19.92,-12.84,-48.72,122.8792,0.0475,0.2032,55.81406,37.500443,210.6,0,7488
-0.026337,-0.03352,9.876384,0.001491,0.00099,0.000195,-20.04,-12.36,-49.14,122.8792,0.0475,0.2032,55.81406,37.500443,210.6,0,7498
-0.05028,0.009577,9.883567,0.003323,0.004045,0.00325,-20.04,-12.36,-49.14,122.8792,0.0475,0.2032,55.81406,37.500443,210.6,0,7508
-0.05028,-0.038308,9.866806,0.000269,-0.000842,0.001417,-20.28,-12.66,-48.48,122.8991,0.0597,0.2065,55.81406,37.500443,210.6,0,7519
-0.05028,-0.038308,9.866806,0.000269,-0.000842,0.001417,-20.28,-12.66,-48.48,122.8991,0.0597,0.2065,55.81406,37.500443,210.6,0,7529
-0.05028,-0.002394,9.881172,0.000269,0.000379,0.002028,-19.8,-13.2,-47.94,122.8991,0.0597,0.2065,55.81406,37.500443,210.6,0,7539
-0.007183,-0.038308,9.871595,0.000269,0.000379,0.002028,-19.8,-13.2,-47.94,122.8991,0.0597,0.2065,55.81406,37.500443,210.6,0,7548
-0.007183,-0.038308,9.871595,-0.002175,0.000379,0.000806,-19.26,-12.96,-48.54,124.2522,0.0685,0.2075,55.81406,37.500443,210.6,0,7558
-0.057463,-0.01676,9.878778,0.001491,0.002212,-0.000415,-19.26,-12.96,-48.54,124.2522,0.0685,0.2075,55.81406,37.500443,210.6,0,7568
-0.031126,-0.028731,9.862018,-0.001564,0.000379,0.002028,-19.5,-12.36,-48.24,124.2522,0.0685,0.2075,55.81406,37.500443,210.6,0,7579
-0.03352,0,9.881172,0.002712,-0.000232,-0.001026,-19.5,-12.36,-48.24,124.2522,0.0685,0.2075,55.81406,37.500443,210.6,0,7588
-0.059857,-0.014366,9.847652,0.00088,0.004045,0.001417,-19.62,-12.72,-48.06,122.929,0.081,0.2118,55.81406,37.500443,210.6,0,7598
-0.023943,-0.026337,9.885961,-0.000342,-0.000842,0.000806,-19.62,-12.72,-48.06,122.929,0.081,0.2118,55.81406,37.500443,210.6,0,7609
-0.023943,-0.026337,9.885961,0.003323,0.001601,0.000195,-19.32,-12.96,-48.48,122.929,0.081,0.2118,55.81406,37.500443,210.6,0,7619
-0.055068,0.007183,9.866806,-0.000342,0.002823,-0.001026,-19.32,-12.96,-48.48,122.929,0.081,0.2118,55.81406,37.500443,210.6,0,7629
-0.023943,-0.043097,9.876384,-0.000342,-0.002675,-0.000415,-20.04,-12.3,-48.72,120.8932,0.0883,0.213,55.81406,37.500443,210.6,0,7639
-0.040703,-0.011971,9.878778,0.002101,0.001601,-0.001026,-20.04,-12.3,-48.72,120.8932,0.0883,0.213,55.81406,37.500443,210.6,0,7649
-0.043097,-0.019154,9.845258,-0.000342,-0.002675,0.004472,-20.16,-12.36,-48.6,120.8932,0.0883,0.213,55.81406,37.500443,210.6,0,7659
-0.043097,-0.019154,9.845258,0.000269,-0.000842,-0.00347,-19.68,-12.54,-47.94,120.8932,0.0883,0.213,55.81406,37.500443,210.6,0,7668
-0.038308,-0.014366,9.890749,0.000269,-0.000842,-0.00347,-19.68,-12.54,-47.94,120.8932,0.0883,0.213,55.81406,37.500443,210.6,0,7679
-0.064645,0.021548,9.866806,-0.000953,-0.002064,-0.001026,-19.38,-13.14,-48.42,124.2808,0.0876,0.2133,55.81406,37.500443,210.6,0,7689
-0.031126,-0.01676,9.888355,0.002712,-0.000842,-0.001026,-19.38,-13.14,-48.42,124.2808,0.0876,0.2133,55.81406,37.500443,210.6,0,7699
-0.031126,-0.01676,9.888355,0.002712,-0.000842,-0.001026,-19.38,-12.84,-48.3,124.2808,0.0876,0.2133,55.81406,37.500443,210.6,0,7708
-0.035914,-0.004789,9.859624,-0.000342,-0.002675,0.003861,-19.44,-13.26,-48.48,124.2808,0.0876,0.2133,55.81406,37.500443,210.6,0,7719
-0.047885,-0.014366,9.873989,-0.002175,-0.000842,-0.000415,-19.44,-13.26,-48.48,124.2808,0.0876,0.2133,55.81406,37.500443,210.6,0,7729
-0.047885,-0.026337,9.876384,-0.002175,-0.000842,-0.000415,-19.68,-12.54,-49.14,122.9212,0.0819,0.2185,55.81406,37.500443,210.6,0,7739
-0.038308,0.002394,9.859624,0.00088,-0.001453,-0.001637,-19.68,-12.54,-49.14,122.9212,0.0819,0.2185,55.81406,37.500443,210.6,0,7749
-0.038308,0.002394,9.859624,-0.002175,-0.001453,0.000195,-19.32,-12.3,-48.9,122.9212,0.0819,0.2185,55.81406,37.500443,210.6,0,7758
-0.040703,0,9.881172,0.001491,0.001601,-0.001637,-19.32,-12.3,-48.9,122.9212,0.0819,0.2185,55.81406,37.500443,210.6,0,7769
-0.047885,-0.01676,9.873989,-0.001564,-0.003897,-0.000415,-19.14,-13.08,-48.06,124.2468,0.0786,0.2292,55.81406,37.500443,210.6,0,7779
-0.038308,-0.002394,9.885961,-0.000342,0.001601,-0.001637,-19.14,-13.08,-48.06,124.2468,0.0786,0.2292,55.81406,37.500443,210.6,0,7788
-0.047885,-0.019154,9.873989,-0.001564,-0.000842,-0.000415,-19.5,-13.5,-48.72,124.2468,0.0786,0.2292,55.81406,37.500443,210.6,0,7799
-0.047885,0.004789,9.888355,-0.001575,-0.005748,-0.001652,-19.5,-13.5,-48.72,124.2468,0.0786,0.2292,55.81406,37.500443,210.6,0,7809
-0.047885,0.004789,9.888355,-0.000353,0.005247,0.001403,-19.74,-13.32,-49.2,122.8843,0.0743,0.24,55.81406,37.500443,210.6,0,7818
-0.023943,-0.019154,9.866806,0.002701,-0.000861,-0.001652,-19.74,-13.32,-49.2,122.8843,0.0743,0.24,55.81406,37.500443,210.6,0,7829
-0.045491,-0.01676,9.869201,0.002701,-0.000861,-0.001652,-19.5,-12.78,-48.48,122.8843,0.0743,0.24,55.81406,37.500443,210.6,0,7839
-0.040703,-0.014366,9.888355,-0.000353,0.003415,0.001403,-19.5,-12.78,-48.48,122.8843,0.0743,0.24,55.81406,37.500443,210.6,0,7849
-0.040703,-0.014366,9.888355,-0.000353,0.00036,-0.001652,-19.38,-12.3,-48.48,122.1284,0.0712,0.2429,55.81406,37.500443,210.6,0,7858
-0.035914,-0.004789,9.883567,-0.002797,-0.006359,0.001403,-19.38,-12.3,-48.48,122.1284,0.0712,0.2429,55.81406,37.500443,210.6,0,7869
-0.038308,-0.019154,9.876384,-0.001575,-0.000861,-0.001041,-19.86,-12.54,-48.72,122.1284,0.0712,0.2429,55.81406,37.500443,210.6,0,7879
-0.031126,-0.019154,9.873989,0.000869,-0.000861,0.002013,-19.86,-12.54,-48.72,122.1284,0.0712,0.2429,55.81406,37.500443,210.6,0,7888
-0.052674,-0.007183,9.866806,-0.000353,0.00036,0.000792,-20.52,-13.08,-48.18,121.633,0.0738,0.2438,55.81406,37.500443,210.6,0,7899
-0.028731,-0.01676,9.862018,0.000258,0.000971,0.000792,-20.52,-13.08,-48.18,121.633,0.0738,0.2438,55.81406,37.500443,210.6,0,7909
-0.028731,-0.01676,9.862018,0.000258,0.000971,0.000792,-20.16,-13.32,-47.7,121.633,0.0738,0.2438,55.81406,37.500443,210.6,0,7919
-0.03352,-0.014366,9.866806,0.00148,-0.000861,-0.002263,-20.16,-13.32,-47.7,121.633,0.0738,0.2438,55.81406,37.500443,210.6,0,7929
-0.028731,-0.014366,9.869201,0.000258,-0.004527,0.002624,-20.1,-13.62,-48,124.8418,0.075,0.2416,55.81406,37.500443,210.6,0,7938
-0.035914,0,9.869201,0.000869,-0.000861,-0.002263,-20.1,-13.62,-48,124.8418,0.075,0.2416,55.81406,37.500443,210.6,0,7948
-0.055068,-0.026337,9.876384,-0.000353,-0.001472,0.000792,-20.1,-13.92,-48.72,124.8418,0.075,0.2416,55.81406,37.500443,210.6,0,7959
-0.055068,-0.026337,9.876384,0.00148,0.002193,0.002013,-20.22,-13.56,-48.48,124.8418,0.075,0.2416,55.81406,37.500443,210.6,0,7968
-0.031126,-0.009577,9.878778,-0.000353,-0.00025,0.001403,-20.22,-13.56,-48.48,124.8418,0.075,0.2416,55.81406,37.500443,210.6,0,7979
-0.043097,0.007183,9.866806,-0.000353,0.00708,-0.003484,-20.04,-12.48,-48.72,120.8383,0.072,0.2372,55.81406,37.500443,210.6,0,7988
-0.031126,-0.007183,9.881172,0.000869,0.00036,0.000792,-20.04,-12.48,-48.72,120.8383,0.072,0.2372,55.81406,37.500443,210.6,0,7999
-0.031126,-0.007183,9.881172,-0.001575,0.002193,0.002013,-19.5,-12.72,-48.78,120.8383,0.072,0.2372,55.81406,37.500443,210.6,0,8008
-0.038308,-0.002394,9.862018,-0.003407,-0.000861,-0.001041,-19.5,-12.72,-48.78,120.8383,0.072,0.2372,55.81406,37.500443,210.6,0,8018
-0.031126,-0.01676,9.862018,-0.003407,-0.000861,-0.001041,-19.56,-13.08,-48.66,122.8838,0.0725,0.2377,55.81406,37.500443,210.6,0,8029
-0.031126,-0.014366,9.878778,-0.000353,-0.00025,0.003235,-19.56,-13.08,-48.66,122.8838,0.0725,0.2377,55.81406,37.500443,210.6,0,8038
-0.043097,-0.002394,9.854836,0.000869,0.000971,0.002624,-20.1,-13.38,-48.3,122.8838,0.0725,0.2377,55.81406,37.500443,210.6,0,8049
-0.043097,-0.002394,9.854836,-0.000353,-0.003305,-0.00043,-20.1,-13.38,-48.3,122.8838,0.0725,0.2377,55.81406,37.500443,210.6,0,8058
-0.05028,-0.01676,9.885961,0.00209,-0.001472,0.002013,-20.4,-13.62,-48.3,124.8523,0.0714,0.227,55.81406,37.500443,210.6,0,8068
-0.026337,0,9.871595,0.000258,-0.000861,-0.001041,-20.4,-13.62,-48.3,124.8523,0.0714,0.227,55.81406,37.500443,210.6,0,8079
-0.028731,-0.01676,9.869201,-0.000964,-0.000861,-0.001041,-19.98,-13.44,-47.94,124.8523,0.0714,0.227,55.81406,37.500443,210.6,0,8088
-0.028731,-0.01676,9.869201,-0.000964,0.002804,0.000181,-19.98,-13.44,-47.94,124.8523,0.0714,0.227,55.81406,37.500443,210.6,0,8099
-0.062251,-0.004789,9.869201,-0.003407,-0.00025,0.001403,-19.98,-13.38,-48.54,122.8927,0.0657,0.2191,55.81406,37.500443,210.6,0,8109
-0.011971,-0.026337,9.883567,0.000869,-0.000861,0.000792,-19.14,-13.5,-48.18,122.8927,0.0657,0.2191,55.81406,37.500443,210.6,0,8118
-0.047885,-0.002394,9.857229,-0.000964,-0.002694,0.000792,-19.14,-13.5,-48.18,122.8927,0.0657,0.2191,55.81406,37.500443,210.6,0,8128
-0.01676,0,9.850046,-0.001575,-0.004527,-0.00043,-19.38,-13.62,-48.78,126.2215,0.0645,0.2208,55.81406,37.500443,210.6,0,8138
-0.01676,0,9.850046,-0.001575,-0.001472,-0.00043,-19.74,-13.62,-49.02,126.2215,0.0645,0.2208,55.81406,37.500443,210.6,0,8148
-0.03352,-0.011971,9.888355,0.000869,0.001582,0.000792,-19.74,-13.62,-49.02,126.2215,0.0645,0.2208,55.81406,37.500443,210.6,0,8158
-0.043097,-0.007183,9.852441,-0.001575,-0.003305,-0.001041,-19.8,-13.5,-48.72,126.2215,0.0645,0.2208,55.81406,37.500443,210.6,0,8168
-0.03352,-0.011971,9.876384,0.00209,-0.00025,-0.001041,-19.8,-13.5,-48.72,126.2215,0.0645,0.2208,55.81406,37.500443,210.6,0,8179
-0.040703,0,9.864412,-0.000964,-0.002083,0.002013,-19.92,-13.2,-48.3,122.8991,0.0666,0.217,55.81406,37.500443,210.6,0,8188
-0.040703,0,9.864412,-0.000964,-0.002083,0.002013,-19.92,-13.2,-48.3,122.8991,0.0666,0.217,55.81406,37.500443,210.6,0,8199
-0.038308,-0.023943,9.878778,0.00209,-0.000861,-0.001652,-19.86,-13.2,-48.24,122.8991,0.0666,0.217,55.81406,37.500443,210.6,0,8209
-0.038308,-0.009577,9.873989,-0.002186,0.00036,-0.002263,-19.86,-13.2,-48.24,122.8991,0.0666,0.217,55.81406,37.500443,210.6,0,8218
-0.045491,-0.035914,9.859624,-0.002186,0.00036,-0.002263,-19.44,-13.44,-48.24,124.2411,0.0682,0.2189,55.81406,37.500443,210.6,0,8228
-0.045491,-0.035914,9.859624,0.000258,0.000971,0.000792,-19.44,-13.44,-48.24,124.2411,0.0682,0.2189,55.81406,37.500443,210.6,0,8238
-0.023943,-0.011971,9.883567,0.000869,-0.000861,-0.00043,-19.62,-13.5,-48.24,124.2411,0.0682,0.2189,55.81406,37.500443,210.6,0,8248
-0.043097,-0.007183,9.890749,-0.000353,0.000971,-0.00043,-19.62,-13.5,-48.24,124.2411,0.0682,0.2189,55.81406,37.500443,210.6,0,8258
-0.040703,-0.03352,9.890749,0.00209,-0.002694,0.002013,-20.34,-13.5,-48.06,122.8943,0.0678,0.2234,55.81406,37.500443,210.6,0,8269
-0.040703,0.026337,9.873989,-0.000964,-0.001472,-0.001652,-20.34,-13.5,-48.06,122.8943,0.0678,0.2234,55.81406,37.500443,210.6,0,8279
-0.031126,-0.038308,9.873989,0.000869,-0.00025,0.000181,-19.98,-13.08,-48.24,122.8943,0.0678,0.2234,55.81406,37.500443,210.6,0,8289
-0.031126,-0.038308,9.873989,0.003312,-0.000861,-0.00043,-19.98,-13.08,-48.24,122.8943,0.0678,0.2234,55.81406,37.500443,210.6,0,8298
-0.047885,-0.004789,9.881172,0.000869,0.004026,-0.00043,-19.08,-13.14,-48.36,124.2375,0.0664,0.2193,55.81406,37.500443,210.6,0,8308
-0.043097,0.009577,9.871595,-0.002186,-0.002083,-0.002263,-19.08,-13.14,-48.36,124.2375,0.0664,0.2193,55.81406,37.500443,210.6,0,8319
-0.035914,-0.03352,9.917087,-0.002186,-0.002083,-0.002263,-19.26,-13.26,-48.3,124.2375,0.0664,0.2193,55.81406,37.500443,210.6,0,8329
-0.03352,0.028731,9.840469,0.002701,-0.002694,0.002624,-19.26,-13.26,-48.3,124.2375,0.0664,0.2193,55.81406,37.500443,210.6,0,8338
-0.03352,0.028731,9.840469,-0.004018,-0.001472,0.000181,-18.96,-12.72,-48.42,124.2249,0.0597,0.2204,55.81406,37.500443,210.6,0,8349
-0.031126,-0.035914,9.895537,0.000869,-0.001472,0.000181,-18.96,-12.72,-48.42,124.2249,0.0597,0.2204,55.81406,37.500443,210.6,0,8359
-0.043097,0.01676,9.871595,-0.000964,-0.000861,0.002013,-19.32,-12.72,-48.66,124.2249,0.0597,0.2204,55.81406,37.500443,210.6,0,8369
-0.026337,-0.01676,9.864412,-0.000353,-0.000861,0.001403,-19.32,-12.72,-48.66,124.2249,0.0597,0.2204,55.81406,37.500443,210.6,0,8379
-0.026337,-0.01676,9.864412,-0.000964,-0.003305,-0.001041,-19.44,-12.66,-48.66,124.2114,0.0584,0.2271,55.81406,37.500443,210.6,0,8388
-0.047885,-0.01676,9.876384,-0.000353,0.00036,0.002013,-19.32,-12.9,-49.02,124.2114,0.0584,0.2271,55.81406,37.500443,210.6,0,8399
-0.040703,-0.011971,9.869201,-0.002186,-0.004527,-0.001041,-19.32,-12.9,-49.02,124.2114,0.0584,0.2271,55.81406,37.500443,210.6,0,8409
-0.019154,-0.004789,9.897932,-0.000964,0.000971,0.000792,-19.08,-13.02,-48.72,124.2114,0.0584,0.2271,55.81406,37.500443,210.6,0,8419
-0.019154,-0.004789,9.897932,-0.000964,0.000971,0.000181,-19.08,-13.02,-48.72,124.2114,0.0584,0.2271,55.81406,37.500443,210.6,0,8429
-0.031126,0.01676,9.857229,-0.002797,0.005247,-0.00043,-19.08,-12.54,-48.78,124.211,0.0591,0.2285,55.81406,37.500443,210.6,0,8438
-0.035914,-0.019154,9.890749,0.00148,0.002193,-0.002263,-19.08,-12.54,-48.78,124.211,0.0591,0.2285,55.81406,37.500443,210.6,0,8449
-0.035914,-0.019154,9.890749,-0.002797,-0.002083,0.000181,-19.68,-12.84,-49.2,124.211,0.0591,0.2285,55.81406,37.500443,210.6,0,8458
-0.038308,0,9.878778,0.00148,-0.00025,-0.00043,-19.68,-12.84,-49.2,124.211,0.0591,0.2285,55.81406,37.500443,210.6,0,8469
-0.009577,-0.03352,9.888355,0.000258,0.00036,-0.002263,-20.28,-13.14,-48.18,122.8737,0.0573,0.2262,55.81406,37.500443,210.6,0,8479
-0.035914,-0.009577,9.885961,-0.004018,-0.002694,-0.001652,-20.28,-13.14,-48.18,122.8737,0.0573,0.2262,55.81406,37.500443,210.6,0,8489
-0.035914,-0.026337,9.90272,-0.004018,-0.002694,-0.001652,-20.28,-13.14,-47.64,122.8737,0.0573,0.2262,55.81406,37.500443,210.6,0,8498
-0.023943,-0.026337,9.90272,0.000869,-0.003305,0.003235,-19.86,-13.26,-47.64,122.8737,0.0573,0.2262,55.81406,37.500443,210.6,0,8508
-0.045491,0,9.862018,-0.000353,-0.002694,0.000792,-19.56,-13.08,-48.36,122.8743,0.0583,0.2271,55.81406,37.500443,210.6,0,8519
-0.043097,0,9.878778,-0.000353,-0.002694,0.000792,-19.56,-13.08,-48.36,122.8743,0.0583,0.2271,55.81406,37.500443,210.6,0,8529
-0.03352,-0.028731,9.897932,0.000258,0.005247,-0.00043,-19.98,-12.9,-48.96,122.8743,0.0583,0.2271,55.81406,37.500443,210.6,0,8539
-0.03352,-0.028731,9.897932,-0.000353,0.00036,0.000181,-19.98,-12.9,-48.96,122.8743,0.0583,0.2271,55.81406,37.500443,210.6,0,8549
-0.055068,-0.004789,9.895537,-0.002186,0.000971,0.002013,-20.22,-13.02,-49.32,122.874,0.0589,0.2256,55.81406,37.500443,210.6,0,8559
-0.021548,-0.021548,9.885961,0.00148,0.001582,0.000181,-20.22,-13.02,-49.32,122.874,0.0589,0.2256,55.81406,37.500443,210.6,0,8569
-0.045491,-0.007183,9.869201,0.00148,-0.00025,-0.001652,-19.68,-12.96,-48.84,122.874,0.0589,0.2256,55.81406,37.500443,210.6,0,8578
-0.045491,-0.007183,9.869201,-0.001575,0.00036,0.001403,-19.68,-12.96,-48.84,122.874,0.0589,0.2256,55.81406,37.500443,210.6,0,8588
-0.023943,-0.014366,9.890749,0.00148,0.001582,-0.002263,-19.5,-13.38,-48.66,124.2126,0.0586,0.2264,55.81406,37.500443,210.6,0,8599
-0.038308,0.002394,9.895537,-0.000964,0.000971,0.002624,-19.5,-13.38,-48.66,124.2126,0.0586,0.2264,55.81406,37.500443,210.6,0,8608
-0.023943,-0.004789,9.897932,0.000258,-0.001472,0.000181,-19.98,-13.32,-49.2,124.2126,0.0586,0.2264,55.81406,37.500443,210.6,0,8618
-0.031126,-0.040703,9.893144,0.000258,-0.000861,0.000792,-19.98,-13.32,-49.2,124.2126,0.0586,0.2264,55.81406,37.500443,210.6,0,8629
-0.031126,-0.040703,9.893144,0.000869,-0.00025,0.000792,-19.68,-13.02,-48.72,122.8742,0.0578,0.2237,55.81406,37.500443,210.6,0,8639
-0.064645,0.002394,9.878778,-0.002186,-0.003305,0.000181,-19.56,-12.84,-48.36,122.8742,0.0578,0.2237,55.81406,37.500443,210.6,0,8649
-0.011971,-0.028731,9.890749,-0.002186,-0.003305,0.000181,-19.56,-12.84,-48.36,122.8742,0.0578,0.2237,55.81406,37.500443,210.6,0,8659
-0.047885,0.002394,9.873989,0.000258,-0.000861,-0.00043,-19.8,-12.84,-47.7,122.8742,0.0578,0.2237,55.81406,37.500443,210.6,0,8669
-0.03352,-0.026337,9.888355,-0.000964,0.00036,0.000792,-19.8,-12.84,-47.7,122.8742,0.0578,0.2237,55.81406,37.500443,210.6,0,8679
-0.03352,-0.026337,9.888355,-0.000353,-0.004527,0.001403,-19.5,-12.96,-47.88,124.2337,0.065,0.2206,55.81406,37.500443,210.6,0,8689
-0.021548,-0.019154,9.900327,0.00148,0.004026,-0.00043,-19.5,-12.96,-47.88,124.2337,0.065,0.2206,55.81406,37.500443,210.6,0,8698
-0.055068,0.011971,9.864412,-0.001575,-0.003305,0.005068,-19.68,-12.72,-48.24,124.2337,0.065,0.2206,55.81406,37.500443,210.6,0,8709
-0.028731,-0.045491,9.907509,0.00148,-0.001472,0.000181,-19.68,-12.72,-48.24,124.2337,0.065,0.2206,55.81406,37.500443,210.6,0,8719
-0.05028,0.009577,9.873989,0.000869,0.003415,0.000181,-19.44,-13.26,-49.26,124.2325,0.0665,0.2212,55.81406,37.500443,210.6,0,8729
-0.05028,0.009577,9.873989,-0.006462,-0.002694,-0.002874,-19.44,-13.26,-49.26,124.2325,0.0665,0.2212,55.81406,37.500443,210.6,0,8738
-0.023943,-0.014366,9.888355,0.00209,0.000971,-0.001041,-19.26,-13.08,-48.96,124.2325,0.0665,0.2212,55.81406,37.500443,210.6,0,8748
-0.019154,-0.014366,9.90272,-0.000353,0.002804,0.002013,-19.26,-13.08,-48.96,124.2325,0.0665,0.2212,55.81406,37.500443,210.6,0,8759
-0.035914,-0.026337,9.893144,-0.002186,-0.00025,0.002624,-19.44,-12.66,-48.54,124.2349,0.0673,0.2204,55.81406,37.500443,210.6,0,8769
-0.038308,-0.021548,9.888355,0.00148,0.000971,-0.00043,-19.44,-12.66,-48.54,124.2349,0.0673,0.2204,55.81406,37.500443,210.6,0,8779
-0.05028,0,9.881172,-0.000353,0.00036,0.003846,-19.56,-12.72,-49.02,124.2349,0.0673,0.2204,55.81406,37.500443,210.6,0,8789
-0.05028,0,9.881172,-0.000353,0.00036,0.003846,-19.56,-12.72,-49.02,124.2349,0.0673,0.2204,55.81406,37.500443,210.6,0,8798
-0.01676,-0.014366,9.885961,0.00148,-0.00025,-0.002263,-20.1,-12.72,-48.36,122.8938,0.0669,0.2224,55.81406,37.500443,210.6,0,8809
-0.06704,0.004789,9.869201,0.00148,-0.00025,-0.002263,-20.1,-12.72,-48.36,122.8938,0.0669,0.2224,55.81406,37.500443,210.6,0,8819
-0.028731,0,9.907509,-0.000964,-0.001472,0.003235,-20.76,-13.26,-47.88,122.8938,0.0669,0.2224,55.81406,37.500443,210.6,0,8829
-0.043097,-0.004789,9.890749,0.00209,0.001582,0.000181,-20.76,-13.26,-47.88,122.8938,0.0669,0.2224,55.81406,37.500443,210.6,0,8839
-0.043097,-0.004789,9.890749,0.002701,-0.000861,-0.00043,-20.82,-13.86,-47.52,123.5573,0.0655,0.2251,55.81406,37.500443,210.6,0,8849
-0.047885,-0.007183,9.900327,0.000258,-0.001472,0.001403,-20.82,-13.86,-47.52,123.5573,0.0655,0.2251,55.81406,37.500443,210.6,0,8858
-0.045491,-0.019154,9.907509,0.000869,0.00036,0.000181,-20.22,-13.5,-48,123.5573,0.0655,0.2251,55.81406,37.500443,210.6,0,8869
-0.045491,-0.019154,9.907509,-0.002186,0.001582,-0.001041,-20.22,-13.5,-48,123.5573,0.0655,0.2251,55.81406,37.500443,210.6,0,8879
-0.03352,-0.01676,9.885961,0.000258,-0.002694,0.003235,-19.8,-13.32,-48.48,122.8747,0.0581,0.2265,55.81406,37.500443,210.6,0,8888
-0.045491,-0.023943,9.893144,0.000258,-0.002694,0.003235,-20.22,-13.5,-48.78,122.8747,0.0581,0.2265,55.81406,37.500443,210.6,0,8899
-0.038308,-0.021548,9.878778,-0.000964,0.002804,0.002624,-20.22,-13.5,-48.78,122.8747,0.0581,0.2265,55.81406,37.500443,210.6,0,8909
-0.038308,-0.004789,9.888355,0.000258,0.002804,0.001403,-20.16,-13.2,-48.96,122.8747,0.0581,0.2265,55.81406,37.500443,210.6,0,8919
-0.038308,-0.004789,9.888355,0.000258,0.002804,0.001403,-20.16,-13.2,-48.96,122.8747,0.0581,0.2265,55.81406,37.500443,210.6,0,8928
-0.040703,-0.009577,9.885961,-0.000353,-0.002083,0.000181,-19.44,-13.02,-48.18,124.2183,0.0605,0.2272,55.81406,37.500443,210.6,0,8938
-0.040703,0.002394,9.897932,-0.000964,0.00036,0.001403,-19.44,-13.02,-48.18,124.2183,0.0605,0.2272,55.81406,37.500443,210.6,0,8948
-0.043097,-0.009577,9.895537,-0.000353,0.001582,-0.00043,-19.62,-12.78,-48.36,124.2183,0.0605,0.2272,55.81406,37.500443,210.6,0,8959
-0.043097,-0.009577,9.895537,-0.001575,-0.001472,-0.001652,-19.62,-12.78,-48.36,124.2183,0.0605,0.2272,55.81406,37.500443,210.6,0,8969
-0.031126,-0.011971,9.895537,-0.000964,0.00036,0.002013,-19.2,-12.84,-48.66,124.2229,0.0599,0.2196,55.81406,37.500443,210.6,0,8979
-0.040703,-0.019154,9.893144,0.000869,-0.001472,0.002624,-19.2,-12.84,-48.66,124.2229,0.0599,0.2196,55.81406,37.500443,210.6,0,8989
-0.05028,0,9.907509,0.000258,0.002193,-0.00043,-19.32,-12.96,-48.6,124.2229,0.0599,0.2196,55.81406,37.500443,210.6,0,8999
-0.028731,-0.028731,9.885961,-0.000353,0.000971,0.003846,-19.32,-12.96,-48.6,124.2229,0.0599,0.2196,55.81406,37.500443,210.6,0,9009
-0.028731,-0.028731,9.885961,0.000869,-0.002083,0.000181,-19.8,-13.38,-49.02,122.8848,0.061,0.2191,55.81406,37.500443,210.6,0,9019
-0.05028,-0.009577,9.885961,0.000869,-0.002083,0.000181,-19.8,-13.38,-49.02,122.8848,0.061,0.2191,55.81406,37.500443,210.6,0,9028
-0.05028,-0.01676,9.888355,0.00209,0.004026,0.002013,-19.44,-13.32,-49.5,122.8848,0.061,0.2191,55.81406,37.500443,210.6,0,9038
-0.028731,-0.023943,9.890749,0.000869,-0.00025,-0.001041,-19.44,-13.32,-49.5,122.8848,0.061,0.2191,55.81406,37.500443,210.6,0,9049
-0.028731,-0.023943,9.890749,0.00209,0.002804,0.005679,-19.74,-13.26,-48.96,122.8867,0.0622,0.2191,55.81406,37.500443,210.6,0,9058
-0.05028,-0.004789,9.881172,-0.002797,-0.000861,0.005068,-19.74,-13.26,-48.96,122.8867,0.0622,0.2191,55.81406,37.500443,210.6,0,9068
-0.03352,-0.021548,9.897932,0.002701,-0.00025,0.002013,-19.86,-13.26,-48.48,122.8867,0.0622,0.2191,55.81406,37.500443,210.6,0,9079
-0.052674,-0.011971,9.873989,0.000869,0.002193,0.002624,-19.86,-13.26,-48.48,122.8867,0.0622,0.2191,55.81406,37.500443,210.6,0,9088
-0.052674,-0.011971,9.873989,0.000258,0.00036,-0.001652,-19.56,-12.6,-48.42,122.9008,0.0689,0.219,55.81406,37.500443,210.6,0,9099
-0.047885,-0.004789,9.897932,-0.000353,-0.003305,-0.002263,-19.56,-12.6,-48.42,122.9008,0.0689,0.219,55.81406,37.500443,210.6,0,9109
-0.031126,0.004789,9.888355,0.000869,0.002193,0.000792,-19.44,-12.3,-47.94,122.9008,0.0689,0.219,55.81406,37.500443,210.6,0,9119
-0.045491,-0.019154,9.907509,0.00148,0.001582,0.002013,-19.44,-12.3,-47.94,122.9008,0.0689,0.219,55.81406,37.500443,210.6,0,9129
