ACCELEROMETER X (m/s²),ACCELEROMETER Y (m/s²),ACCELEROMETER Z (m/s²),GYROSCOPE X (rad/s),GYROSCOPE Y (rad/s),GYROSCOPE Z (rad/s),MAGNETIC FIELD X (μT),MAGNETIC FIELD Y (μT),MAGNETIC FIELD Z (μT),ORIENTATION Z (azimuth °),ORIENTATION X (pitch °),ORIENTATION Y (roll °),Time since start in ms 
-0.035914,-0.01676,9.859624,0.000814,0.005243,-0.002308,-19.44,-13.26,-48.48,124.2601,0.0726,0.209,13
-0.038308,0,9.873989,-0.00224,0.000967,-0.000475,-19.44,-13.26,-48.48,124.2601,0.0726,0.209,24
-0.038308,0,9.873989,-0.001629,-0.002698,-0.002308,-19.74,-13.08,-47.58,124.2601,0.0726,0.209,34
-0.038308,-0.01676,9.885961,0.002036,0.002189,0.000136,-19.74,-13.08,-47.58,124.2601,0.0726,0.209,43
-0.038308,-0.009577,9.873989,-0.000407,0.002189,0.000746,-19.92,-13.32,-47.1,122.9197,0.0749,0.213,53
-0.043097,0,9.862018,-0.00224,-0.000866,-0.00353,-19.92,-13.32,-47.1,122.9197,0.0749,0.213,64
-0.043097,0,9.862018,-0.000407,-0.000255,-0.001697,-19.26,-13.26,-46.86,122.9197,0.0749,0.213,73
-0.028731,-0.007183,9.876384,0.001425,0.001578,-0.001697,-19.26,-13.26,-46.86,122.9197,0.0749,0.213,84
-0.021548,0.002394,9.878778,0.000203,-0.000866,-0.000475,-19.44,-13.26,-47.1,124.2635,0.0762,0.2134,94
-0.026337,-0.028731,9.890749,0.000814,-0.003309,0.001968,-19.44,-13.26,-47.1,124.2635,0.0762,0.2134,104
-0.026337,-0.009577,9.885961,0.001425,-0.002087,0.001357,-19.56,-13.44,-47.4,124.2635,0.0762,0.2134,113
-0.040703,-0.014366,9.876384,-0.001629,0.001578,-0.001697,-19.56,-13.44,-47.4,124.2635,0.0762,0.2134,124
-0.040703,-0.014366,9.876384,-0.002851,-0.000255,-0.00414,-18.96,-13.8,-47.7,126.2458,0.0699,0.2105,133
-0.038308,0.009577,9.878778,-0.001018,-0.000255,-0.002308,-18.96,-13.8,-47.7,126.2458,0.0699,0.2105,144
-0.028731,-0.021548,9.900327,-0.001629,0.002189,-0.000475,-19.56,-13.32,-48.06,126.2458,0.0699,0.2105,153
-0.045491,-0.011971,9.866806,-0.00224,0.002189,0.000746,-19.56,-13.32,-48.06,126.2458,0.0699,0.2105,164
-0.047885,-0.019154,9.876384,-0.001018,-0.00392,0.000746,-20.46,-13.02,-47.7,122.9153,0.0682,0.2047,174
-0.047885,-0.019154,9.876384,-0.001018,-0.00392,0.000746,-20.46,-13.02,-47.7,122.9153,0.0682,0.2047,183
-0.035914,-0.014366,9.914692,-0.000407,-0.000255,0.001357,-19.98,-13.86,-47.82,122.9153,0.0682,0.2047,194
-0.064645,0.009577,9.866806,0.000814,0.0028,-0.000475,-19.98,-13.86,-47.82,122.9153,0.0682,0.2047,203
-0.023943,-0.002394,9.878778,0.002647,-0.000866,0.001357,-19.56,-13.32,-48.12,122.9169,0.0714,0.2081,214
-0.028731,-0.004789,9.900327,-0.001018,-0.001476,-0.001697,-19.56,-13.32,-48.12,122.9169,0.0714,0.2081,224
-0.028731,-0.004789,9.900327,-0.001018,-0.001476,-0.001697,-19.56,-13.32,-48.12,122.9169,0.0714,0.2081,234
-0.03352,-0.002394,9.893144,-0.000407,-0.000866,-0.001086,-20.04,-12.96,-47.4,122.9169,0.0714,0.2081,244
-0.03352,-0.002394,9.893144,-0.000407,-0.000866,-0.001086,-20.04,-12.96,-47.4,122.9169,0.0714,0.2081,253
-0.035914,-0.011971,9.897932,-0.000407,-0.002087,-0.002308,-20.1,-13.38,-48.06,122.9163,0.0692,0.2052,264
-0.035914,-0.011971,9.897932,-0.000407,-0.002087,-0.002308,-20.1,-13.38,-48.06,122.9163,0.0692,0.2052,273
-0.035914,-0.011971,9.897932,-0.000407,-0.002087,-0.002308,-20.1,-13.38,-48.06,122.9163,0.0692,0.2052,284
-0.035914,-0.011971,9.897932,-0.000407,-0.002087,-0.002308,-20.1,-13.38,-48.06,122.9163,0.0692,0.2052,294
-0.03352,-0.007183,9.878778,-0.001018,-0.000255,-0.001086,-20.4,-13.26,-48.06,122.9229,0.0724,0.204,304
-0.031126,0.011971,9.881172,0.000203,0.0028,0.001357,-20.4,-13.26,-48.06,122.9229,0.0724,0.204,313
-0.031126,0.011971,9.881172,0.000203,0.000356,0.001357,-20.28,-13.44,-47.16,122.9229,0.0724,0.204,323
-0.047885,-0.004789,9.895537,-0.001018,-0.000866,0.000746,-20.28,-13.44,-47.16,122.9229,0.0724,0.204,333
-0.028731,-0.01676,9.888355,-0.001018,-0.000255,0.001357,-20.76,-13.26,-46.86,121.6657,0.068,0.204,343
-0.03352,-0.014366,9.905115,-0.001018,0.000967,0.000136,-20.76,-13.26,-46.86,121.6657,0.068,0.204,354
-0.040703,-0.009577,9.890749,0.000203,0.000356,0.001968,-20.7,-13.02,-46.74,121.6657,0.068,0.204,364
-0.040703,-0.009577,9.890749,-0.000407,-0.00392,-0.001086,-20.7,-13.02,-46.74,121.6657,0.068,0.204,374
-0.055068,-0.023943,9.905115,-0.001018,0.002189,0.003801,-20.1,-12.9,-46.62,122.9097,0.062,0.2025,384
-0.045491,0,9.90272,-0.003462,-0.000866,-0.001086,-20.1,-12.9,-46.62,122.9097,0.062,0.2025,393
-0.045491,-0.021548,9.876384,-0.000407,-0.000255,0.000746,-20.52,-13.74,-46.98,122.9097,0.062,0.2025,403
-0.045491,-0.021548,9.876384,0.001425,-0.000866,0.000136,-20.52,-13.74,-46.98,122.9097,0.062,0.2025,413
-0.031126,-0.009577,9.890749,0.000203,0.000356,-0.002308,-20.34,-13.44,-47.1,122.9062,0.0612,0.2045,423
-0.043097,-0.021548,9.883567,-0.00224,-0.000255,-0.002919,-20.34,-13.44,-47.1,122.9062,0.0612,0.2045,434
-0.03352,-0.01676,9.897932,0.002647,-0.000255,-0.000475,-19.68,-13.32,-47.34,122.9062,0.0612,0.2045,444
-0.035914,-0.01676,9.905115,-0.000407,0.0028,0.002579,-19.68,-13.32,-47.34,122.9062,0.0612,0.2045,454
-0.035914,-0.01676,9.905115,0.003258,0.008297,-0.001086,-19.8,-13.56,-47.28,124.8618,0.0653,0.212,463
-0.05028,-0.007183,9.881172,0.000814,-0.000255,-0.001086,-19.8,-13.56,-47.28,124.8618,0.0653,0.212,473
-0.03352,-0.026337,9.883567,-0.000407,-0.000866,0.000136,-20.04,-13.56,-46.98,124.8618,0.0653,0.212,484
-0.019154,-0.009577,9.893144,0.000203,0.002189,-0.001697,-20.04,-13.56,-46.98,124.8618,0.0653,0.212,493
-0.043097,-0.009577,9.895537,-0.000407,0.001578,-0.001697,-19.92,-13.2,-47.7,122.9056,0.0671,0.212,503
-0.043097,-0.009577,9.895537,-0.002851,-0.002087,-0.001697,-19.92,-13.2,-47.7,122.9056,0.0671,0.212,513
-0.028731,-0.011971,9.895537,-0.001629,0.000356,-0.002919,-19.86,-12.96,-47.58,122.9056,0.0671,0.212,524
-0.038308,-0.011971,9.881172,-0.001629,0.000356,-0.002919,-19.86,-12.96,-47.58,122.9056,0.0671,0.212,534
-0.031126,-0.019154,9.873989,-0.004073,-0.001476,-0.001697,-19.8,-13.08,-47.64,122.9065,0.0659,0.2092,544
-0.055068,-0.004789,9.885961,-0.001018,0.000967,0.001357,-19.8,-13.08,-47.64,122.9065,0.0659,0.2092,554
-0.055068,-0.004789,9.885961,0.000814,0.002189,0.001968,-20.16,-13.26,-47.76,122.9065,0.0659,0.2092,563
-0.031126,-0.011971,9.869201,0.000203,0.001578,0.001357,-20.16,-13.26,-47.76,122.9065,0.0659,0.2092,573
-0.055068,-0.009577,9.888355,0.001425,0.000967,-0.000475,-19.92,-13.56,-47.7,124.8602,0.0669,0.2134,584
-0.057463,0,9.895537,-0.001018,-0.000866,0.001968,-19.92,-13.56,-47.7,124.8602,0.0669,0.2134,593
-0.043097,-0.026337,9.905115,-0.001629,-0.000255,-0.000475,-19.74,-13.26,-47.94,124.8602,0.0669,0.2134,603
-0.043097,-0.026337,9.905115,-0.001018,0.000967,-0.001086,-19.74,-13.26,-47.94,124.8602,0.0669,0.2134,613
-0.040703,-0.035914,9.888355,-0.001629,0.000356,0.002579,-20.16,-13.02,-47.82,122.9083,0.0721,0.2172,624
-0.047885,-0.021548,9.890749,-0.000407,0.001578,0.000136,-20.16,-13.02,-47.82,122.9083,0.0721,0.2172,633
-0.047885,-0.019154,9.893144,-0.000407,0.002189,-0.001697,-20.64,-13.68,-47.34,122.9083,0.0721,0.2172,644
-0.055068,-0.014366,9.895537,0.000203,0.000967,-0.001697,-20.64,-13.68,-47.34,122.9083,0.0721,0.2172,653
-0.055068,-0.014366,9.895537,-0.004684,-0.001476,0.000746,-20.94,-13.62,-47.76,123.5786,0.079,0.225,663
-0.038308,-0.021548,9.893144,-0.001629,0.000356,-0.002919,-20.94,-13.62,-47.76,123.5786,0.079,0.225,673
-0.055068,-0.01676,9.873989,0.001425,0.002189,-0.001086,-20.58,-12.9,-47.88,123.5786,0.079,0.225,684
-0.035914,-0.002394,9.895537,-0.001629,0.000967,0.000136,-20.58,-12.9,-47.88,123.5786,0.079,0.225,694
-0.052674,-0.009577,9.893144,0.001425,0.000356,-0.001086,-20.34,-12.72,-47.46,122.9095,0.0782,0.2277,704
-0.052674,-0.009577,9.893144,0.002036,0.000967,0.001357,-20.34,-12.72,-47.46,122.9095,0.0782,0.2277,713
-0.043097,-0.026337,9.895537,-0.000407,0.000356,0.000746,-20.1,-13.02,-47.46,122.9095,0.0782,0.2277,723
-0.021548,-0.004789,9.895537,-0.000407,0.004021,-0.000475,-20.1,-13.02,-47.46,122.9095,0.0782,0.2277,734
-0.06704,0.002394,9.907509,-0.001629,-0.001476,-0.002308,-19.8,-13.08,-47.22,122.9117,0.0795,0.2275,745
-0.055068,-0.009577,9.893144,0.003258,0.000356,0.001357,-19.8,-13.08,-47.22,122.9117,0.0795,0.2275,754
-0.057463,-0.007183,9.900327,-0.001018,0.001578,-0.002308,-19.68,-12.66,-47.76,122.9117,0.0795,0.2275,764
-0.057463,-0.007183,9.900327,0.003258,0.001578,-0.002308,-19.68,-12.66,-47.76,122.9117,0.0795,0.2275,773
-0.031126,-0.004789,9.895537,-0.000407,-0.004531,0.000136,-19.62,-13.14,-47.58,122.9044,0.0791,0.2314,784
-0.014366,-0.028731,9.890749,-0.001629,0.000967,-0.001697,-19.62,-13.14,-47.58,122.9044,0.0791,0.2314,794
-0.03352,-0.009577,9.883567,-0.000407,-0.001476,0.000746,-19.92,-13.38,-47.16,122.9044,0.0791,0.2314,804
-0.035914,-0.002394,9.885961,0.002036,-0.000255,-0.001697,-19.92,-13.38,-47.16,122.9044,0.0791,0.2314,814
-0.035914,-0.002394,9.885961,0.002036,-0.000255,-0.001697,-19.86,-13.2,-47.76,122.9005,0.0786,0.2344,823
-0.031126,-0.009577,9.885961,-0.000407,-0.000255,-0.001086,-19.86,-13.2,-47.76,122.9005,0.0786,0.2344,834
-0.043097,-0.014366,9.914692,0.000814,-0.001476,-0.002919,-19.56,-13.44,-47.7,122.9005,0.0786,0.2344,843
-0.043097,-0.014366,9.914692,0.000814,-0.000866,-0.001697,-19.56,-13.44,-47.7,122.9005,0.0786,0.2344,853
-0.035914,-0.019154,9.888355,0.000814,-0.002087,0.000136,-20.1,-14.16,-47.7,122.9005,0.0786,0.2344,864
-0.03352,-0.011971,9.873989,-0.001629,-0.000866,0.000136,-19.68,-13.44,-47.58,122.8996,0.0792,0.2361,873
-0.026337,-0.035914,9.897932,-0.00224,0.000967,-0.001086,-19.68,-13.44,-47.58,122.8996,0.0792,0.2361,884
-0.055068,-0.007183,9.90272,0.000814,0.001578,-0.002308,-19.5,-13.2,-47.28,122.8996,0.0792,0.2361,893
-0.021548,-0.023943,9.921875,-0.001018,0.000356,0.000746,-19.5,-13.2,-47.28,122.8996,0.0792,0.2361,904
-0.021548,-0.023943,9.921875,-0.000407,0.000967,-0.001086,-19.62,-13.5,-47.1,122.9018,0.0792,0.2364,913
-0.040703,-0.023943,9.888355,-0.000407,0.000967,-0.001086,-19.62,-13.5,-47.1,122.9018,0.0792,0.2364,923
-0.031126,-0.002394,9.888355,0.000814,-0.001476,0.001968,-19.56,-13.5,-47.16,122.9018,0.0792,0.2364,933
-0.028731,-0.026337,9.897932,-0.00224,-0.000866,0.001357,-19.56,-13.5,-47.16,122.9018,0.0792,0.2364,943
-0.035914,-0.007183,9.895537,0.000814,0.001578,-0.002919,-19.86,-13.44,-47.7,122.9006,0.0798,0.2362,954
-0.035914,-0.007183,9.895537,0.000203,-0.001476,0.001968,-19.86,-13.44,-47.7,122.9006,0.0798,0.2362,963
-0.055068,-0.011971,9.878778,0.001425,0.000967,0.000746,-19.68,-13.5,-48.3,122.9006,0.0798,0.2362,973
-0.045491,-0.01676,9.878778,0.001425,0.000967,0.001968,-19.68,-13.5,-48.3,122.9006,0.0798,0.2362,983
-0.040703,-0.011971,9.888355,-0.001018,-0.000866,0.00319,-19.8,-13.62,-47.76,124.8644,0.0805,0.229,993
-0.038308,0.002394,9.895537,-0.000407,0.000356,-0.001086,-19.8,-13.62,-47.76,124.8644,0.0805,0.229,1004
-0.026337,-0.009577,9.885961,0.000203,-0.001476,-0.002308,-20.04,-13.38,-47.04,124.8644,0.0805,0.229,1014
-0.026337,-0.009577,9.885961,0.001425,-0.000866,0.000136,-20.04,-13.38,-47.04,124.8644,0.0805,0.229,1024
-0.021548,-0.009577,9.888355,-0.001629,0.000356,0.000746,-19.8,-13.32,-47.16,122.9044,0.0775,0.2314,1034
-0.05028,0,9.888355,-0.001629,0.001578,-0.000475,-19.8,-13.32,-47.16,122.9044,0.0775,0.2314,1044
-0.05028,0,9.888355,-0.001018,-0.002698,-0.001697,-19.8,-13.32,-47.16,122.9044,0.0775,0.2314,1054
-0.023943,-0.009577,9.905115,0.000814,-0.000866,0.000136,-19.56,-13.74,-47.64,122.9044,0.0775,0.2314,1064
-0.045491,-0.002394,9.893144,-0.00224,0.001578,0.000746,-19.74,-14.16,-48.12,124.8579,0.0727,0.2237,1074
-0.045491,-0.002394,9.893144,-0.00224,0.001578,0.000746,-19.74,-14.16,-48.12,124.8579,0.0727,0.2237,1083
-0.028731,-0.009577,9.895537,0.002647,-0.00392,-0.001086,-19.68,-14.1,-48.18,124.8579,0.0727,0.2237,1093
-0.035914,-0.01676,9.885961,-0.001018,-0.002087,-0.00353,-19.62,-13.5,-47.7,124.8579,0.0727,0.2237,1103
-0.035914,-0.01676,9.885961,0.000814,0.000356,0.002579,-19.62,-13.5,-47.7,124.8579,0.0727,0.2237,1113
-0.035914,-0.011971,9.885961,0.002036,0.000967,0.000136,-19.38,-13.62,-47.64,126.2469,0.0757,0.2175,1124
-0.038308,-0.007183,9.890749,-0.000407,0.000967,0.000136,-19.38,-13.62,-47.64,126.2469,0.0757,0.2175,1134
-0.028731,0,9.888355,0.001425,0.001578,-0.001086,-19.44,-13.74,-47.46,126.2469,0.0757,0.2175,1144
-0.028731,0.002394,9.883567,-0.001018,0.001578,0.002579,-19.44,-13.74,-47.46,126.2469,0.0757,0.2175,1153
-0.028731,0.002394,9.883567,-0.000407,0.000967,0.000136,-19.32,-13.74,-47.34,126.248,0.0754,0.2187,1164
-0.038308,-0.014366,9.888355,0.000203,-0.002698,0.000746,-19.32,-13.74,-47.34,126.248,0.0754,0.2187,1173
-0.028731,-0.004789,9.893144,-0.000407,0.001578,0.000746,-19.38,-13.8,-47.58,126.248,0.0754,0.2187,1184
-0.031126,-0.004789,9.888355,0.000203,0.00341,-0.000475,-19.38,-13.8,-47.58,126.248,0.0754,0.2187,1194
-0.031126,-0.004789,9.888355,-0.000407,0.002189,-0.002308,-19.86,-13.68,-48.18,124.8668,0.0753,0.2195,1204
-0.043097,-0.004789,9.893144,0.002647,-0.001476,0.000136,-19.86,-13.68,-48.18,124.8668,0.0753,0.2195,1214
-0.028731,-0.021548,9.909904,-0.001018,0.002189,0.000136,-19.98,-13.32,-48.36,124.8668,0.0753,0.2195,1223
-0.05028,-0.021548,9.885961,0.001425,0.000356,0.001357,-19.98,-13.32,-48.36,124.8668,0.0753,0.2195,1234
-0.05028,-0.021548,9.885961,-0.000407,0.000967,0.000746,-19.56,-12.9,-48.42,122.8972,0.0682,0.2213,1244
-0.035914,-0.023943,9.890749,-0.000407,0.000967,0.000746,-19.56,-12.9,-48.42,122.8972,0.0682,0.2213,1254
-0.031126,-0.011971,9.893144,-0.00224,0.001578,-0.001697,-19.8,-12.9,-47.94,122.8972,0.0682,0.2213,1264
-0.040703,-0.026337,9.900327,0.000203,-0.000866,-0.000475,-19.68,-12.96,-47.4,122.8972,0.0682,0.2213,1273
-0.035914,-0.004789,9.893144,0.000814,0.002189,0.000136,-19.68,-12.96,-47.4,122.8972,0.0682,0.2213,1284
-0.035914,-0.004789,9.893144,0.002036,0.002189,0.001968,-19.26,-12.72,-47.28,124.2427,0.0715,0.2248,1293
-0.03352,-0.002394,9.885961,0.000814,0.000967,0.000746,-19.26,-12.72,-47.28,124.2427,0.0715,0.2248,1304
-0.043097,-0.021548,9.885961,0.000814,-0.001476,0.002579,-19.92,-12.72,-46.8,124.2427,0.0715,0.2248,1313
-0.028731,-0.009577,9.893144,-0.001018,0.000356,-0.000475,-19.92,-12.72,-46.8,124.2427,0.0715,0.2248,1323
-0.031126,-0.014366,9.888355,0.000203,0.000356,0.001968,-20.4,-13.14,-46.86,122.9035,0.0768,0.2311,1334
-0.031126,-0.014366,9.888355,0.000203,-0.000255,-0.000475,-20.4,-13.14,-46.86,122.9035,0.0768,0.2311,1344
-0.045491,-0.01676,9.885961,-0.001018,0.002189,-0.000475,-20.34,-13.2,-47.82,122.9035,0.0768,0.2311,1354
-0.038308,-0.011971,9.885961,-0.001018,0.002189,-0.000475,-20.34,-13.2,-47.82,122.9035,0.0768,0.2311,1363
-0.038308,-0.004789,9.893144,-0.000407,0.000356,-0.000475,-20.34,-13.92,-47.94,124.849,0.0756,0.2358,1373
-0.038308,-0.021548,9.895537,-0.001629,0.000356,0.000136,-20.34,-13.92,-47.94,124.849,0.0756,0.2358,1385
-0.038308,-0.021548,9.895537,-0.001629,0.000356,0.000136,-19.8,-13.68,-47.94,124.849,0.0756,0.2358,1393
-0.040703,-0.009577,9.900327,-0.001018,0.000356,0.001357,-19.8,-13.68,-47.94,124.849,0.0756,0.2358,1404
-0.028731,-0.009577,9.888355,0.000203,-0.001476,-0.001086,-19.44,-13.2,-47.4,124.2429,0.0742,0.2287,1413
-0.038308,-0.026337,9.890749,-0.001629,-0.000255,0.000136,-19.44,-13.2,-47.4,124.2429,0.0742,0.2287,1424
-0.035914,0,9.883567,-0.000407,0.000967,0.000746,-19.5,-13.5,-47.82,124.2429,0.0742,0.2287,1433
-0.035914,0,9.883567,0.000814,-0.002087,0.001357,-19.5,-13.5,-47.82,124.2429,0.0742,0.2287,1443
-0.031126,-0.01676,9.905115,-0.000407,-0.000255,-0.000475,-19.44,-13.32,-48.36,124.2492,0.074,0.2205,1453
-0.026337,-0.004789,9.897932,-0.001018,0.000967,0.001968,-19.44,-13.32,-48.36,124.2492,0.074,0.2205,1463
-0.062251,0.002394,9.888355,-0.001018,-0.002698,0.000136,-19.8,-13.68,-47.76,124.2492,0.074,0.2205,1473
-0.031126,-0.01676,9.895537,-0.000407,-0.001476,-0.002919,-19.8,-13.68,-47.76,124.2492,0.074,0.2205,1484
-0.043097,-0.007183,9.885961,-0.001629,-0.000255,-0.001086,-20.1,-14.4,-48,124.8655,0.0743,0.2192,1493
-0.043097,-0.007183,9.885961,-0.002851,-0.000866,-0.000475,-20.1,-14.4,-48,124.8655,0.0743,0.2192,1504
-0.05028,-0.007183,9.883567,-0.001629,-0.002087,-0.001697,-20.76,-13.86,-47.7,124.8655,0.0743,0.2192,1513
-0.026337,0.004789,9.888355,-0.000407,-0.000255,0.000746,-20.76,-13.86,-47.7,124.8655,0.0743,0.2192,1524
-0.035914,-0.009577,9.883567,-0.000407,0.002189,-0.001086,-20.7,-13.14,-47.58,121.6605,0.0745,0.2178,1534
-0.035914,-0.014366,9.907509,-0.001018,-0.000255,-0.00353,-20.7,-13.14,-47.58,121.6605,0.0745,0.2178,1544
-0.035914,-0.014366,9.907509,-0.001018,-0.000255,-0.00353,-20.16,-13.38,-47.7,121.6605,0.0745,0.2178,1553
-0.028731,-0.026337,9.873989,-0.001629,-0.000866,0.000136,-20.16,-13.38,-47.7,121.6605,0.0745,0.2178,1563
-0.043097,-0.004789,9.895537,-0.001629,0.000967,0.001968,-20.64,-13.2,-47.34,121.6695,0.0767,0.2143,1574
-0.045491,-0.002394,9.869201,0.000203,0.001578,-0.000475,-20.64,-13.2,-47.34,121.6695,0.0767,0.2143,1584
-0.01676,-0.007183,9.893144,-0.001629,-0.002087,-0.00414,-20.82,-13.38,-47.4,121.6695,0.0767,0.2143,1594
-0.01676,-0.007183,9.893144,-0.000407,0.002189,0.000746,-20.82,-13.38,-47.4,121.6695,0.0767,0.2143,1603
-0.038308,-0.028731,9.888355,0.002036,-0.001476,-0.000475,-20.4,-13.92,-47.16,124.865,0.0747,0.2225,1613
-0.047885,-0.007183,9.885961,-0.000407,-0.000255,0.000136,-20.16,-13.74,-48,124.865,0.0747,0.2225,1623
-0.023943,-0.011971,9.895537,-0.000407,0.000356,-0.001697,-20.16,-13.74,-48,124.865,0.0747,0.2225,1634
-0.05028,-0.007183,9.885961,-0.000407,0.000356,-0.001697,-20.22,-13.56,-47.64,124.865,0.0747,0.2225,1644
-0.05028,-0.007183,9.885961,-0.001018,0.002189,-0.001086,-20.22,-13.56,-47.64,124.865,0.0747,0.2225,1653
-0.031126,-0.01676,9.878778,-0.002851,-0.002698,-0.002919,-19.5,-13.32,-47.1,124.241,0.0709,0.2255,1664
-0.047885,-0.007183,9.876384,-0.001018,0.005243,0.000746,-19.5,-13.32,-47.1,124.241,0.0709,0.2255,1674
-0.040703,-0.009577,9.900327,0.000203,-0.000255,-0.000475,-19.98,-13.32,-47.28,124.241,0.0709,0.2255,1683
-0.040703,-0.009577,9.900327,0.000203,-0.000255,0.001357,-20.1,-13.2,-47.16,124.241,0.0709,0.2255,1693
-0.03352,0.007183,9.864412,0.000814,0.000356,-0.001086,-20.1,-13.2,-47.16,124.241,0.0709,0.2255,1703
-0.031126,-0.007183,9.888355,-0.001629,0.002189,-0.001086,-20.04,-12.9,-47.64,122.8992,0.0714,0.2244,1714
-0.028731,-0.021548,9.905115,-0.000407,0.000967,-0.002919,-20.04,-12.9,-47.64,122.8992,0.0714,0.2244,1723
-0.038308,-0.014366,9.900327,-0.000407,0.000967,-0.002919,-19.8,-13.74,-47.46,122.8992,0.0714,0.2244,1734
-0.038308,0,9.881172,-0.000407,-0.000255,0.000746,-19.8,-13.74,-47.46,122.8992,0.0714,0.2244,1744
-0.038308,0,9.881172,-0.001018,0.000356,-0.002308,-19.8,-13.44,-47.04,122.893,0.0686,0.2283,1754
-0.035914,-0.023943,9.878778,-0.000407,-0.002698,-0.001086,-19.8,-13.44,-47.04,122.893,0.0686,0.2283,1763
-0.047885,-0.03352,9.890749,0.002036,0.000356,0.000746,-19.8,-13.5,-46.98,122.893,0.0686,0.2283,1773
-0.028731,0.002394,9.873989,-0.002851,-0.001476,0.000136,-19.8,-13.5,-46.98,122.893,0.0686,0.2283,1784
-0.028731,0.002394,9.873989,0.000814,-0.001476,0.000136,-20.1,-13.8,-47.52,124.838,0.066,0.232,1794
-0.040703,-0.002394,9.878778,0.000203,0.000967,0.001968,-20.1,-13.8,-47.52,124.838,0.066,0.232,1804
-0.05028,-0.028731,9.881172,0.000203,-0.002087,-0.001697,-20.4,-12.96,-48.12,124.838,0.066,0.232,1814
-0.05028,-0.028731,9.881172,0.000203,-0.002087,-0.001697,-20.4,-12.96,-48.12,124.838,0.066,0.232,1824
-0.028731,-0.031126,9.895537,0.000814,0.001578,-0.000475,-19.98,-12.78,-48,124.838,0.066,0.232,1833
-0.038308,0.028731,9.895537,0.000814,-0.004531,-0.002308,-20.16,-12.66,-47.28,122.889,0.0686,0.2321,1844
-0.007183,-0.064645,9.905115,-0.003462,0.000356,-0.000475,-20.16,-12.66,-47.28,122.889,0.0686,0.2321,1853
-0.007183,-0.064645,9.905115,0.004479,0.004021,0.000136,-19.98,-12.9,-47.46,122.889,0.0686,0.2321,1863
-0.079011,-0.004789,9.840469,-0.001629,-0.003309,0.000136,-19.98,-12.9,-47.46,122.889,0.0686,0.2321,1874
-0.023943,0.004789,9.912297,-0.001018,-0.000866,-0.001086,-19.92,-13.32,-47.7,122.8975,0.0747,0.2311,1883
-0.043097,-0.040703,9.893144,0.000203,0.001578,-0.001697,-19.92,-13.32,-47.7,122.8975,0.0747,0.2311,1893
-0.043097,-0.040703,9.893144,0.000203,-0.000866,0.000746,-19.68,-13.68,-47.46,122.8975,0.0747,0.2311,1904
-0.028731,0.002394,9.862018,-0.004073,0.001578,-0.002308,-19.68,-13.68,-47.46,122.8975,0.0747,0.2311,1914
-0.028731,0.002394,9.862018,-0.004073,0.001578,-0.002308,-19.68,-13.68,-47.46,122.8975,0.0747,0.2311,1923
-0.026337,-0.035914,9.907509,0.000814,0.000356,0.001357,-19.32,-13.14,-47.52,124.2546,0.0789,0.2231,1934
-0.031126,0.011971,9.862018,0.000814,0.000356,0.001357,-19.68,-12.42,-47.76,124.2546,0.0789,0.2231,1944
-0.043097,-0.021548,9.885961,0.000814,0.000356,0.001357,-19.68,-12.42,-47.76,124.2546,0.0789,0.2231,1954
-0.052674,0.002394,9.914692,-0.000407,0.000356,-0.00414,-19.62,-13.14,-47.34,122.9169,0.0805,0.2242,1963
-0.019154,-0.011971,9.888355,0.000203,0.000356,-0.001086,-19.62,-13.14,-47.34,122.9169,0.0805,0.2242,1977
-0.019154,-0.011971,9.888355,0.000203,0.000356,-0.001086,-19.5,-13.5,-47.64,122.9169,0.0805,0.2242,1983
-0.040703,-0.028731,9.878778,0.002036,-0.000255,-0.001086,-19.5,-13.5,-47.64,122.9169,0.0805,0.2242,1994
-0.021548,-0.002394,9.905115,-0.002851,-0.001476,0.001968,-19.98,-13.44,-48.48,122.9194,0.0783,0.2164,2005
-0.026337,-0.011971,9.895537,-0.001018,-0.001476,-0.002308,-19.98,-13.44,-48.48,122.9194,0.0783,0.2164,2015
-0.026337,-0.011971,9.895537,-0.001018,0.000356,-0.000475,-20.76,-13.62,-47.88,122.9194,0.0783,0.2164,2024
-0.052674,-0.026337,9.869201,-0.001629,0.002189,0.004412,-20.76,-13.62,-47.88,122.9194,0.0783,0.2164,2033
-0.019154,0,9.907509,-0.001629,0.002189,0.004412,-20.64,-13.8,-46.98,123.5908,0.0772,0.2126,2043
-0.045491,-0.011971,9.871595,-0.000407,-0.001476,-0.001086,-20.64,-13.8,-46.98,123.5908,0.0772,0.2126,2054
-0.047885,-0.014366,9.881172,-0.000407,-0.000866,-0.000475,-20.52,-13.56,-46.8,123.5908,0.0772,0.2126,2064
-0.047885,-0.014366,9.881172,-0.000407,-0.000866,-0.000475,-20.52,-13.56,-46.8,123.5908,0.0772,0.2126,2073
-0.023943,-0.002394,9.909904,0.000814,0.002189,-0.001697,-20.46,-13.38,-46.74,123.5908,0.0772,0.2126,2083
-0.040703,-0.021548,9.893144,-0.002851,-0.001476,-0.001086,-20.1,-13.86,-47.34,124.8793,0.0773,0.2133,2094
-0.035914,-0.004789,9.888355,0.000203,-0.000866,0.000136,-20.1,-13.86,-47.34,124.8793,0.0773,0.2133,2104
-0.035914,-0.004789,9.888355,0.000203,-0.000866,0.000136,-19.68,-13.86,-47.16,124.8793,0.0773,0.2133,2113
-0.019154,-0.004789,9.878778,0.000814,-0.002698,-0.00353,-19.68,-13.86,-47.16,124.8793,0.0773,0.2133,2124
-0.031126,-0.011971,9.866806,-0.001018,0.001578,0.001968,-19.8,-13.32,-46.98,122.9153,0.0744,0.2164,2134
-0.043097,-0.011971,9.883567,0.000203,-0.000866,0.001968,-19.8,-13.32,-46.98,122.9153,0.0744,0.2164,2143
-0.047885,-0.021548,9.893144,0.002036,-0.002087,0.000746,-20.1,-13.98,-47.1,122.9153,0.0744,0.2164,2153
-0.03352,-0.026337,9.888355,-0.001629,-0.000255,-0.000475,-20.1,-13.98,-47.1,122.9153,0.0744,0.2164,2164
-0.03352,-0.026337,9.888355,-0.001018,0.000356,-0.001086,-20.1,-14.28,-46.98,124.8654,0.069,0.2141,2174
-0.045491,-0.011971,9.881172,0.000203,-0.000866,0.000746,-20.1,-14.28,-46.98,124.8654,0.069,0.2141,2184
-0.014366,-0.011971,9.881172,-0.000407,-0.001476,-0.001086,-20.34,-13.38,-47.94,124.8654,0.069,0.2141,2193
-0.038308,-0.023943,9.888355,0.002036,0.002189,0.000746,-20.34,-13.38,-47.94,124.8654,0.069,0.2141,2203
-0.03352,-0.002394,9.881172,-0.001629,0.000356,0.000136,-20.16,-13.26,-47.94,122.9008,0.0699,0.2206,2213
-0.03352,-0.002394,9.881172,-0.001629,-0.000255,-0.001086,-20.16,-13.26,-47.94,122.9008,0.0699,0.2206,2224
-0.026337,-0.009577,9.883567,-0.001018,-0.002087,-0.002308,-19.98,-12.96,-47.28,122.9008,0.0699,0.2206,2233
-0.045491,-0.021548,9.881172,0.001425,0.007076,0.000746,-19.74,-12.66,-46.98,122.9008,0.0699,0.2206,2244
-0.040703,-0.007183,9.885961,-0.001629,-0.000255,0.000746,-19.74,-12.66,-46.98,122.9008,0.0699,0.2206,2254
-0.040703,-0.007183,9.885961,-0.001629,-0.000255,0.000746,-19.74,-12.66,-46.98,122.9008,0.0699,0.2206,2264
-0.043097,-0.014366,9.881172,-0.002851,-0.000866,-0.001086,-19.14,-13.26,-47.28,124.2369,0.0681,0.225,2273
-0.040703,-0.021548,9.869201,0.000814,-0.001476,0.000746,-19.62,-13.44,-47.82,124.2369,0.0681,0.225,2283
-0.05028,-0.011971,9.883567,-0.001018,-0.003309,-0.002919,-19.62,-13.44,-47.82,124.2369,0.0681,0.225,2293
-0.05028,-0.011971,9.883567,0.000203,0.000967,0.001968,-20.4,-12.9,-48.48,122.8959,0.0689,0.2235,2304
-0.03352,-0.023943,9.888355,0.002036,-0.002087,0.002579,-20.4,-12.9,-48.48,122.8959,0.0689,0.2235,2313
-0.031126,-0.007183,9.871595,0.000203,-0.001476,0.000136,-20.58,-13.98,-48,122.8959,0.0689,0.2235,2324
-0.045491,0,9.897932,-0.000407,-0.000255,0.000746,-20.58,-13.98,-48,122.8959,0.0689,0.2235,2333
-0.045491,0.009577,9.869201,-0.000407,-0.000255,0.001968,-19.92,-13.86,-46.74,124.841,0.0634,0.2285,2344
-0.045491,0.009577,9.869201,0.000203,0.000356,-0.001086,-19.92,-13.86,-46.74,124.841,0.0634,0.2285,2353
-0.055068,-0.004789,9.888355,0.002647,0.001578,0.000746,-19.14,-13.14,-47.34,124.841,0.0634,0.2285,2363
-0.026337,-0.004789,9.876384,0.000814,0.001578,-0.001086,-19.14,-13.14,-47.34,124.841,0.0634,0.2285,2374
-0.023943,-0.011971,9.864412,-0.00224,-0.002087,-0.00353,-19.86,-13.62,-47.46,124.8232,0.0565,0.2348,2383
-0.035914,-0.011971,9.876384,-0.000407,-0.002087,-0.002308,-19.86,-13.62,-47.46,124.8232,0.0565,0.2348,2394
-0.035914,-0.011971,9.876384,-0.000407,0.000967,0.00319,-20.88,-13.74,-47.1,124.8232,0.0565,0.2348,2404
-0.040703,-0.01676,9.864412,-0.000407,-0.000866,-0.001697,-20.88,-13.74,-47.1,124.8232,0.0565,0.2348,2413
-0.03352,-0.031126,9.881172,-0.003462,-0.002087,0.000136,-19.74,-13.86,-47.46,124.822,0.0563,0.2357,2424
-0.03352,-0.014366,9.838076,0.000203,0.0028,-0.001697,-19.74,-13.86,-47.46,124.822,0.0563,0.2357,2434
-0.03352,-0.014366,9.838076,-0.001018,-0.002087,-0.001697,-19.08,-14.1,-47.64,124.822,0.0563,0.2357,2443
-0.035914,-0.01676,9.862018,0.000203,-0.000866,-0.001086,-19.08,-14.1,-47.64,124.822,0.0563,0.2357,2454
-0.031126,-0.011971,9.888355,-0.001018,0.000356,-0.001697,-19.68,-13.68,-47.46,124.8309,0.0614,0.2348,2464
-0.055068,-0.011971,9.845258,-0.000407,0.000967,0.000746,-19.68,-13.68,-47.46,124.8309,0.0614,0.2348,2473
-0.028731,-0.004789,9.893144,-0.001629,-0.002698,0.001357,-19.08,-13.38,-47.28,124.8309,0.0614,0.2348,2483
-0.026337,-0.019154,9.873989,-0.001018,-0.000255,0.000746,-19.08,-13.38,-47.28,124.8309,0.0614,0.2348,2494
-0.026337,-0.019154,9.873989,0.001425,-0.000866,0.001357,-18.66,-13.56,-48.42,126.2035,0.0602,0.2328,2504
-0.040703,-0.01676,9.854836,-0.001629,0.000967,0.000746,-18.66,-13.56,-48.42,126.2035,0.0602,0.2328,2513
-0.045491,0.023943,9.871595,-0.00224,-0.00392,-0.002919,-19.62,-13.5,-48.66,126.2035,0.0602,0.2328,2524
-0.028731,-0.019154,9.885961,-0.00224,-0.00392,-0.002919,-19.62,-13.5,-48.66,126.2035,0.0602,0.2328,2533
-0.040703,0,9.847652,0.002036,0.0028,0.000136,-20.58,-13.86,-47.46,123.5541,0.0635,0.2278,2544
-0.040703,0,9.847652,0.002036,0.0028,0.000136,-20.58,-13.86,-47.46,123.5541,0.0635,0.2278,2554
-0.043097,-0.002394,9.854836,-0.003462,-0.000866,-0.001086,-19.92,-14.58,-47.1,123.5541,0.0635,0.2278,2563
-0.031126,-0.009577,9.900327,0.000814,-0.002087,0.000136,-19.92,-14.58,-47.1,123.5541,0.0635,0.2278,2574
-0.031126,-0.009577,9.900327,0.003258,0.005243,0.002579,-19.56,-14.58,-46.86,126.7178,0.0661,0.224,2583
-0.069434,0.014366,9.816526,-0.000407,-0.001476,0.00319,-19.56,-14.58,-46.86,126.7178,0.0661,0.224,2594
-0.031126,-0.03352,9.859624,0.001425,0.000356,-0.000475,-19.38,-13.86,-47.04,126.7178,0.0661,0.224,2604
-0.045491,-0.019154,9.890749,0.001425,0.000356,-0.000475,-19.38,-13.86,-47.04,126.7178,0.0661,0.224,2613
-0.055068,-0.007183,9.840469,0.000814,0.002189,0.000136,-19.5,-13.32,-47.64,124.238,0.0671,0.2201,2623
-0.055068,-0.007183,9.840469,0.000203,-0.000255,0.000136,-19.5,-13.32,-47.64,124.238,0.0671,0.2201,2633
-0.045491,-0.011971,9.862018,0.000203,-0.000866,-0.000475,-20.22,-13.26,-47.88,124.238,0.0671,0.2201,2643
-0.038308,0.009577,9.862018,-0.002851,-0.000866,0.000746,-20.22,-13.26,-47.88,124.238,0.0671,0.2201,2654
-0.021548,-0.009577,9.878778,-0.002851,-0.000866,0.000746,-20.16,-13.56,-47.46,124.862,0.0702,0.2189,2664
-0.057463,-0.01676,9.850046,0.002036,0.000967,-0.001697,-20.16,-13.56,-47.46,124.862,0.0702,0.2189,2673
-0.03352,-0.023943,9.893144,-0.003462,-0.003309,-0.000475,-20.28,-14.04,-47.82,124.862,0.0702,0.2189,2683
-0.03352,-0.023943,9.893144,0.000203,0.000967,0.000136,-20.28,-14.04,-47.82,124.862,0.0702,0.2189,2694
-0.038308,-0.004789,9.866806,-0.001018,-0.000255,-0.00353,-19.98,-13.62,-48,124.8715,0.0768,0.2173,2704
-0.043097,-0.014366,9.869201,-0.001018,-0.000866,0.000746,-19.98,-13.62,-48,124.8715,0.0768,0.2173,2713
-0.021548,-0.014366,9.859624,0.000203,-0.000255,-0.001086,-20.04,-13.2,-47.58,124.8715,0.0768,0.2173,2723
-0.021548,-0.014366,9.859624,0.002036,0.002189,-0.002308,-20.04,-13.2,-47.58,124.8715,0.0768,0.2173,2733
-0.052674,-0.004789,9.871595,-0.001629,-0.000866,0.000746,-20.22,-13.68,-48.42,124.8713,0.0767,0.2174,2743
-0.026337,-0.011971,9.866806,0.002036,0.005243,-0.001086,-20.22,-13.68,-48.42,124.8713,0.0767,0.2174,2754
-0.064645,0,9.857229,-0.001018,-0.002087,-0.001086,-19.86,-13.86,-48.54,124.8713,0.0767,0.2174,2764
-0.021548,-0.023943,9.862018,-0.001018,-0.000255,-0.00353,-19.86,-13.86,-48.54,124.8713,0.0767,0.2174,2773
-0.021548,-0.023943,9.862018,-0.001018,-0.000255,-0.00353,-19.68,-13.38,-47.7,122.9012,0.0704,0.221,2784
-0.019154,-0.021548,9.852441,-0.000407,0.000356,-0.000475,-19.68,-13.38,-47.7,122.9012,0.0704,0.221,2793
-0.035914,-0.019154,9.847652,-0.001629,-0.002087,-0.000475,-20.22,-13.5,-47.04,122.9012,0.0704,0.221,2804
-0.043097,-0.023943,9.897932,-0.002851,-0.001476,0.001968,-20.22,-13.5,-47.04,122.9012,0.0704,0.221,2814
-0.045491,0.002394,9.869201,0.000203,0.001578,-0.001086,-20.22,-13.32,-47.46,122.9036,0.0718,0.2233,2825
-0.043097,-0.019154,9.873989,-0.000407,-0.000866,-0.000475,-20.22,-13.32,-47.46,122.9036,0.0718,0.2233,2834
-0.043097,-0.019154,9.873989,-0.000407,-0.000255,0.001357,-19.62,-13.32,-47.7,122.9036,0.0718,0.2233,2843
-0.038308,-0.007183,9.871595,0.000203,0.00341,-0.002308,-19.62,-13.32,-47.7,122.9036,0.0718,0.2233,2854
-0.045491,-0.007183,9.873989,-0.00224,-0.000866,-0.002919,-20.1,-13.74,-47.34,124.8615,0.072,0.222,2863
-0.05028,-0.021548,9.871595,-0.00224,-0.000866,-0.002919,-20.1,-13.74,-47.34,124.8615,0.072,0.222,2874
-0.05028,-0.021548,9.871595,0.002036,-0.000866,0.000746,-20.34,-13.08,-48.06,124.8615,0.072,0.222,2883
-0.031126,-0.004789,9.833286,-0.000407,0.00341,0.000746,-20.34,-13.08,-48.06,124.8615,0.072,0.222,2893
-0.038308,-0.009577,9.859624,-0.00224,-0.001476,-0.001086,-20.1,-13.56,-47.7,124.8603,0.0723,0.221,2904
-0.035914,0.002394,9.838076,-0.001629,-0.001476,0.000136,-20.1,-13.56,-47.7,124.8603,0.0723,0.221,2914
-0.038308,-0.023943,9.862018,-0.00224,0.000356,-0.001697,-20.28,-14.28,-46.74,124.8603,0.0723,0.221,2924
-0.038308,-0.023943,9.862018,0.000814,-0.000866,-0.001086,-20.28,-14.28,-46.74,124.8603,0.0723,0.221,2934
-0.035914,-0.014366,9.876384,0.000203,0.000356,0.000136,-20.46,-13.98,-47.28,124.8617,0.0721,0.2219,2943
-0.038308,-0.007183,9.857229,0.000203,-0.000255,-0.000475,-20.46,-13.98,-47.28,124.8617,0.0721,0.2219,2953
-0.038308,-0.014366,9.881172,-0.000407,-0.000866,-0.001086,-20.22,-13.56,-48.24,124.8617,0.0721,0.2219,2964
-0.038308,-0.014366,9.881172,0.002036,0.004021,0.00319,-20.22,-13.56,-48.24,124.8617,0.0721,0.2219,2974
-0.047885,-0.011971,9.883567,-0.001018,-0.000866,0.001357,-19.86,-13.56,-48.3,124.8651,0.0762,0.2223,2983
-0.047885,-0.007183,9.854836,0.000814,-0.000866,0.000746,-19.86,-13.56,-48.3,124.8651,0.0762,0.2223,2993
-0.023943,-0.01676,9.876384,-0.000407,-0.000866,-0.001697,-19.86,-13.98,-47.7,124.8651,0.0762,0.2223,3004
-0.045491,-0.023943,9.869201,0.000203,0.000356,0.000136,-19.86,-13.98,-47.7,124.8651,0.0762,0.2223,3013
-0.019154,-0.023943,9.888355,-0.000407,0.000356,0.000136,-19.74,-13.8,-47.64,124.8578,0.0714,0.2219,3026
-0.019154,-0.023943,9.888355,-0.000407,-0.001476,-0.002308,-19.74,-13.8,-47.64,124.8578,0.0714,0.2219,3034
-0.05028,-0.026337,9.866806,0.000203,0.000967,0.000746,-19.56,-13.86,-47.76,124.8578,0.0714,0.2219,3043
-0.045491,0.004789,9.845258,0.000203,0.000967,0.000746,-19.56,-13.86,-47.76,124.8578,0.0714,0.2219,3053
-0.05028,0.002394,9.854836,0.000814,-0.002087,-0.001697,-20.46,-13.5,-47.94,122.9114,0.0733,0.2161,3063
-0.05028,0.002394,9.854836,0.000814,-0.002087,-0.001697,-20.46,-13.5,-47.94,122.9114,0.0733,0.2161,3073
-0.031126,-0.01676,9.907509,0.002036,0.000967,-0.000475,-20.76,-12.9,-47.46,122.9114,0.0733,0.2161,3083
-0.014366,-0.011971,9.852441,-0.002851,0.002189,-0.001697,-20.76,-12.9,-47.46,122.9114,0.0733,0.2161,3094
-0.052674,-0.007183,9.854836,0.000203,0.001578,0.000746,-20.1,-13.02,-47.52,122.9174,0.0759,0.2146,3103
-0.031126,-0.014366,9.893144,0.001425,0.002189,0.000136,-20.1,-13.02,-47.52,122.9174,0.0759,0.2146,3113
-0.03352,-0.019154,9.864412,0.002647,0.001578,0.001968,-20.16,-13.68,-47.94,122.9174,0.0759,0.2146,3125
-0.03352,-0.019154,9.864412,-0.001018,0.001578,-0.002919,-20.16,-13.68,-47.94,122.9174,0.0759,0.2146,3133
-0.038308,-0.011971,9.840469,0.002036,-0.001476,0.000746,-19.86,-13.74,-47.58,124.8738,0.0761,0.2143,3144
-0.038308,-0.009577,9.871595,0.002036,-0.001476,0.000746,-19.86,-13.74,-47.58,124.8738,0.0761,0.2143,3153
-0.059857,0.014366,9.852441,-0.001018,-0.002087,0.000746,-19.86,-13.02,-47.88,124.8738,0.0761,0.2143,3164
-0.059857,0.014366,9.852441,-0.001018,-0.002087,0.000746,-19.86,-13.02,-47.88,124.8738,0.0761,0.2143,3173
-0.019154,-0.021548,9.826104,0.001425,-0.002698,0.001357,-19.92,-13.32,-47.88,122.9246,0.0795,0.2134,3184
-0.028731,-0.021548,9.893144,0.001425,-0.002698,0.001357,-19.92,-13.32,-47.88,122.9246,0.0795,0.2134,3194
-0.040703,0.004789,9.862018,-0.001018,0.001578,-0.001086,-19.98,-13.86,-47.4,122.9246,0.0795,0.2134,3203
-0.021548,-0.026337,9.871595,0.002647,0.004021,0.002579,-19.98,-13.86,-47.4,122.9246,0.0795,0.2134,3214
-0.021548,-0.026337,9.871595,0.002647,0.004021,0.002579,-19.98,-13.5,-47.64,122.9201,0.0802,0.2188,3223
-0.059857,0.002394,9.840469,-0.00224,-0.002698,-0.000475,-19.98,-13.5,-47.64,122.9201,0.0802,0.2188,3234
-0.01676,-0.023943,9.885961,0.000203,-0.002087,0.000746,-20.1,-13.5,-47.82,122.9201,0.0802,0.2188,3243
-0.035914,-0.009577,9.864412,0.000814,0.001578,-0.001697,-20.1,-13.5,-47.82,122.9201,0.0802,0.2188,3254
-0.035914,-0.009577,9.864412,-0.000407,0.001578,0.000136,-20.22,-13.44,-47.64,122.9119,0.0785,0.2237,3264
-0.043097,-0.031126,9.862018,0.000203,-0.000866,-0.001086,-20.22,-13.44,-47.64,122.9119,0.0785,0.2237,3274
-0.038308,-0.007183,9.893144,0.000203,-0.000866,-0.001697,-19.74,-13.5,-47.64,122.9119,0.0785,0.2237,3283
-0.045491,-0.009577,9.859624,-0.001629,0.000356,0.001968,-19.74,-13.5,-47.64,122.9119,0.0785,0.2237,3294
-0.045491,-0.009577,9.859624,0.000203,-0.001476,-0.005362,-19.68,-13.62,-47.58,124.8645,0.0774,0.2245,3304
-0.03352,-0.021548,9.857229,0.000203,-0.001476,-0.005362,-19.68,-13.62,-47.58,124.8645,0.0774,0.2245,3313
-0.057463,-0.019154,9.883567,-0.00224,-0.002087,0.000746,-19.86,-12.96,-47.4,124.8645,0.0774,0.2245,3324
-0.043097,-0.035914,9.864412,0.000203,0.000356,0.001357,-19.86,-12.96,-47.4,124.8645,0.0774,0.2245,3333
-0.038308,-0.004789,9.847652,-0.000407,-0.000866,-0.00414,-18.96,-13.14,-47.82,124.2522,0.0729,0.2162,3343
-0.038308,-0.004789,9.847652,-0.002851,-0.001476,0.000136,-18.96,-13.14,-47.82,124.2522,0.0729,0.2162,3353
-0.043097,-0.011971,9.888355,-0.001629,-0.000255,-0.000475,-18.78,-13.44,-48.24,124.2522,0.0729,0.2162,3364
-0.03352,-0.021548,9.888355,0.000814,-0.000866,-0.001086,-18.78,-13.44,-48.24,124.2522,0.0729,0.2162,3373
-0.040703,-0.021548,9.873989,-0.003462,-0.002698,-0.000475,-19.44,-13.38,-48.48,124.2821,0.0837,0.2063,3383
-0.040703,-0.021548,9.873989,-0.003462,-0.002698,-0.000475,-19.44,-13.38,-48.48,124.2821,0.0837,0.2063,3394
-0.026337,-0.009577,9.873989,-0.001018,0.000967,-0.000475,-19.44,-13.02,-48.42,124.2821,0.0837,0.2063,3404
-0.043097,-0.026337,9.864412,0.000203,-0.000866,0.001357,-19.62,-12.72,-48,124.2821,0.0837,0.2063,3413
-0.040703,-0.01676,9.873989,0.000814,0.000967,0.002579,-19.62,-12.72,-48,124.2821,0.0837,0.2063,3424
-0.043097,-0.01676,9.876384,-0.000407,-0.00392,0.000746,-20.52,-13.38,-47.16,121.6889,0.0837,0.2062,3434
-0.026337,-0.011971,9.871595,-0.001018,-0.000866,0.001357,-20.52,-13.38,-47.16,121.6889,0.0837,0.2062,3444
-0.026337,-0.011971,9.871595,-0.00224,0.002189,-0.001086,-20.1,-13.62,-47.34,121.6889,0.0837,0.2062,3454
-0.05028,-0.019154,9.859624,-0.000407,0.000356,0.001357,-19.68,-13.38,-47.34,121.6889,0.0837,0.2062,3464
-0.05028,-0.019154,9.876384,-0.000407,0.000356,0.001357,-19.68,-13.38,-47.34,121.6889,0.0837,0.2062,3473
-0.05028,-0.019154,9.876384,-0.001629,-0.001476,0.00319,-20.04,-13.74,-46.74,124.8808,0.0789,0.2141,3483
-0.028731,-0.014366,9.871595,-0.00224,-0.000255,-0.000475,-20.04,-13.74,-46.74,124.8808,0.0789,0.2141,3494
-0.031126,-0.002394,9.862018,0.001425,0.001578,-0.002308,-20.1,-13.32,-46.92,124.8808,0.0789,0.2141,3503
-0.03352,-0.014366,9.866806,-0.00224,-0.000866,-0.001086,-20.1,-13.32,-46.92,124.8808,0.0789,0.2141,3513
-0.038308,-0.014366,9.864412,-0.001018,-0.000866,0.000746,-19.38,-13.26,-47.46,124.2466,0.0746,0.2259,3524
-0.031126,0.002394,9.850046,-0.000407,-0.000255,-0.001086,-19.38,-13.26,-47.46,124.2466,0.0746,0.2259,3534
-0.038308,-0.007183,9.873989,-0.001018,0.000356,0.001357,-19.56,-13.32,-47.7,124.2466,0.0746,0.2259,3544
-0.038308,-0.007183,9.873989,0.000203,-0.000255,-0.000475,-19.56,-13.32,-47.7,124.2466,0.0746,0.2259,3554
-0.043097,-0.002394,9.866806,-0.001018,0.000356,-0.002919,-19.56,-12.78,-47.58,122.8962,0.0719,0.2279,3564
-0.035914,-0.004789,9.871595,0.000814,-0.000255,-0.001086,-19.56,-12.78,-47.58,122.8962,0.0719,0.2279,3573
-0.035914,-0.004789,9.871595,-0.001018,0.000967,-0.000475,-19.32,-13.32,-47.22,122.8962,0.0719,0.2279,3584
-0.040703,-0.002394,9.845258,-0.001018,0.000967,-0.000475,-19.32,-13.32,-47.22,122.8962,0.0719,0.2279,3594
-0.035914,-0.002394,9.885961,-0.001629,0.002189,-0.002308,-19.2,-13.56,-47.7,122.8962,0.0719,0.2279,3603
-0.038308,-0.011971,9.876384,0.000203,0.000356,0.000746,-18.96,-13.8,-47.22,126.2319,0.0725,0.2284,3613
-0.03352,-0.03352,9.859624,-0.001018,0.000967,-0.002919,-18.96,-13.8,-47.22,126.2319,0.0725,0.2284,3625
-0.028731,0.01676,9.842864,0.002036,-0.000866,0.000746,-19.5,-13.5,-47.04,126.2319,0.0725,0.2284,3634
-0.028731,0.01676,9.842864,0.000203,0.005854,0.000746,-19.5,-13.5,-47.04,126.2319,0.0725,0.2284,3644
-0.057463,0.009577,9.850046,-0.00224,-0.00392,-0.000475,-19.92,-13.74,-47.64,124.8457,0.0714,0.2328,3653
-0.007183,-0.028731,9.885961,-0.000407,-0.002698,-0.000475,-19.92,-13.74,-47.64,124.8457,0.0714,0.2328,3664
-0.007183,-0.028731,9.885961,0.003869,0.00341,-0.001697,-20.34,-14.22,-48.06,124.8457,0.0714,0.2328,3673
-0.05028,0.004789,9.850046,-0.000407,-0.000255,0.000746,-20.34,-14.22,-48.06,124.8457,0.0714,0.2328,3683
-0.021548,-0.043097,9.890749,0.000203,-0.000866,0.000136,-20.76,-13.68,-47.46,123.577,0.0758,0.2239,3693
-0.021548,-0.043097,9.890749,0.000203,-0.000866,0.000136,-20.76,-13.68,-47.46,123.577,0.0758,0.2239,3703
-0.040703,-0.007183,9.847652,-0.001018,-0.005753,0.000746,-20.76,-13.14,-46.44,123.577,0.0758,0.2239,3714
-0.014366,-0.021548,9.883567,-0.001018,-0.005753,0.000746,-20.76,-13.14,-46.44,123.577,0.0758,0.2239,3723
-0.064645,-0.011971,9.864412,0.000814,0.000967,0.001357,-19.74,-13.62,-46.74,124.8705,0.075,0.218,3734
-0.047885,0.009577,9.845258,0.001425,0.002189,0.004412,-19.8,-13.5,-46.86,124.8705,0.075,0.218,3743
-0.047885,0.009577,9.845258,-0.001629,-0.000866,0.000746,-19.8,-13.5,-46.86,124.8705,0.075,0.218,3753
-0.05028,-0.021548,9.845258,-0.000407,0.000967,-0.00353,-19.8,-13.5,-46.86,124.8705,0.075,0.218,3764
-0.047885,-0.01676,9.859624,0.000203,-0.000255,-0.002919,-19.5,-13.08,-47.64,124.266,0.0803,0.2152,3773
-0.043097,-0.028731,9.876384,-0.001018,-0.003309,-0.001697,-19.5,-13.08,-47.64,124.266,0.0803,0.2152,3784
-0.043097,-0.028731,9.876384,-0.001629,-0.002087,-0.002308,-20.1,-12.48,-47.76,124.266,0.0803,0.2152,3794
-0.059857,-0.004789,9.871595,0.000203,0.000356,0.00319,-20.1,-12.48,-47.76,124.266,0.0803,0.2152,3803
-0.040703,-0.002394,9.854836,0.000203,0.001578,-0.001697,-20.1,-13.14,-47.64,122.9279,0.0828,0.2155,3813
-0.038308,-0.002394,9.888355,0.000203,0.000967,-0.004751,-20.1,-13.14,-47.64,122.9279,0.0828,0.2155,3823
-0.038308,-0.002394,9.888355,0.000814,0.000356,-0.001697,-19.86,-13.26,-47.58,122.9279,0.0828,0.2155,3833
-0.01676,-0.007183,9.864412,-0.001018,-0.000866,0.000136,-19.86,-13.26,-47.58,122.9279,0.0828,0.2155,3843
-0.021548,-0.021548,9.847652,-0.001018,-0.000866,0.000136,-19.5,-13.02,-47.34,124.2622,0.0788,0.2185,3853
-0.052674,-0.011971,9.859624,0.001425,-0.000866,0.000136,-19.5,-13.02,-47.34,124.2622,0.0788,0.2185,3864
-0.052674,-0.011971,9.859624,0.000203,0.001578,0.003801,-19.08,-13.26,-47.58,124.2622,0.0788,0.2185,3873
-0.023943,-0.019154,9.857229,-0.001629,-0.000866,-0.001086,-19.08,-13.26,-47.58,124.2622,0.0788,0.2185,3883
-0.055068,-0.014366,9.883567,-0.000407,-0.000255,-0.000475,-18.96,-13.44,-47.52,124.2556,0.0777,0.2204,3894
-0.023943,-0.007183,9.876384,-0.000407,0.000356,0.000136,-18.96,-13.44,-47.52,124.2556,0.0777,0.2204,3903
-0.023943,-0.007183,9.876384,-0.001018,-0.000255,-0.000475,-20.04,-13.74,-48.06,124.2556,0.0777,0.2204,3913
-0.069434,-0.002394,9.869201,-0.000407,0.000967,0.000136,-20.04,-13.74,-48.06,124.2556,0.0777,0.2204,3924
-0.043097,-0.040703,9.866806,-0.000407,0.000967,0.00319,-20.46,-13.98,-48.42,124.8667,0.0784,0.224,3934
-0.035914,-0.014366,9.869201,0.000203,0.002189,-0.002919,-20.46,-13.98,-48.42,124.8667,0.0784,0.224,3944
-0.069434,-0.021548,9.876384,0.000203,0.000967,0.001357,-20.4,-13.62,-47.46,124.8667,0.0784,0.224,3953
-0.069434,-0.021548,9.876384,0.000203,0.000967,0.001357,-20.4,-13.62,-47.46,124.8667,0.0784,0.224,3963
-0.038308,-0.01676,9.881172,0.001425,0.005243,0.000746,-20.52,-12.9,-46.86,121.6611,0.0784,0.2255,3973
-0.026337,-0.004789,9.862018,0.001425,0.005243,0.000746,-20.52,-12.9,-46.86,121.6611,0.0784,0.2255,3983
-0.040703,-0.01676,9.890749,0.000814,-0.001476,-0.001086,-20.16,-12.72,-47.7,121.6611,0.0784,0.2255,3994
-0.040703,-0.01676,9.890749,0.000814,-0.001476,-0.001086,-20.16,-12.72,-47.7,121.6611,0.0784,0.2255,4003
-0.023943,-0.004789,9.878778,0.000814,0.000967,0.001357,-20.22,-13.2,-48.06,122.9051,0.0764,0.2267,4014
-0.045491,0,9.862018,-0.001018,-0.002698,0.000746,-20.22,-13.2,-48.06,122.9051,0.0764,0.2267,4023
-0.040703,-0.004789,9.873989,-0.001018,-0.001476,-0.001086,-19.92,-13.74,-47.4,122.9051,0.0764,0.2267,4033
-0.03352,-0.004789,9.873989,-0.000407,0.001578,0.001357,-19.92,-13.74,-47.4,122.9051,0.0764,0.2267,4043
-0.03352,-0.004789,9.873989,0.000203,-0.000255,-0.002308,-19.62,-13.98,-47.22,124.8585,0.0732,0.2265,4053
-0.040703,-0.01676,9.852441,-0.001629,0.002189,-0.001697,-19.62,-13.98,-47.22,124.8585,0.0732,0.2265,4064
-0.01676,-0.002394,9.890749,-0.001018,-0.000866,0.000136,-19.86,-13.74,-47.76,124.8585,0.0732,0.2265,4073
-0.040703,-0.014366,9.857229,-0.002851,0.001578,-0.00353,-19.86,-13.74,-47.76,124.8585,0.0732,0.2265,4083
-0.035914,-0.021548,9.893144,0.000814,-0.003309,-0.001697,-20.04,-13.62,-47.94,124.845,0.0703,0.2319,4094
-0.035914,-0.021548,9.893144,0.000814,0.0028,-0.002919,-20.04,-13.62,-47.94,124.845,0.0703,0.2319,4103
-0.040703,0.002394,9.890749,0.001425,0.005854,-0.000475,-19.92,-13.32,-48,124.845,0.0703,0.2319,4114
-0.055068,-0.009577,9.883567,0.001425,0.005854,-0.000475,-19.92,-13.32,-48,124.845,0.0703,0.2319,4123
-0.028731,-0.009577,9.857229,-0.000407,-0.001476,-0.001697,-19.86,-13.32,-47.46,122.9005,0.0708,0.2247,4134
-0.05028,-0.014366,9.878778,-0.000407,-0.000866,0.000136,-19.86,-13.32,-47.46,122.9005,0.0708,0.2247,4143
-0.05028,-0.009577,9.871595,-0.001018,-0.000866,0.001968,-19.56,-13.5,-47.1,122.9005,0.0708,0.2247,4154
-0.05028,-0.009577,9.871595,-0.000407,-0.000866,0.001968,-19.56,-13.26,-47.34,122.9005,0.0708,0.2247,4163
-0.03352,-0.019154,9.859624,0.002036,-0.000255,0.000746,-19.56,-13.26,-47.34,122.9005,0.0708,0.2247,4173
-0.043097,0,9.864412,-0.001018,-0.000255,-0.000475,-19.74,-13.26,-48.18,122.8979,0.0713,0.2254,4183
-0.047885,-0.002394,9.866806,0.000203,0.001578,-0.001086,-19.74,-13.26,-48.18,122.8979,0.0713,0.2254,4193
-0.055068,-0.014366,9.873989,-0.000407,0.001578,0.001357,-19.74,-13.5,-48.36,122.8979,0.0713,0.2254,4204
-0.055068,-0.014366,9.873989,-0.001018,0.002189,0.000136,-19.74,-13.5,-48.36,122.8979,0.0713,0.2254,4213
-0.031126,-0.021548,9.881172,-0.001018,0.000356,0.000136,-19.86,-13.74,-47.64,124.8576,0.0724,0.2235,4223
-0.035914,-0.009577,9.862018,0.000814,0.002189,0.001357,-19.86,-13.74,-47.64,124.8576,0.0724,0.2235,4235
-0.026337,-0.004789,9.864412,-0.001629,0.000967,-0.001086,-19.98,-13.32,-47.76,124.8576,0.0724,0.2235,4244
-0.05028,0.002394,9.859624,-0.001018,-0.000866,0.000136,-19.98,-13.32,-47.76,124.8576,0.0724,0.2235,4254
-0.05028,0.002394,9.859624,-0.001018,-0.000866,0.000136,-20.04,-13.5,-48.18,122.8914,0.0718,0.2322,4263
-0.031126,0,9.876384,-0.001629,-0.003309,-0.002919,-20.04,-13.5,-48.18,122.8914,0.0718,0.2322,4273
-0.031126,-0.021548,9.885961,0.000203,-0.001476,0.000746,-20.4,-13.56,-47.76,122.8914,0.0718,0.2322,4284
-0.031126,-0.021548,9.885961,0.000203,-0.001476,0.000746,-20.4,-13.56,-47.76,122.8914,0.0718,0.2322,4293
-0.031126,-0.03352,9.859624,-0.000407,-0.001476,-0.002308,-20.46,-13.8,-47.52,124.8456,0.0713,0.2327,4303
-0.03352,-0.031126,9.881172,0.001425,0.000356,0.001357,-20.46,-13.8,-47.52,124.8456,0.0713,0.2327,4314
-0.026337,-0.014366,9.869201,-0.001018,-0.000866,-0.001086,-19.68,-13.62,-48,124.8456,0.0713,0.2327,4323
-0.03352,-0.019154,9.864412,-0.001629,0.000967,0.001968,-19.68,-13.62,-48,124.8456,0.0713,0.2327,4334
-0.038308,-0.014366,9.840469,-0.000407,-0.000866,-0.000475,-19.38,-13.38,-48.54,124.2228,0.0682,0.2318,4344
-0.038308,-0.014366,9.840469,0.000203,-0.000255,0.002579,-19.38,-13.38,-48.54,124.2228,0.0682,0.2318,4353
-0.05028,0.004789,9.850046,-0.000407,-0.002698,0.000746,-19.8,-13.68,-48.12,124.2228,0.0682,0.2318,4364
-0.047885,-0.01676,9.871595,0.002036,0.000356,0.001968,-19.8,-13.68,-48.12,124.2228,0.0682,0.2318,4373
-0.043097,-0.002394,9.866806,0.000203,-0.000255,-0.000475,-19.8,-13.02,-47.88,122.8917,0.0716,0.2316,4383
-0.045491,-0.019154,9.859624,-0.001018,-0.001476,-0.002308,-19.8,-13.02,-47.88,122.8917,0.0716,0.2316,4394
-0.045491,-0.019154,9.859624,0.000814,-0.002087,-0.002308,-19.98,-12.96,-48.72,122.8917,0.0716,0.2316,4404
-0.035914,-0.014366,9.871595,0.000814,-0.002087,-0.002308,-19.98,-12.96,-48.72,122.8917,0.0716,0.2316,4413
-0.028731,-0.019154,9.862018,0.001425,0.00341,0.001968,-19.86,-13.26,-49.2,122.8779,0.0657,0.2326,4423
-0.031126,-0.007183,9.876384,0.000203,-0.000255,0.000136,-20.34,-13.2,-48.72,122.8779,0.0657,0.2326,4433
-0.031126,-0.007183,9.876384,0.000814,-0.000866,-0.001086,-20.34,-13.2,-48.72,122.8779,0.0657,0.2326,4444
-0.023943,-0.023943,9.862018,0.001425,0.000967,0.00319,-20.1,-12.9,-48.78,122.8779,0.0657,0.2326,4453
-0.028731,-0.01676,9.859624,0.002036,0.001578,-0.001086,-20.1,-12.9,-48.78,122.8779,0.0657,0.2326,4464
-0.047885,-0.009577,9.871595,-0.000407,-0.000866,-0.002308,-19.68,-13.68,-48.24,124.837,0.0686,0.2366,4473
-0.031126,-0.023943,9.866806,0.000203,-0.001476,0.000746,-19.68,-13.68,-48.24,124.837,0.0686,0.2366,4483
-0.031126,-0.023943,9.866806,0.000203,-0.001476,0.000746,-19.86,-13.62,-48.36,124.837,0.0686,0.2366,4493
-0.03352,-0.011971,9.878778,-0.000407,-0.000866,-0.002308,-19.86,-13.62,-48.36,124.837,0.0686,0.2366,4503
-0.026337,-0.01676,9.871595,-0.001018,-0.002087,0.000746,-20.34,-13.8,-48.24,124.8521,0.073,0.2294,4514
-0.035914,-0.009577,9.857229,-0.00224,0.000967,0.001357,-20.34,-13.8,-48.24,124.8521,0.073,0.2294,4524
-0.035914,-0.009577,9.857229,-0.000407,-0.000255,-0.001086,-20.46,-14.1,-47.7,124.8521,0.073,0.2294,4533
-0.043097,0.004789,9.866806,-0.001629,-0.000255,-0.002308,-20.46,-14.1,-47.7,124.8521,0.073,0.2294,4543
-0.045491,-0.031126,9.876384,-0.000407,-0.000255,-0.001086,-20.1,-13.2,-48.24,122.9147,0.0795,0.2225,4553
-0.035914,-0.009577,9.869201,-0.001018,0.000967,-0.001697,-20.1,-13.2,-48.24,122.9147,0.0795,0.2225,4564
-0.035914,-0.014366,9.862018,0.002647,0.0028,0.004412,-19.44,-12.84,-48.54,122.9147,0.0795,0.2225,4574
-0.035914,-0.014366,9.862018,-0.001018,-0.002698,-0.000475,-19.44,-12.84,-48.54,122.9147,0.0795,0.2225,4584
-0.035914,-0.002394,9.878778,0.001425,-0.001476,0.000746,-19.62,-13.5,-48,122.9204,0.0832,0.2231,4594
-0.040703,-0.014366,9.871595,-0.00224,-0.000866,-0.001086,-19.62,-13.5,-48,122.9204,0.0832,0.2231,4604
-0.045491,-0.007183,9.878778,-0.001018,-0.000255,-0.001697,-20.22,-13.86,-47.88,122.9204,0.0832,0.2231,4613
-0.040703,-0.004789,9.873989,-0.000407,0.000967,0.001968,-20.22,-13.86,-47.88,122.9204,0.0832,0.2231,4623
-0.040703,-0.004789,9.873989,0.001425,0.000356,-0.001697,-20.04,-12.9,-47.94,122.9264,0.0848,0.22,4633
-0.028731,-0.009577,9.850046,-0.000407,-0.001476,0.001968,-20.04,-12.9,-47.94,122.9264,0.0848,0.22,4643
-0.045491,-0.019154,9.878778,0.002647,0.00341,0.000746,-20.22,-12.72,-47.76,122.9264,0.0848,0.22,4653
-0.035914,-0.021548,9.878778,0.000814,0.001578,0.000136,-20.1,-13.2,-47.76,122.9264,0.0848,0.22,4664
-0.035914,-0.021548,9.878778,0.001425,-0.000866,0.001357,-20.1,-13.2,-47.76,122.9264,0.0848,0.22,4675
-0.043097,-0.01676,9.873989,0.001425,-0.000866,0.001357,-20.22,-13.62,-48.3,124.8693,0.0778,0.2208,4683
-0.05028,0.004789,9.862018,0.001425,0.001578,0.001968,-20.22,-13.62,-48.3,124.8693,0.0778,0.2208,4693
-0.038308,-0.009577,9.871595,-0.001629,-0.002698,0.000746,-20.22,-13.26,-48.9,124.8693,0.0778,0.2208,4703
-0.038308,-0.009577,9.871595,0.001425,-0.002698,0.001357,-20.22,-13.26,-48.9,124.8693,0.0778,0.2208,4713
-0.043097,-0.011971,9.871595,-0.00224,-0.002698,0.000746,-19.44,-12.66,-48.54,124.2365,0.0733,0.2278,4724
-0.023943,-0.019154,9.871595,0.000814,-0.000866,0.000136,-19.14,-13.44,-48.36,124.2365,0.0733,0.2278,4734
-0.038308,-0.007183,9.866806,0.000203,-0.001476,0.000746,-19.14,-13.44,-48.36,124.2365,0.0733,0.2278,4744
-0.038308,-0.007183,9.866806,0.000203,-0.002087,-0.001697,-19.14,-13.5,-48.66,124.2365,0.0733,0.2278,4753
-0.047885,-0.007183,9.876384,-0.001018,-0.002698,-0.000475,-19.14,-13.5,-48.66,124.2365,0.0733,0.2278,4763
-0.035914,-0.028731,9.862018,-0.001018,-0.002698,-0.000475,-19.14,-13.5,-48.66,124.2365,0.0733,0.2278,4773
-0.035914,-0.007183,9.866806,0.000814,0.001578,0.002579,-19.62,-13.44,-48.54,122.8976,0.0719,0.2243,4783
-0.055068,0.004789,9.852441,-0.000407,-0.000866,0.000136,-19.92,-13.2,-47.58,122.8976,0.0719,0.2243,4794
-0.055068,0.004789,9.852441,-0.000407,-0.000866,0.000136,-19.92,-13.2,-47.58,122.8976,0.0719,0.2243,4803
-0.023943,-0.011971,9.873989,0.000203,0.002189,0.001968,-19.68,-13.44,-47.46,122.9021,0.072,0.225,4813
-0.031126,-0.007183,9.845258,-0.000407,0.000967,0.001968,-19.68,-13.44,-47.46,122.9021,0.072,0.225,4824
-0.03352,-0.021548,9.878778,-0.001018,0.000967,0.000746,-19.56,-14.1,-47.04,122.9021,0.072,0.225,4833
-0.03352,-0.021548,9.878778,0.000814,-0.000255,0.000746,-19.56,-14.1,-47.04,122.9021,0.072,0.225,4843
-0.023943,-0.009577,9.854836,0.002647,-0.000255,0.000746,-20.16,-13.86,-46.68,124.8542,0.0733,0.2306,4853
-0.057463,-0.01676,9.869201,-0.000407,-0.000255,-0.000475,-19.92,-13.68,-46.68,124.8542,0.0733,0.2306,4863
-0.059857,-0.002394,9.878778,0.000203,-0.000866,-0.002308,-19.92,-13.68,-46.68,124.8542,0.0733,0.2306,4873
-0.03352,-0.014366,9.859624,-0.000407,0.002189,0.000746,-20.16,-13.26,-47.34,124.8542,0.0733,0.2306,4884
-0.03352,-0.014366,9.859624,-0.001629,-0.002087,-0.000475,-20.16,-13.26,-47.34,124.8542,0.0733,0.2306,4894
-0.03352,-0.023943,9.864412,-0.001629,-0.002087,-0.000475,-20.04,-13.02,-47.82,122.9006,0.0739,0.227,4904
-0.019154,-0.021548,9.871595,0.000203,-0.000866,0.001968,-20.04,-13.02,-47.82,122.9006,0.0739,0.227,4914
-0.045491,0.014366,9.847652,0.000814,0.002189,0.00319,-20.28,-13.98,-48.06,122.9006,0.0739,0.227,4923
-0.035914,-0.01676,9.869201,0.000203,-0.003309,0.001968,-20.28,-13.98,-48.06,122.9006,0.0739,0.227,4934
-0.035914,-0.01676,9.869201,0.000814,-0.000255,-0.001086,-20.52,-13.74,-47.94,123.5563,0.0694,0.2319,4943
-0.03352,-0.019154,9.876384,0.000814,0.001578,0.001357,-20.52,-13.74,-47.94,123.5563,0.0694,0.2319,4954
-0.040703,-0.01676,9.876384,0.001425,-0.000255,0.000746,-19.74,-12.54,-47.22,123.5563,0.0694,0.2319,4965
-0.035914,-0.009577,9.883567,0.002036,-0.000255,-0.001086,-19.74,-12.54,-47.22,123.5563,0.0694,0.2319,4973
-0.040703,-0.002394,9.859624,-0.001629,0.001578,-0.002919,-19.44,-12.9,-47.16,124.2146,0.0577,0.2293,4983
-0.040703,-0.002394,9.859624,0.000203,0.004632,-0.002308,-19.44,-12.9,-47.16,124.2146,0.0577,0.2293,4994
-0.028731,-0.019154,9.866806,-0.001018,-0.002698,-0.002308,-20.1,-13.02,-47.7,124.2146,0.0577,0.2293,5003
-0.059857,0,9.881172,-0.00224,0.001578,-0.001086,-20.1,-13.02,-47.7,124.2146,0.0577,0.2293,5014
-0.040703,-0.007183,9.869201,-0.000407,-0.000255,0.000136,-19.98,-13.5,-48.78,122.8658,0.0556,0.2279,5023
-0.057463,-0.014366,9.873989,-0.000407,0.000356,0.000746,-19.92,-13.44,-48.66,122.8658,0.0556,0.2279,5034
-0.057463,-0.014366,9.873989,0.000203,-0.000255,0.000136,-19.92,-13.44,-48.66,122.8658,0.0556,0.2279,5043
-0.045491,-0.002394,9.876384,-0.001629,-0.000866,-0.001086,-19.92,-13.62,-48.18,122.8658,0.0556,0.2279,5054
-0.045491,-0.002394,9.876384,-0.001629,-0.000866,-0.001086,-19.92,-13.62,-48.18,122.8658,0.0556,0.2279,5063
-0.057463,-0.007183,9.854836,0.000203,0.002189,0.000746,-19.68,-13.32,-48.06,122.8777,0.0601,0.2268,5074
-0.043097,-0.009577,9.871595,-0.000407,-0.000866,0.001968,-19.44,-13.56,-49.02,122.8777,0.0601,0.2268,5083
-0.028731,-0.014366,9.888355,-0.000407,-0.000866,-0.001697,-19.44,-13.56,-49.02,122.8777,0.0601,0.2268,5094
-0.028731,-0.014366,9.888355,-0.000407,0.000356,-0.00414,-19.92,-13.74,-49.02,124.8194,0.0605,0.2377,5103
-0.045491,-0.014366,9.883567,-0.000407,-0.002087,-0.001697,-19.92,-13.74,-49.02,124.8194,0.0605,0.2377,5114
-0.019154,-0.007183,9.890749,0.002036,-0.000255,0.001357,-19.92,-13.92,-48.72,124.8194,0.0605,0.2377,5124
-0.031126,0.007183,9.881172,0.002036,-0.000866,0.000136,-19.92,-13.92,-48.72,124.8194,0.0605,0.2377,5133
-0.035914,0,9.862018,-0.000407,-0.003309,0.001968,-19.62,-14.04,-49.02,124.8196,0.0616,0.239,5144
-0.035914,0,9.862018,-0.000407,0.001578,0.000746,-19.62,-14.04,-49.02,124.8196,0.0616,0.239,5153
-0.047885,-0.009577,9.876384,-0.001629,-0.000866,-0.002308,-19.86,-13.68,-48.42,124.8196,0.0616,0.239,5164
-0.021548,-0.038308,9.885961,0.003258,0.001578,0.001357,-19.86,-13.68,-48.42,124.8196,0.0616,0.239,5173
-0.043097,0.007183,9.857229,0.000203,-0.000255,-0.001697,-20.16,-12.66,-47.88,122.8683,0.0611,0.2371,5184
-0.038308,-0.019154,9.859624,-0.001018,-0.000866,0.000136,-20.16,-12.66,-47.88,122.8683,0.0611,0.2371,5194
-0.031126,-0.01676,9.873989,-0.001018,-0.003309,0.001357,-20.16,-13.2,-48.24,122.8683,0.0611,0.2371,5204
-0.031126,-0.01676,9.873989,-0.001018,-0.003309,0.001357,-20.16,-13.2,-48.24,122.8683,0.0611,0.2371,5213
-0.05028,-0.009577,9.862018,-0.000407,-0.000866,0.000136,-19.98,-13.8,-47.82,122.8683,0.0611,0.2371,5223
-0.043097,0,9.888355,0.000814,-0.000866,0.000136,-19.68,-14.04,-47.28,124.836,0.0651,0.2354,5233
-0.043097,0,9.888355,0.002036,0.000356,0.000746,-19.68,-14.04,-47.28,124.836,0.0651,0.2354,5243
-0.045491,-0.002394,9.890749,0.001425,-0.000255,-0.002308,-19.86,-13.8,-48.12,124.836,0.0651,0.2354,5254
-0.05028,-0.026337,9.881172,0.000814,0.001578,-0.004751,-19.74,-14.22,-48.12,124.836,0.0651,0.2354,5264
-0.047885,-0.035914,9.873989,0.001425,-0.001476,0.002579,-19.74,-14.22,-48.12,124.836,0.0651,0.2354,5274
-0.026337,-0.031126,9.871595,-0.001629,-0.002698,0.000136,-19.92,-13.5,-47.88,122.8741,0.0642,0.2364,5284
-0.026337,-0.031126,9.871595,0.000203,0.000967,0.002579,-19.92,-13.5,-47.88,122.8741,0.0642,0.2364,5294
-0.043097,0.002394,9.888355,0.000814,-0.004531,-0.00353,-20.34,-13.32,-47.52,122.8741,0.0642,0.2364,5303
-0.038308,-0.021548,9.883567,0.000814,-0.004531,-0.00353,-20.34,-13.32,-47.52,122.8741,0.0642,0.2364,5313
-0.038308,-0.021548,9.873989,0.000814,-0.000866,0.001968,-20.34,-13.44,-47.22,122.8741,0.0642,0.2364,5324
-0.01676,-0.01676,9.864412,-0.000407,-0.003309,-0.001697,-19.86,-13.44,-48.12,122.8904,0.073,0.235,5334
-0.01676,-0.01676,9.864412,-0.001018,0.000967,-0.001086,-19.86,-13.44,-48.12,122.8904,0.073,0.235,5343
-0.03352,-0.007183,9.876384,-0.00224,-0.002087,0.000136,-19.92,-12.9,-48.18,122.8904,0.073,0.235,5354
-0.021548,-0.014366,9.864412,-0.00224,-0.002087,-0.001697,-19.92,-12.9,-48.18,122.8904,0.073,0.235,5363
-0.045491,-0.01676,9.866806,-0.002851,-0.001476,-0.002308,-20.64,-12.96,-48,121.6603,0.0799,0.2267,5373
-0.062251,-0.023943,9.888355,0.000203,-0.002087,-0.001086,-20.64,-12.96,-48,121.6603,0.0799,0.2267,5383
-0.062251,-0.023943,9.888355,0.000203,-0.000255,0.001968,-20.46,-13.74,-48,121.6603,0.0799,0.2267,5393
-0.021548,-0.026337,9.869201,-0.001018,0.00341,0.003801,-20.46,-13.74,-48,121.6603,0.0799,0.2267,5403
-0.043097,-0.011971,9.859624,-0.001018,0.00341,0.003801,-20.46,-13.74,-48,121.6603,0.0799,0.2267,5414
-0.03352,-0.023943,9.869201,-0.003462,-0.002087,0.000746,-20.22,-13.5,-48.18,122.9133,0.0805,0.2254,5423
-0.038308,-0.019154,9.871595,-0.001018,-0.000255,-0.001086,-20.1,-13.38,-48.54,122.9133,0.0805,0.2254,5434
-0.038308,-0.019154,9.871595,0.000814,0.000967,0.001968,-20.1,-13.38,-48.54,122.9133,0.0805,0.2254,5443
-0.031126,-0.021548,9.850046,0.001425,0.000356,0.003801,-19.8,-13.86,-47.64,124.8714,0.0841,0.228,5454
-0.047885,-0.004789,9.883567,-0.000407,0.000356,-0.001697,-19.98,-13.86,-47.58,124.8714,0.0841,0.228,5463
-0.038308,-0.011971,9.854836,0.001425,0.004632,-0.002308,-19.98,-13.86,-47.58,124.8714,0.0841,0.228,5473
-0.03352,0,9.876384,0.000814,0.000356,-0.00353,-19.26,-13.68,-47.82,124.8714,0.0841,0.228,5484
-0.03352,0,9.876384,-0.002851,-0.000255,-0.002919,-19.26,-13.68,-47.82,124.8714,0.0841,0.228,5493
-0.03352,-0.031126,9.873989,0.000814,-0.001476,0.000746,-18.54,-12.72,-48,124.2448,0.0818,0.2357,5503
-0.045491,-0.009577,9.873989,-0.000407,0.000356,0.000136,-18.54,-12.72,-48,124.2448,0.0818,0.2357,5513
-0.038308,-0.004789,9.850046,-0.000407,0.001578,-0.001086,-19.02,-13.08,-47.82,124.2448,0.0818,0.2357,5524
-0.038308,-0.004789,9.850046,0.000814,-0.000255,-0.000475,-19.02,-13.08,-47.82,124.2448,0.0818,0.2357,5533
-0.035914,-0.004789,9.862018,0.000203,-0.000866,-0.000475,-19.68,-13.44,-47.58,122.9051,0.0813,0.2343,5544
-0.040703,-0.019154,9.883567,-0.000407,-0.002087,0.000746,-19.68,-13.44,-47.58,122.9051,0.0813,0.2343,5554
-0.040703,-0.019154,9.883567,-0.000407,-0.002087,0.000746,-19.14,-14.04,-47.64,122.9051,0.0813,0.2343,5563
-0.052674,0,9.852441,-0.001018,-0.001476,-0.001086,-19.14,-14.04,-47.64,122.9051,0.0813,0.2343,5574
-0.023943,-0.021548,9.864412,-0.001018,-0.001476,-0.001086,-19.38,-13.68,-47.76,126.239,0.083,0.2341,5583
-0.045491,-0.009577,9.878778,0.000814,-0.000255,-0.001697,-19.38,-13.68,-47.76,126.239,0.083,0.2341,5594
-0.01676,-0.01676,9.893144,-0.00224,-0.001476,0.001357,-19.98,-13.02,-47.64,126.239,0.083,0.2341,5604
-0.045491,-0.014366,9.897932,0.000203,0.000967,0.003801,-19.74,-13.26,-47.64,126.239,0.083,0.2341,5614
-0.045491,-0.014366,9.897932,-0.00224,0.005854,0.001968,-19.74,-13.26,-47.64,126.239,0.083,0.2341,5624
-0.038308,0.002394,9.876384,-0.00224,-0.002698,-0.000475,-20.1,-13.14,-48.18,122.9092,0.0814,0.2306,5633
-0.045491,-0.019154,9.890749,-0.001629,0.002189,0.000746,-20.1,-13.14,-48.18,122.9092,0.0814,0.2306,5644
-0.055068,-0.01676,9.869201,-0.000407,0.002189,-0.001697,-20.04,-13.32,-48,122.9092,0.0814,0.2306,5654
-0.026337,-0.014366,9.871595,0.001425,-0.000255,0.001968,-20.04,-13.32,-48,122.9092,0.0814,0.2306,5664
-0.026337,-0.014366,9.871595,0.001425,0.000967,0.001357,-20.28,-13.8,-48.54,124.8565,0.0769,0.2285,5673
-0.031126,-0.002394,9.885961,0.002036,0.00341,0.001968,-20.28,-13.8,-48.54,124.8565,0.0769,0.2285,5683
-0.05028,-0.004789,9.859624,0.001425,0.002189,0.001968,-19.92,-13.56,-47.58,124.8565,0.0769,0.2285,5693
-0.05028,-0.004789,9.859624,0.000203,-0.001476,0.000746,-19.92,-13.56,-47.58,124.8565,0.0769,0.2285,5703
-0.026337,-0.01676,9.878778,0.000203,0.001578,-0.002308,-19.44,-12.9,-47.64,124.2473,0.0776,0.2273,5714
-0.038308,-0.019154,9.869201,-0.001629,0.000356,0.000136,-19.44,-12.9,-47.64,124.2473,0.0776,0.2273,5724
-0.026337,-0.019154,9.857229,-0.001629,0.000356,0.000136,-19.5,-13.02,-48.6,124.2473,0.0776,0.2273,5733
-0.026337,-0.019154,9.857229,0.001425,-0.000866,0.001357,-19.5,-13.02,-48.6,124.2473,0.0776,0.2273,5744
-0.047885,-0.002394,9.871595,0.000203,-0.001476,0.000746,-19.2,-13.62,-48.3,126.2383,0.0771,0.2267,5753
-0.045491,0.002394,9.876384,0.000814,0.000356,0.000136,-19.2,-13.62,-48.3,126.2383,0.0771,0.2267,5764
-0.047885,-0.004789,9.869201,0.000814,0.000356,0.000136,-18.96,-13.44,-48.12,126.2383,0.0771,0.2267,5773
-0.035914,-0.009577,9.876384,-0.002851,-0.002087,-0.001697,-18.96,-13.44,-48.12,126.2383,0.0771,0.2267,5783
-0.040703,-0.014366,9.890749,-0.001018,-0.00392,-0.000475,-19.56,-13.02,-48.06,122.9145,0.0787,0.2216,5794
-0.040703,-0.014366,9.890749,-0.000407,0.000356,0.000746,-19.56,-13.02,-48.06,122.9145,0.0787,0.2216,5804
-0.031126,-0.007183,9.866806,-0.000407,0.000356,0.000746,-19.98,-13.38,-48.24,122.9145,0.0787,0.2216,5813
-0.03352,-0.031126,9.885961,0.000814,0.000356,0.001968,-19.98,-13.38,-48.24,122.9145,0.0787,0.2216,5824
-0.043097,-0.014366,9.885961,-0.000407,0.000356,-0.000475,-19.74,-13.32,-48.54,122.899,0.0697,0.2197,5834
-0.038308,-0.014366,9.871595,-0.001018,0.000356,-0.002919,-19.74,-13.32,-48.54,122.899,0.0697,0.2197,5844
-0.038308,-0.014366,9.871595,-0.001018,0.000967,0.000136,-19.74,-12.9,-48.24,122.899,0.0697,0.2197,5853
-0.019154,-0.014366,9.864412,-0.001629,-0.001476,-0.001086,-19.74,-12.9,-48.24,122.899,0.0697,0.2197,5863
-0.043097,-0.014366,9.890749,0.000814,-0.000866,-0.002919,-19.92,-13.44,-48.24,122.8973,0.0693,0.223,5874
-0.038308,-0.023943,9.888355,-0.001018,-0.000866,-0.001697,-19.92,-13.44,-48.24,122.8973,0.0693,0.223,5883
-0.038308,-0.023943,9.888355,-0.00224,-0.000255,0.000746,-20.64,-13.56,-48.72,122.8973,0.0693,0.223,5894
-0.045491,-0.019154,9.857229,0.000814,-0.000866,-0.001086,-20.64,-13.56,-48.72,122.8973,0.0693,0.223,5904
-0.040703,0,9.871595,0.000814,-0.000866,-0.001086,-20.64,-14.04,-48.42,123.5659,0.0693,0.2225,5913
-0.019154,-0.009577,9.864412,-0.000407,-0.002087,0.001357,-20.64,-14.04,-48.42,123.5659,0.0693,0.2225,5923
-0.019154,-0.009577,9.864412,-0.000407,-0.002087,0.001357,-20.46,-13.98,-49.08,123.5659,0.0693,0.2225,5933
-0.038308,-0.01676,9.864412,-0.000407,0.000967,0.001357,-20.46,-13.98,-49.08,123.5659,0.0693,0.2225,5943
-0.040703,-0.023943,9.847652,-0.001018,0.0028,0.004412,-20.28,-13.56,-49.08,124.8463,0.0677,0.2243,5953
-0.035914,-0.011971,9.881172,0.000814,0.000356,0.001357,-20.28,-13.56,-49.08,124.8463,0.0677,0.2243,5964
-0.035914,-0.011971,9.881172,-0.001018,-0.002087,-0.001086,-19.38,-13.62,-48.18,124.8463,0.0677,0.2243,5973
-0.047885,-0.019154,9.888355,0.002647,0.000967,0.000746,-19.38,-13.62,-48.18,124.8463,0.0677,0.2243,5983
-0.035914,0,9.859624,-0.000407,0.000356,-0.001086,-19.92,-13.98,-48.48,124.8459,0.0643,0.2224,5993
-0.035914,-0.007183,9.873989,-0.001018,-0.000255,-0.001697,-19.92,-13.98,-48.48,124.8459,0.0643,0.2224,6003
-0.028731,-0.004789,9.864412,-0.000407,0.000356,0.000136,-20.04,-13.32,-48.72,124.8459,0.0643,0.2224,6013
-0.028731,-0.004789,9.864412,0.002036,0.000967,-0.001086,-20.04,-13.32,-48.72,124.8459,0.0643,0.2224,6024
-0.047885,-0.011971,9.864412,0.002036,0.000967,-0.001086,-19.2,-12.96,-48.06,124.2266,0.064,0.2252,6033
-0.035914,-0.007183,9.876384,0.000814,-0.002698,-0.002308,-19.2,-12.96,-48.06,124.2266,0.064,0.2252,6043
-0.040703,-0.014366,9.878778,-0.001018,-0.000255,0.001357,-19.56,-13.44,-47.94,124.2266,0.064,0.2252,6053
-0.035914,0,9.864412,-0.00224,0.002189,0.000136,-19.56,-13.44,-47.94,124.2266,0.064,0.2252,6063
-0.035914,0,9.864412,0.002647,0.005243,0.000746,-19.68,-13.38,-48.06,122.8871,0.0637,0.2237,6073
-0.040703,-0.004789,9.866806,-0.000407,0.002189,-0.000475,-19.68,-13.38,-48.06,122.8871,0.0637,0.2237,6083
-0.028731,0.002394,9.859624,0.002647,-0.000255,-0.001086,-19.38,-13.68,-48.12,122.8871,0.0637,0.2237,6093
-0.043097,-0.026337,9.881172,-0.001018,-0.001476,-0.000475,-19.38,-13.68,-48.12,122.8871,0.0637,0.2237,6104
-0.043097,-0.026337,9.881172,0.000203,-0.000255,0.001357,-19.5,-13.74,-48.3,126.2104,0.0594,0.2259,6114
-0.035914,-0.021548,9.864412,0.000203,-0.000866,-0.00353,-19.5,-13.74,-48.3,126.2104,0.0594,0.2259,6125
-0.045491,-0.002394,9.900327,-0.000407,-0.000866,-0.002308,-20.46,-13.68,-48.12,126.2104,0.0594,0.2259,6134
-0.05028,-0.002394,9.869201,-0.001018,0.002189,0.001357,-20.46,-13.68,-48.12,126.2104,0.0594,0.2259,6144
-0.05028,-0.002394,9.869201,0.000814,0.002189,0.002579,-20.1,-13.86,-48.36,124.8467,0.0601,0.2157,6153
-0.043097,-0.002394,9.864412,0.000814,0.001578,0.000746,-20.1,-13.86,-48.36,124.8467,0.0601,0.2157,6164
-0.035914,-0.021548,9.885961,0.001425,0.000967,-0.001697,-19.14,-14.4,-48.18,124.8467,0.0601,0.2157,6173
-0.040703,-0.009577,9.885961,0.001425,0.000967,-0.001697,-19.14,-14.4,-48.18,124.8467,0.0601,0.2157,6184
-0.040703,-0.009577,9.885961,-0.000407,-0.000866,0.000746,-19.74,-14.52,-48.12,126.7257,0.0614,0.2079,6193
-0.03352,-0.011971,9.866806,-0.001018,-0.000255,0.001357,-19.74,-14.52,-48.12,126.7257,0.0614,0.2079,6204
-0.031126,-0.021548,9.871595,0.000814,0.000356,0.000746,-19.98,-14.16,-48.48,126.7257,0.0614,0.2079,6213
-0.026337,-0.014366,9.878778,-0.001018,-0.003309,-0.001086,-19.98,-14.16,-48.48,126.7257,0.0614,0.2079,6224
-0.055068,0,9.866806,-0.000407,0.000356,-0.000475,-19.44,-13.8,-48.18,126.2333,0.0628,0.2114,6233
-0.055068,0,9.866806,-0.001018,-0.002698,0.000136,-19.44,-13.8,-48.18,126.2333,0.0628,0.2114,6243
-0.028731,0.011971,9.873989,-0.000407,0.000356,0.000746,-19.2,-13.62,-48.18,126.2333,0.0628,0.2114,6253
-0.040703,0.007183,9.888355,-0.000407,0.000356,0.000746,-19.2,-13.62,-48.18,126.2333,0.0628,0.2114,6263
-0.028731,-0.019154,9.885961,0.000814,0.000356,0.000136,-19.62,-13.62,-48.36,124.8569,0.0623,0.2097,6273
-0.045491,-0.007183,9.847652,0.000203,0.000356,0.001968,-19.62,-13.62,-48.36,124.8569,0.0623,0.2097,6284
-0.038308,-0.031126,9.871595,-0.000407,-0.003309,-0.001086,-19.5,-13.38,-48.66,124.8569,0.0623,0.2097,6293
-0.038308,-0.031126,9.871595,-0.00224,-0.000255,-0.002308,-19.5,-13.38,-48.66,124.8569,0.0623,0.2097,6304
-0.043097,0,9.857229,0.000814,-0.001476,-0.001086,-19.92,-13.44,-49.14,122.8976,0.0629,0.2104,6314
-0.040703,-0.014366,9.873989,-0.001018,-0.000866,0.000136,-19.92,-13.44,-49.14,122.8976,0.0629,0.2104,6324
-0.031126,-0.026337,9.897932,0.000203,-0.000255,0.000746,-20.04,-13.44,-48.54,122.8976,0.0629,0.2104,6334
-0.031126,-0.026337,9.897932,-0.003462,0.001578,-0.002919,-20.04,-13.44,-48.54,122.8976,0.0629,0.2104,6343
-0.035914,-0.009577,9.876384,-0.003462,0.001578,-0.002919,-19.86,-13.44,-48.12,122.9004,0.0643,0.2124,6353
-0.028731,-0.009577,9.878778,-0.000407,-0.000866,-0.001697,-19.86,-13.44,-48.12,122.9004,0.0643,0.2124,6363
-0.040703,-0.007183,9.859624,0.000203,0.00341,0.000136,-20.34,-13.5,-47.94,122.9004,0.0643,0.2124,6374
-0.040703,-0.007183,9.859624,0.001425,0.006465,-0.002308,-20.34,-13.5,-47.94,122.9004,0.0643,0.2124,6383
-0.038308,-0.026337,9.866806,-0.000407,0.000356,-0.000475,-19.8,-13.38,-47.94,122.9004,0.0643,0.2124,6394
-0.040703,-0.011971,9.876384,-0.000407,-0.000255,0.001357,-19.8,-13.62,-47.16,124.8741,0.0744,0.2139,6403
-0.038308,-0.007183,9.859624,-0.00224,-0.000866,-0.000475,-19.8,-13.62,-47.16,124.8741,0.0744,0.2139,6413
-0.043097,-0.007183,9.876384,0.000814,0.000356,-0.001697,-20.34,-14.28,-47.52,124.8741,0.0744,0.2139,6424
-0.043097,-0.019154,9.871595,-0.001629,-0.002087,0.000136,-20.34,-14.28,-47.52,124.8741,0.0744,0.2139,6434
-0.043097,-0.019154,9.871595,-0.000407,0.000356,0.00319,-20.76,-13.8,-48.24,123.5852,0.0768,0.2154,6443
-0.031126,0.004789,9.862018,-0.000407,0.000356,0.00319,-20.76,-13.8,-48.24,123.5852,0.0768,0.2154,6453
-0.052674,-0.01676,9.840469,-0.000407,0.000967,0.000746,-19.86,-13.32,-48.48,123.5852,0.0768,0.2154,6464
-0.052674,-0.01676,9.840469,-0.000407,0.000967,0.000746,-19.86,-13.32,-48.48,123.5852,0.0768,0.2154,6474
-0.031126,-0.002394,9.885961,-0.000407,0.000967,-0.000475,-19.62,-13.68,-47.88,124.8779,0.0782,0.2137,6483
-0.03352,-0.019154,9.873989,0.000203,0.000356,0.001357,-19.62,-13.68,-47.88,124.8779,0.0782,0.2137,6494
-0.038308,-0.014366,9.878778,0.000203,0.000356,0.001357,-19.44,-12.96,-47.22,124.8779,0.0782,0.2137,6503
-0.052674,-0.014366,9.883567,0.000203,0.004021,-0.002308,-19.44,-12.96,-47.22,124.8779,0.0782,0.2137,6514
-0.035914,0.004789,9.871595,0.000814,0.004632,0.000136,-19.92,-12.9,-47.7,122.9199,0.0792,0.2173,6523
-0.035914,0.004789,9.871595,0.000814,0.004632,-0.000475,-20.76,-13.5,-47.4,122.9199,0.0792,0.2173,6533
-0.045491,-0.031126,9.854836,0.000203,0.001578,-0.001086,-20.76,-13.5,-47.4,122.9199,0.0792,0.2173,6544
-0.055068,-0.007183,9.871595,-0.001018,0.001578,-0.000475,-20.76,-14.16,-47.88,122.9199,0.0792,0.2173,6553
-0.05028,-0.021548,9.850046,-0.000407,0.000356,0.000746,-20.76,-14.16,-47.88,122.9199,0.0792,0.2173,6564
-0.026337,-0.014366,9.878778,0.000814,0.000967,0.001968,-19.92,-13.8,-47.64,124.8724,0.078,0.2184,6573
-0.031126,-0.002394,9.845258,0.001425,-0.001476,0.000136,-20.1,-13.62,-47.58,124.8724,0.078,0.2184,6584
-0.031126,-0.002394,9.845258,0.001425,-0.001476,0.000136,-20.1,-13.62,-47.58,124.8724,0.078,0.2184,6593
-0.028731,-0.009577,9.871595,0.001425,0.000967,0.000746,-20.64,-13.62,-48.06,124.8724,0.078,0.2184,6604
-0.031126,-0.011971,9.873989,0.001425,0.000967,0.000746,-20.64,-13.62,-48.06,124.8724,0.078,0.2184,6613
-0.03352,0.002394,9.869201,0.001425,0.002189,-0.001086,-19.74,-13.44,-47.7,122.9124,0.0769,0.2207,6624
-0.03352,0.002394,9.869201,-0.001018,-0.000255,0.001968,-19.74,-13.44,-47.7,122.9124,0.0769,0.2207,6633
-0.052674,-0.026337,9.885961,0.002036,0.000967,0.001968,-19.68,-12.96,-47.34,122.9124,0.0769,0.2207,6644
-0.028731,-0.023943,9.864412,-0.000988,-0.002754,-0.00295,-20.46,-13.2,-47.28,122.9124,0.0769,0.2207,6654
-0.043097,-0.011971,9.864412,0.001456,0.003965,-0.001118,-20.46,-13.2,-47.28,122.9124,0.0769,0.2207,6664
-0.055068,-0.01676,9.854836,0.001456,0.0003,0.002547,-20.28,-13.38,-47.4,122.9057,0.0702,0.2189,6673
-0.055068,-0.01676,9.854836,-0.000377,-0.000922,0.000104,-20.28,-13.38,-47.4,122.9057,0.0702,0.2189,6683
-0.035914,-0.007183,9.873989,-0.000988,0.0003,-0.000507,-19.08,-13.26,-47.88,122.9057,0.0702,0.2189,6693
-0.038308,-0.01676,9.876384,0.000234,-0.002754,-0.001729,-19.5,-13.44,-47.64,122.9057,0.0702,0.2189,6703
-0.040703,-0.009577,9.873989,0.000234,-0.002754,-0.001729,-19.5,-13.44,-47.64,122.9057,0.0702,0.2189,6714
-0.052674,-0.009577,9.862018,0.000234,0.0003,0.001326,-19.98,-12.48,-47.34,120.8598,0.0706,0.2186,6723
-0.052674,-0.009577,9.862018,0.002677,0.002133,-0.001118,-19.98,-12.48,-47.34,120.8598,0.0706,0.2186,6733
-0.026337,-0.004789,9.873989,-0.002209,-0.000922,0.003158,-20.28,-12.54,-48.06,120.8598,0.0706,0.2186,6744
-0.045491,-0.011971,9.873989,-0.000988,0.000911,-0.00234,-20.28,-12.54,-48.06,120.8598,0.0706,0.2186,6754
-0.023943,-0.021548,9.873989,0.000845,-0.001533,0.001326,-20.16,-13.14,-48.72,122.9091,0.0729,0.2154,6763
-0.05028,-0.011971,9.869201,0.000234,-0.000922,-0.001729,-20.16,-13.14,-48.72,122.9091,0.0729,0.2154,6774
-0.05028,-0.011971,9.869201,-0.000988,-0.00642,-0.00234,-19.68,-13.44,-47.88,122.9091,0.0729,0.2154,6783
-0.021548,0.004789,9.850046,-0.000377,-0.000922,0.000104,-19.68,-13.44,-47.88,122.9091,0.0729,0.2154,6794
-0.052674,-0.002394,9.873989,-0.000377,-0.000922,0.000104,-19.98,-13.2,-48,122.9088,0.0706,0.2144,6803
-0.052674,-0.002394,9.873989,-0.000988,-0.000311,0.000104,-19.98,-13.2,-48,122.9088,0.0706,0.2144,6813
-0.043097,-0.026337,9.866806,-0.002209,-0.001533,-0.001729,-19.92,-13.38,-48.36,122.9088,0.0706,0.2144,6823
-0.047885,-0.004789,9.871595,-0.000988,0.003965,0.001936,-19.92,-13.38,-48.36,122.9088,0.0706,0.2144,6833
-0.040703,-0.01676,9.857229,-0.000377,-0.000311,0.000715,-20.16,-13.68,-48.18,122.9088,0.0706,0.2144,6844
-0.023943,-0.01676,9.862018,-0.002209,0.000911,0.000104,-19.98,-13.2,-48.18,122.9153,0.0696,0.2068,6853
-0.023943,-0.01676,9.862018,0.000845,-0.000922,0.001936,-19.98,-13.2,-48.18,122.9153,0.0696,0.2068,6863
-0.055068,-0.019154,9.869201,-0.000988,-0.000311,-0.00234,-20.16,-13.08,-47.82,122.9153,0.0696,0.2068,6873
-0.03352,-0.01676,9.869201,-0.000377,-0.001533,-0.001118,-20.16,-13.08,-47.82,122.9153,0.0696,0.2068,6884
-0.047885,0,9.847652,0.000845,0.000911,0.001326,-20.16,-13.08,-48.12,122.9102,0.0693,0.2111,6894
-0.047885,0,9.847652,0.002067,0.0003,0.000715,-20.16,-13.08,-48.12,122.9102,0.0693,0.2111,6903
-0.038308,0.007183,9.883567,0.002067,0.0003,0.000715,-20.1,-12.3,-48.06,122.9102,0.0693,0.2111,6913
-0.031126,-0.009577,9.881172,0.002067,-0.001533,0.000104,-20.1,-12.3,-48.06,122.9102,0.0693,0.2111,6923
-0.040703,-0.019154,9.864412,-0.000988,0.000911,0.000104,-19.68,-12.84,-47.94,122.9068,0.0678,0.212,6934
-0.040703,-0.019154,9.864412,-0.002209,-0.000311,0.001936,-19.68,-12.84,-47.94,122.9068,0.0678,0.212,6943
-0.057463,-0.019154,9.869201,0.002067,-0.000922,0.000715,-19.56,-13.32,-48.78,122.9068,0.0678,0.212,6953
-0.045491,0.007183,9.871595,0.000234,0.0003,0.000715,-19.56,-13.32,-48.78,122.9068,0.0678,0.212,6964
-0.040703,-0.014366,9.873989,0.000234,-0.000922,0.000715,-19.74,-13.08,-49.26,122.9065,0.0698,0.213,6974
-0.045491,-0.01676,9.895537,0.002067,0.0003,-0.000507,-19.74,-13.08,-49.26,122.9065,0.0698,0.213,6984
-0.045491,-0.01676,9.895537,-0.000988,0.0003,-0.001118,-19.74,-13.92,-49.02,122.9065,0.0698,0.213,6993
-0.03352,-0.009577,9.873989,-0.000377,0.0003,-0.00234,-19.74,-13.92,-49.02,122.9065,0.0698,0.213,7004
-0.047885,-0.011971,9.866806,-0.000377,-0.000311,0.000104,-19.5,-14.1,-48.12,126.2291,0.0645,0.2172,7013
-0.026337,-0.007183,9.869201,0.000234,-0.000311,-0.00295,-19.5,-14.1,-48.12,126.2291,0.0645,0.2172,7024
-0.031126,-0.023943,9.883567,-0.000988,0.002743,-0.000507,-20.04,-13.2,-47.82,126.2291,0.0645,0.2172,7033
-0.031126,-0.023943,9.883567,-0.00282,-0.000311,-0.00295,-20.04,-13.2,-47.82,126.2291,0.0645,0.2172,7044
-0.038308,0,9.857229,-0.001599,-0.000922,0.000715,-20.7,-12.9,-48.48,121.6358,0.0609,0.2202,7053
-0.05028,-0.01676,9.890749,-0.001599,-0.000922,0.000715,-20.7,-12.9,-48.48,121.6358,0.0609,0.2202,7064
-0.040703,-0.01676,9.866806,-0.000377,0.000911,0.000104,-20.46,-13.2,-48.42,121.6358,0.0609,0.2202,7073
-0.03352,-0.01676,9.881172,-0.002209,-0.001533,-0.00295,-20.4,-13.2,-48.06,121.6358,0.0609,0.2202,7083
-0.03352,-0.01676,9.881172,-0.003431,-0.000311,-0.00234,-20.4,-13.2,-48.06,121.6358,0.0609,0.2202,7093
-0.019154,-0.014366,9.885961,0.001456,-0.000311,-0.001118,-20.34,-13.44,-47.28,122.8904,0.0627,0.2217,7104
-0.038308,0.004789,9.871595,-0.001599,0.001522,0.001326,-20.34,-13.44,-47.28,122.8904,0.0627,0.2217,7114
-0.028731,-0.007183,9.871595,0.000845,-0.001533,0.001326,-19.68,-13.14,-47.64,122.8904,0.0627,0.2217,7124
-0.028731,-0.007183,9.871595,0.000845,-0.001533,0.001326,-19.68,-13.14,-47.64,122.8904,0.0627,0.2217,7133
-0.03352,-0.019154,9.897932,0.001456,0.001522,-0.00295,-19.14,-13.38,-48.48,124.2271,0.0624,0.2224,7143
-0.038308,-0.023943,9.869201,-0.000988,-0.002754,-0.001729,-19.26,-13.44,-48.9,124.2271,0.0624,0.2224,7154
-0.045491,-0.011971,9.869201,0.000234,-0.000922,0.001326,-19.26,-13.44,-48.9,124.2271,0.0624,0.2224,7163
-0.038308,-0.007183,9.871595,0.000234,-0.000311,0.000104,-19.32,-13.68,-48.84,124.2271,0.0624,0.2224,7174
-0.028731,-0.01676,9.864412,0.000234,0.0003,-0.001729,-19.32,-13.68,-48.84,124.2271,0.0624,0.2224,7183
-0.028731,-0.01676,9.864412,-0.001599,-0.002754,0.000104,-19.02,-13.2,-48.06,124.2295,0.0618,0.2194,7193
-0.026337,-0.014366,9.871595,0.001456,-0.000311,0.001326,-19.02,-13.2,-48.06,124.2295,0.0618,0.2194,7203
-0.045491,-0.014366,9.869201,0.000234,-0.000311,0.000715,-19.14,-13.08,-48.12,124.2295,0.0618,0.2194,7214
-0.045491,-0.026337,9.893144,0.000845,0.002133,-0.001118,-19.14,-13.08,-48.12,124.2295,0.0618,0.2194,7224
-0.021548,-0.026337,9.871595,-0.000377,0.000911,-0.001729,-19.62,-13.08,-47.88,122.8945,0.0664,0.221,7234
-0.021548,-0.026337,9.871595,0.000234,0.002133,-0.001729,-19.62,-13.08,-47.88,122.8945,0.0664,0.221,7244
-0.057463,-0.011971,9.873989,0.000845,-0.000311,0.001936,-20.04,-13.74,-48.18,122.8945,0.0664,0.221,7253
-0.047885,-0.014366,9.871595,-0.000377,0.0003,-0.001729,-20.04,-13.74,-48.18,122.8945,0.0664,0.221,7263
-0.043097,-0.028731,9.893144,-0.000377,-0.003976,0.003769,-19.62,-14.4,-48.48,124.8579,0.0727,0.2237,7274
-0.043097,-0.028731,9.893144,-0.000377,-0.003976,0.003769,-19.62,-14.4,-48.48,124.8579,0.0727,0.2237,7283
-0.031126,-0.01676,9.864412,-0.002209,-0.002144,0.002547,-19.86,-13.74,-48.48,124.8579,0.0727,0.2237,7294
-0.045491,-0.009577,9.859624,0.001456,0.0003,0.000715,-19.86,-13.74,-48.48,124.8579,0.0727,0.2237,7303
-0.052674,0,9.888355,0.002677,-0.000922,0.000104,-20.22,-13.2,-48.24,122.9007,0.0769,0.2315,7313
-0.031126,-0.011971,9.869201,-0.003431,-0.000311,-0.00234,-20.22,-13.2,-48.24,122.9007,0.0769,0.2315,7324
-0.055068,-0.021548,9.869201,0.002677,0.0003,0.001326,-19.98,-13.68,-48.3,122.9007,0.0769,0.2315,7333
-0.055068,-0.021548,9.869201,0.000234,-0.000311,0.000715,-19.98,-13.68,-48.3,122.9007,0.0769,0.2315,7343
-0.043097,-0.019154,9.878778,-0.003431,0.001522,-0.001118,-19.92,-14.1,-48.3,124.8573,0.0796,0.2341,7354
-0.031126,-0.011971,9.869201,-0.000988,-0.001533,0.000715,-19.92,-14.1,-48.3,124.8573,0.0796,0.2341,7363
-0.045491,-0.021548,9.873989,-0.001599,-0.000922,0.000104,-20.34,-13.74,-47.82,124.8573,0.0796,0.2341,7373
-0.038308,-0.014366,9.876384,-0.000377,-0.002144,0.000715,-20.34,-13.74,-47.82,124.8573,0.0796,0.2341,7384
-0.038308,-0.014366,9.876384,-0.000377,-0.002144,0.000715,-20.34,-14.04,-47.52,124.8582,0.081,0.2354,7393
-0.035914,-0.019154,9.864412,0.000845,-0.001533,0.001936,-20.52,-13.92,-48.06,124.8582,0.081,0.2354,7404
-0.028731,-0.01676,9.873989,-0.000988,-0.000922,-0.001118,-20.52,-13.92,-48.06,124.8582,0.081,0.2354,7414
-0.045491,-0.014366,9.876384,0.001456,0.000911,-0.000507,-20.4,-13.44,-48.3,124.8582,0.081,0.2354,7423
-0.045491,-0.014366,9.876384,0.002677,0.002743,-0.00234,-20.4,-13.44,-48.3,124.8582,0.081,0.2354,7433
-0.038308,-0.011971,9.866806,0.000234,-0.004587,-0.001118,-19.68,-13.56,-48.72,124.8557,0.0828,0.2376,7443
-0.03352,-0.011971,9.873989,0.000234,-0.002144,-0.001118,-19.68,-13.56,-48.72,124.8557,0.0828,0.2376,7454
-0.05028,-0.014366,9.864412,0.000234,0.001522,-0.001118,-19.68,-13.26,-48.84,124.8557,0.0828,0.2376,7463
-0.045491,-0.011971,9.869201,-0.000988,0.000911,-0.001729,-19.68,-13.26,-48.84,124.8557,0.0828,0.2376,7473
-0.035914,-0.009577,9.850046,0.000234,-0.000311,-0.001729,-20.34,-13.44,-48.6,122.899,0.0809,0.2369,7485
-0.035914,-0.009577,9.850046,-0.000988,-0.001533,0.000715,-20.34,-13.44,-48.6,122.899,0.0809,0.2369,7493
-0.035914,0,9.873989,-0.000377,-0.000311,-0.000507,-20.46,-14.04,-47.82,122.899,0.0809,0.2369,7504
-0.040703,0.014366,9.878778,-0.001599,0.0003,-0.001118,-20.46,-14.04,-47.82,122.899,0.0809,0.2369,7513
-0.052674,-0.014366,9.862018,-0.000988,-0.002144,-0.00234,-19.86,-13.5,-48,122.9011,0.0797,0.2354,7524
-0.052674,-0.014366,9.862018,0.000845,-0.000311,0.001326,-19.86,-13.5,-48,122.9011,0.0797,0.2354,7533
-0.047885,-0.002394,9.857229,-0.002209,-0.000922,0.000104,-19.98,-13.26,-48.36,122.9011,0.0797,0.2354,7544
-0.038308,-0.01676,9.876384,-0.002209,-0.000922,0.000104,-19.98,-13.26,-48.36,122.9011,0.0797,0.2354,7553
-0.028731,-0.011971,9.871595,0.001456,-0.003365,-0.000507,-19.92,-13.02,-48.9,122.8852,0.073,0.2372,7564
-0.028731,-0.011971,9.871595,0.000845,-0.001533,0.001326,-19.92,-13.02,-48.9,122.8852,0.073,0.2372,7573
-0.031126,-0.01676,9.883567,-0.001599,0.0003,-0.000507,-19.26,-13.08,-48.6,122.8852,0.073,0.2372,7583
-0.05028,-0.002394,9.852441,-0.000988,-0.002144,-0.000507,-19.26,-13.08,-48.6,122.8852,0.073,0.2372,7593
-0.035914,-0.01676,9.869201,-0.000377,0.0003,-0.000507,-19.74,-13.62,-48.12,124.8399,0.0733,0.2408,7603
-0.035914,-0.01676,9.869201,0.000234,0.001522,0.000104,-19.74,-13.62,-48.12,124.8399,0.0733,0.2408,7614
-0.035914,-0.021548,9.876384,-0.002209,0.0003,-0.001118,-20.28,-13.32,-47.82,124.8399,0.0733,0.2408,7623
-0.035914,-0.023943,9.869201,-0.001599,-0.002754,0.000715,-20.28,-13.32,-47.82,124.8399,0.0733,0.2408,7633
-0.035914,0,9.866806,0.000845,0.001522,-0.003561,-19.5,-13.56,-47.58,126.2121,0.0718,0.2415,7644
-0.035914,0,9.866806,-0.000988,0.0003,-0.00295,-19.5,-13.56,-47.58,126.2121,0.0718,0.2415,7653
-0.03352,-0.004789,9.842864,0.000234,-0.000922,-0.000507,-18.72,-13.5,-48.3,126.2121,0.0718,0.2415,7664
-0.026337,-0.002394,9.878778,0.000234,-0.000922,-0.000507,-18.72,-13.5,-48.3,126.2121,0.0718,0.2415,7673
-0.045491,-0.007183,9.862018,-0.001599,-0.000311,-0.001729,-19.32,-13.26,-48.48,124.2333,0.0768,0.2382,7684
-0.035914,-0.004789,9.864412,-0.000988,0.0003,0.000104,-19.32,-13.26,-48.48,124.2333,0.0768,0.2382,7693
-0.043097,-0.009577,9.862018,-0.000988,-0.000922,0.001326,-19.74,-13.74,-47.58,124.2333,0.0768,0.2382,7706
-0.043097,-0.009577,9.862018,-0.000988,-0.000922,0.001326,-19.74,-13.74,-47.58,124.2333,0.0768,0.2382,7713
-0.031126,-0.028731,9.871595,-0.001599,0.000911,0.000715,-19.62,-13.08,-47.46,122.894,0.0743,0.2362,7723
-0.031126,0,9.866806,-0.002209,0.002743,-0.00295,-19.62,-13.08,-47.46,122.894,0.0743,0.2362,7734
-0.052674,-0.019154,9.859624,0.000234,0.005187,-0.000507,-19.86,-13.44,-48.12,122.894,0.0743,0.2362,7743
-0.052674,-0.019154,9.859624,0.000234,0.000911,0.000104,-19.86,-13.44,-48.12,122.894,0.0743,0.2362,7753
-0.040703,-0.026337,9.878778,0.000234,0.001522,0.000715,-19.5,-13.92,-47.94,126.2227,0.0724,0.2333,7763
-0.040703,0.007183,9.871595,0.000234,0.0003,0.001936,-19.5,-13.92,-47.94,126.2227,0.0724,0.2333,7773
-0.05028,-0.011971,9.864412,-0.000377,0.003354,0.000104,-19.44,-13.08,-48,126.2227,0.0724,0.2333,7783
-0.038308,-0.023943,9.862018,0.000234,0.001522,0.001936,-19.44,-13.08,-48,126.2227,0.0724,0.2333,7793
-0.038308,-0.023943,9.862018,-0.000377,-0.000311,-0.004172,-19.68,-13.44,-47.88,122.8978,0.0701,0.2238,7803
-0.045491,-0.014366,9.866806,-0.000377,-0.000922,-0.00234,-19.68,-13.44,-47.88,122.8978,0.0701,0.2238,7813
-0.03352,-0.002394,9.878778,0.000234,0.000911,0.000715,-19.74,-13.74,-47.34,122.8978,0.0701,0.2238,7824
-0.043097,-0.031126,9.876384,-0.000988,0.000911,0.000104,-19.74,-13.74,-47.34,122.8978,0.0701,0.2238,7834
-0.047885,-0.014366,9.883567,0.001456,0.0003,0.002547,-19.68,-13.92,-47.82,124.855,0.0665,0.2174,7844
-0.047885,-0.014366,9.883567,0.001456,0.0003,0.002547,-19.68,-13.92,-47.82,124.855,0.0665,0.2174,7854
-0.028731,-0.007183,9.859624,-0.000377,-0.003365,-0.000507,-19.8,-14.16,-47.64,124.855,0.0665,0.2174,7863
-0.040703,-0.011971,9.873989,-0.000377,-0.000922,0.000715,-20.16,-14.22,-48,124.855,0.0665,0.2174,7873
-0.045491,0.002394,9.873989,0.000845,0.000911,0.001936,-20.16,-14.22,-48,124.855,0.0665,0.2174,7883
-0.045491,0.002394,9.873989,0.000845,-0.000311,-0.000507,-20.1,-13.62,-48.12,124.8714,0.0768,0.2174,7893
-0.064645,-0.004789,9.862018,0.002067,0.000911,0.000715,-20.1,-13.62,-48.12,124.8714,0.0768,0.2174,7904
-0.038308,-0.021548,9.876384,0.001456,0.001522,-0.001729,-19.86,-13.56,-47.76,124.8714,0.0768,0.2174,7913
-0.026337,-0.004789,9.881172,-0.000377,0.0003,-0.004783,-19.86,-13.56,-47.76,124.8714,0.0768,0.2174,7924
-0.026337,-0.004789,9.881172,-0.000377,-0.001533,-0.000507,-20.4,-13.08,-48.24,122.9138,0.0758,0.2178,7933
-0.040703,-0.01676,9.871595,0.002677,0.001522,0.000104,-20.4,-13.08,-48.24,122.9138,0.0758,0.2178,7944
-0.038308,-0.011971,9.869201,-0.000988,-0.002754,-0.000507,-20.64,-12.36,-48.66,122.9138,0.0758,0.2178,7953
-0.035914,-0.021548,9.857229,-0.000988,-0.002754,-0.000507,-20.64,-12.36,-48.66,122.9138,0.0758,0.2178,7963
-0.043097,0,9.876384,0.000234,0.000911,0.003158,-20.22,-13.08,-48.06,122.899,0.0684,0.22,7973
-0.043097,0,9.876384,0.000234,0.000911,0.003158,-20.22,-13.08,-48.06,122.899,0.0684,0.22,7984
-0.026337,0,9.869201,0.000234,0.000911,0.000715,-19.74,-13.74,-47.58,122.899,0.0684,0.22,7993
-0.031126,-0.002394,9.866806,-0.000377,0.002133,0.000104,-20.4,-13.62,-48,122.899,0.0684,0.22,8003
-0.035914,-0.031126,9.869201,-0.001599,-0.001533,0.001326,-20.4,-13.62,-48,122.899,0.0684,0.22,8013
-0.035914,-0.019154,9.888355,-0.000988,-0.000922,0.001326,-20.64,-13.68,-48.18,123.5717,0.0713,0.2199,8023
-0.035914,-0.019154,9.888355,0.000234,0.001522,0.000715,-20.64,-13.68,-48.18,123.5717,0.0713,0.2199,8033
-0.047885,-0.002394,9.859624,-0.000988,0.005187,-0.000507,-19.86,-13.26,-47.76,123.5717,0.0713,0.2199,8043
-0.026337,-0.004789,9.878778,0.000234,0.000911,0.000104,-19.98,-13.2,-47.28,123.5717,0.0713,0.2199,8054
-0.045491,-0.004789,9.878778,0.000234,0.0003,0.001326,-19.98,-13.2,-47.28,123.5717,0.0713,0.2199,8063
-0.045491,0.002394,9.862018,0.001456,-0.000311,0.000715,-20.16,-13.08,-47.76,122.9034,0.071,0.22,8074
-0.045491,0.002394,9.862018,0.000234,-0.001533,-0.001118,-20.16,-13.08,-47.76,122.9034,0.071,0.22,8083
-0.03352,-0.01676,9.881172,0.001456,-0.002754,-0.001118,-20.16,-13.26,-48.48,122.9034,0.071,0.22,8094
-0.043097,-0.007183,9.866806,-0.000988,-0.000922,0.000104,-20.16,-13.26,-48.48,122.9034,0.071,0.22,8104
-0.03352,-0.01676,9.895537,0.000234,-0.001533,-0.001118,-20.34,-13.8,-48.48,124.8645,0.0717,0.2164,8113
-0.03352,-0.01676,9.895537,0.003288,0.0003,0.002547,-20.34,-13.8,-48.48,124.8645,0.0717,0.2164,8123
-0.023943,-0.019154,9.881172,0.000234,0.000911,0.001936,-19.68,-13.92,-47.82,124.8645,0.0717,0.2164,8133
-0.045491,-0.009577,9.876384,0.000234,0.000911,0.001936,-19.68,-13.92,-47.82,124.8645,0.0717,0.2164,8143
-0.031126,-0.009577,9.864412,-0.000377,-0.000922,0.000715,-19.56,-13.56,-47.64,124.8669,0.0715,0.2139,8154
-0.01676,-0.019154,9.871595,0.000234,-0.000311,0.000104,-19.56,-13.56,-47.64,124.8669,0.0715,0.2139,8163
-0.01676,-0.019154,9.871595,-0.000377,0.002743,0.004991,-20.04,-13.14,-47.88,124.8669,0.0715,0.2139,8174
-0.03352,-0.019154,9.866806,0.002067,-0.000922,0.002547,-20.04,-13.14,-47.88,124.8669,0.0715,0.2139,8183
-0.03352,0,9.893144,-0.000377,-0.003365,0.000104,-20.28,-13.08,-48.18,122.9134,0.0731,0.2139,8194
-0.045491,-0.014366,9.883567,0.000845,0.0003,-0.001118,-20.28,-13.26,-47.94,122.9134,0.0731,0.2139,8203
-0.045491,-0.014366,9.883567,0.000845,-0.000922,-0.000507,-20.28,-13.26,-47.94,122.9134,0.0731,0.2139,8213
-0.055068,0.004789,9.869201,-0.002209,-0.000311,-0.00295,-20.22,-12.42,-48,122.9134,0.0731,0.2139,8224
-0.021548,-0.011971,9.876384,-0.000377,0.000911,0.000104,-20.22,-12.42,-48,122.9134,0.0731,0.2139,8234
-0.05028,0.009577,9.90272,0.000845,0.001522,0.001326,-19.68,-12.78,-48,122.921,0.0756,0.2108,8244
-0.021548,-0.019154,9.883567,-0.000988,-0.000311,0.001936,-19.68,-12.78,-48,122.921,0.0756,0.2108,8254
-0.021548,-0.019154,9.883567,-0.001599,-0.000311,-0.001729,-19.68,-13.68,-47.4,122.921,0.0756,0.2108,8263
-0.035914,-0.007183,9.871595,0.001456,0.002743,0.000104,-19.68,-13.68,-47.4,122.921,0.0756,0.2108,8273
-0.03352,-0.019154,9.869201,-0.000988,-0.003976,-0.001118,-19.92,-13.56,-47.16,124.8746,0.0749,0.2141,8283
-0.03352,-0.01676,9.876384,0.001456,0.0003,0.001936,-19.92,-13.56,-47.16,124.8746,0.0749,0.2141,8294
-0.03352,-0.01676,9.876384,-0.000377,0.000911,0.002547,-19.86,-13.44,-47.64,124.8746,0.0749,0.2141,8304
-0.03352,-0.021548,9.869201,0.000234,0.000911,0.003158,-19.86,-13.44,-47.64,124.8746,0.0749,0.2141,8313
-0.057463,0.009577,9.881172,0.002067,0.001522,-0.001118,-19.74,-13.56,-47.52,124.8706,0.0747,0.2152,8324
-0.040703,-0.009577,9.862018,0.002067,0.001522,-0.001118,-19.74,-13.56,-47.52,124.8706,0.0747,0.2152,8334
-0.040703,-0.021548,9.881172,-0.001599,0.001522,0.000104,-19.56,-13.68,-47.34,124.8706,0.0747,0.2152,8344
-0.040703,-0.021548,9.881172,-0.000988,-0.005809,0.000104,-19.2,-13.74,-47.7,124.8706,0.0747,0.2152,8353
-0.045491,-0.014366,9.876384,-0.000988,-0.003365,0.001936,-19.2,-13.74,-47.7,124.8706,0.0747,0.2152,8363
-0.035914,-0.019154,9.869201,-0.002209,-0.002144,-0.003561,-19.68,-13.62,-48.18,124.8535,0.0652,0.2169,8374
-0.035914,-0.021548,9.883567,-0.000988,-0.003976,0.000715,-19.68,-13.62,-48.18,124.8535,0.0652,0.2169,8384
-0.055068,0.004789,9.859624,-0.000988,-0.001533,-0.000507,-19.92,-14.16,-48.18,124.8535,0.0652,0.2169,8394
-0.055068,0.004789,9.859624,-0.002209,-0.000311,0.000715,-19.8,-14.1,-48.12,124.8535,0.0652,0.2169,8406
-0.035914,-0.002394,9.876384,-0.002209,-0.002144,0.000104,-19.8,-14.1,-48.12,124.8535,0.0652,0.2169,8414
-0.040703,-0.004789,9.878778,0.000234,0.0003,-0.000507,-19.56,-13.8,-47.16,124.85,0.0632,0.2199,8424
-0.040703,-0.004789,9.878778,0.000234,0.0003,-0.000507,-19.56,-13.8,-47.16,124.85,0.0632,0.2199,8434
-0.045491,-0.026337,9.869201,-0.001599,-0.002754,-0.00295,-19.74,-13.02,-47.64,124.85,0.0632,0.2199,8443
-0.035914,-0.009577,9.873989,-0.000988,0.002133,0.001936,-19.74,-13.02,-47.64,124.85,0.0632,0.2199,8453
-0.03352,-0.01676,9.871595,0.002067,-0.000922,0.000104,-19.98,-13.08,-48,122.8861,0.064,0.225,8464
-0.03352,-0.01676,9.871595,-0.000377,-0.002754,-0.001118,-19.98,-13.08,-48,122.8861,0.064,0.225,8473
-0.05028,-0.002394,9.862018,-0.000377,0.0003,0.002547,-20.04,-13.32,-48.3,122.8861,0.064,0.225,8483
-0.047885,-0.007183,9.871595,0.000234,-0.000311,0.001936,-20.04,-13.32,-48.3,122.8861,0.064,0.225,8494
-0.045491,-0.014366,9.873989,0.000845,0.002743,0.000104,-19.98,-12.96,-48.24,122.8913,0.0667,0.2245,8504
-0.045491,-0.014366,9.873989,0.000845,-0.003365,0.001326,-19.98,-12.96,-48.24,122.8913,0.0667,0.2245,8513
-0.05028,-0.009577,9.871595,-0.002209,0.000911,0.003769,-19.38,-12.96,-47.88,122.8913,0.0667,0.2245,8524
-0.03352,-0.01676,9.885961,0.002067,0.000911,0.001936,-19.38,-12.96,-47.88,122.8913,0.0667,0.2245,8533
-0.043097,-0.019154,9.883567,-0.000988,0.0003,0.001936,-19.86,-13.38,-48.12,122.8883,0.0662,0.2265,8544
-0.040703,0.002394,9.881172,-0.000988,0.0003,0.001936,-19.8,-13.5,-48.42,122.8883,0.0662,0.2265,8554
-0.040703,0.002394,9.881172,-0.000988,-0.002144,-0.001729,-19.8,-13.5,-48.42,122.8883,0.0662,0.2265,8563
-0.047885,-0.009577,9.859624,-0.000377,-0.000311,-0.00295,-20.34,-13.8,-48.12,122.8883,0.0662,0.2265,8574
-0.03352,-0.007183,9.866806,0.000845,-0.000922,0.003158,-20.34,-13.8,-48.12,122.8883,0.0662,0.2265,8584
-0.038308,-0.021548,9.859624,0.000845,-0.002754,0.001326,-20.04,-14.46,-47.4,124.8495,0.0687,0.2282,8594
-0.031126,0.004789,9.873989,0.000845,0.001522,0.000104,-20.04,-14.46,-47.4,124.8495,0.0687,0.2282,8604
-0.031126,0.004789,9.873989,-0.000988,-0.000922,0.000715,-20.16,-13.92,-48,124.8495,0.0687,0.2282,8613
-0.038308,-0.004789,9.885961,0.000845,0.000911,-0.00295,-19.98,-13.56,-47.88,124.8495,0.0687,0.2282,8623
-0.038308,-0.004789,9.885961,0.000845,0.000911,-0.00295,-19.98,-13.56,-47.88,124.8495,0.0687,0.2282,8634
-0.035914,-0.019154,9.857229,-0.000988,-0.001533,0.000104,-19.92,-13.44,-48.3,122.8896,0.0646,0.2228,8643
-0.045491,-0.014366,9.866806,0.000845,0.001522,0.001936,-19.92,-13.44,-48.3,122.8896,0.0646,0.2228,8654
-0.026337,-0.009577,9.890749,-0.000377,0.0003,-0.000507,-19.8,-12.78,-48.6,122.8896,0.0646,0.2228,8663
-0.028731,-0.019154,9.869201,0.002067,-0.002144,0.000715,-19.8,-12.78,-48.6,122.8896,0.0646,0.2228,8674
-0.028731,-0.019154,9.869201,0.002067,0.002133,0.000104,-19.56,-12.9,-48.54,122.9069,0.0701,0.2132,8683
-0.043097,-0.009577,9.873989,-0.002209,-0.000922,0.000104,-19.56,-12.9,-48.54,122.9069,0.0701,0.2132,8693
-0.03352,-0.01676,9.876384,0.000845,0.000911,0.000715,-19.56,-12.9,-48.54,122.9069,0.0701,0.2132,8703
-0.047885,-0.014366,9.885961,0.000234,-0.000311,0.001326,-18.72,-13.08,-48.6,122.9069,0.0701,0.2132,8713
-0.047885,-0.014366,9.885961,0.002067,0.000911,0.00438,-19.08,-12.9,-48,124.2601,0.0704,0.2058,8723
-0.03352,-0.014366,9.873989,-0.000988,-0.000922,-0.000507,-19.08,-12.9,-48,124.2601,0.0704,0.2058,8734
-0.019154,-0.011971,9.883567,0.000234,-0.000311,0.001326,-19.98,-13.5,-48.06,124.2601,0.0704,0.2058,8743
-0.045491,0.004789,9.881172,0.000845,0.002133,-0.001729,-19.98,-13.5,-48.06,124.2601,0.0704,0.2058,8753
-0.045491,0.004789,9.881172,0.000845,0.002133,-0.001729,-19.86,-13.5,-48.24,122.9153,0.0692,0.2062,8764
-0.038308,-0.01676,9.862018,0.000234,-0.000922,0.000104,-19.86,-13.5,-48.24,122.9153,0.0692,0.2062,8773
-0.031126,-0.002394,9.878778,-0.000377,0.0003,0.001936,-19.62,-13.14,-47.82,122.9153,0.0692,0.2062,8784
-0.047885,-0.004789,9.854836,0.000845,0.002133,0.001326,-19.62,-13.14,-47.82,122.9153,0.0692,0.2062,8793
-0.052674,-0.004789,9.871595,-0.002209,-0.005809,-0.00234,-20.22,-12.72,-47.52,122.9082,0.0667,0.2089,8804
-0.052674,-0.004789,9.871595,0.000234,0.0003,-0.00295,-20.22,-12.72,-47.52,122.9082,0.0667,0.2089,8813
-0.019154,-0.011971,9.881172,-0.001599,-0.000922,-0.00295,-20.4,-12.84,-47.7,122.9082,0.0667,0.2089,8824
-0.028731,0.004789,9.873989,-0.000988,0.000911,0.003158,-20.16,-12.78,-47.52,122.9082,0.0667,0.2089,8834
-0.040703,-0.011971,9.878778,-0.001599,-0.000311,0.000715,-20.16,-12.78,-47.52,122.9082,0.0667,0.2089,8844
-0.019154,-0.011971,9.859624,-0.001599,-0.000311,0.000715,-20.4,-13.32,-47.46,122.8772,0.0565,0.2246,8853
-0.019154,-0.011971,9.859624,0.000234,-0.000311,0.000104,-20.4,-13.32,-47.46,122.8772,0.0565,0.2246,8864
-0.038308,-0.01676,9.859624,0.000234,0.000911,-0.00234,-19.56,-13.62,-48,122.8772,0.0565,0.2246,8873
-0.05028,-0.011971,9.866806,0.000234,-0.000311,0.001936,-19.56,-13.62,-48,122.8772,0.0565,0.2246,8884
-0.047885,-0.009577,9.862018,0.002677,-0.000311,0.000715,-19.56,-12.9,-48.06,122.8832,0.0611,0.2232,8894
-0.023943,-0.011971,9.876384,0.000234,-0.000922,-0.001118,-19.56,-12.9,-48.06,122.8832,0.0611,0.2232,8906
-0.023943,-0.011971,9.876384,-0.001599,-0.000922,-0.00234,-19.68,-13.02,-47.76,122.8832,0.0611,0.2232,8914
-0.052674,-0.002394,9.862018,0.000234,-0.001533,0.003158,-20.22,-13.32,-47.76,122.8832,0.0611,0.2232,8923
-0.03352,-0.009577,9.893144,0.001456,0.001522,0.000104,-20.22,-13.32,-47.76,122.8832,0.0611,0.2232,8934
-0.040703,-0.007183,9.847652,0.001456,0.003965,0.001326,-19.74,-13.32,-47.46,122.886,0.0595,0.221,8943
-0.035914,-0.01676,9.871595,0.000845,0.000911,0.000104,-19.74,-13.32,-47.46,122.886,0.0595,0.221,8953
-0.035914,-0.01676,9.871595,-0.000377,0.001522,-0.000507,-19.62,-13.62,-47.34,122.886,0.0595,0.221,8964
-0.038308,-0.01676,9.857229,-0.000377,0.001522,-0.000507,-19.62,-13.62,-47.34,122.886,0.0595,0.221,8973
-0.031126,-0.004789,9.890749,-0.000988,0.0003,-0.000507,-19.74,-13.56,-47.64,124.8282,0.0565,0.2271,8983
-0.047885,0.002394,9.883567,-0.000377,-0.001533,0.001326,-19.74,-13.56,-47.64,124.8282,0.0565,0.2271,8994
-0.047885,0.002394,9.883567,-0.000377,-0.001533,0.001326,-19.86,-13.14,-47.76,124.8282,0.0565,0.2271,9003
-0.035914,-0.014366,9.871595,0.001456,-0.000311,0.000104,-19.86,-13.14,-47.76,124.8282,0.0565,0.2271,9013
-0.05028,-0.019154,9.862018,0.000234,0.0003,-0.001118,-19.74,-13.02,-48,122.8795,0.0612,0.2268,9024
-0.028731,-0.019154,9.883567,0.000845,0.0003,0.000715,-19.74,-13.02,-48,122.8795,0.0612,0.2268,9033
-0.028731,-0.019154,9.883567,-0.001599,0.000911,-0.000507,-19.86,-13.38,-48,122.8795,0.0612,0.2268,9043
-0.043097,-0.002394,9.881172,0.002067,0.002743,0.001936,-19.86,-13.38,-48,122.8795,0.0612,0.2268,9053
-0.038308,-0.01676,9.876384,0.002067,-0.000311,-0.000507,-19.98,-13.68,-48.36,124.847,0.0657,0.2235,9064
-0.038308,-0.011971,9.871595,-0.002209,-0.000922,-0.001118,-19.98,-13.68,-48.36,124.847,0.0657,0.2235,9073
-0.045491,-0.002394,9.871595,-0.000988,-0.000922,0.000715,-19.8,-13.8,-48.84,124.847,0.0657,0.2235,9083
-0.045491,-0.002394,9.871595,-0.000988,0.001522,-0.00234,-19.8,-13.8,-48.84,124.847,0.0657,0.2235,9093
-0.05028,-0.023943,9.876384,0.002677,0.003354,-0.000507,-20.04,-13.32,-48.42,122.9078,0.0709,0.2157,9104
-0.043097,-0.01676,9.876384,-0.002209,0.002743,-0.001729,-20.04,-13.32,-48.42,122.9078,0.0709,0.2157,9114
-0.03352,-0.014366,9.857229,0.001456,-0.001533,-0.00234,-20.52,-13.2,-47.28,122.9078,0.0709,0.2157,9123
-0.03352,-0.014366,9.857229,0.002677,-0.000922,0.001936,-20.52,-13.2,-47.28,122.9078,0.0709,0.2157,9134
-0.028731,-0.009577,9.876384,0.000234,0.001522,0.001936,-20.46,-13.62,-47.58,124.8671,0.0715,0.2138,9143
-0.045491,-0.007183,9.864412,0.000234,0.001522,0.001936,-20.46,-13.62,-47.58,124.8671,0.0715,0.2138,9154
-0.03352,-0.028731,9.883567,-0.000377,-0.000922,0.002547,-20.28,-13.56,-48.66,124.8671,0.0715,0.2138,9163
-0.03352,-0.028731,9.883567,0.001456,0.002743,0.000104,-20.28,-13.56,-48.66,124.8671,0.0715,0.2138,9173
-0.043097,-0.019154,9.890749,-0.000988,0.001522,0.000715,-20.16,-13.26,-48.54,122.9105,0.0711,0.2115,9184
-0.052674,-0.004789,9.859624,-0.000377,-0.000922,0.000715,-20.16,-13.26,-48.54,122.9105,0.0711,0.2115,9193
-0.031126,-0.004789,9.873989,-0.002209,0.002133,-0.001118,-19.86,-13.98,-47.94,122.9105,0.0711,0.2115,9203
-0.055068,-0.01676,9.876384,0.000234,0.0003,0.000104,-19.86,-13.98,-47.94,122.9105,0.0711,0.2115,9213
-0.055068,-0.01676,9.876384,-0.003431,0.000911,-0.000507,-19.92,-13.8,-47.82,124.8694,0.0723,0.2129,9223
-0.045491,-0.01676,9.864412,0.002067,-0.000922,0.000715,-19.92,-13.8,-47.82,124.8694,0.0723,0.2129,9233
-0.03352,-0.014366,9.897932,-0.002209,0.000911,-0.001729,-19.32,-13.8,-48.06,124.8694,0.0723,0.2129,9243
-0.035914,-0.014366,9.873989,0.000845,-0.002144,-0.000507,-19.32,-13.8,-48.06,124.8694,0.0723,0.2129,9254
-0.043097,-0.011971,9.871595,-0.001599,-0.000922,0.000104,-19.32,-13.2,-48.18,124.2477,0.0685,0.2136,9263
-0.043097,-0.011971,9.871595,0.000234,0.002133,0.000104,-19.32,-13.2,-48.18,124.2477,0.0685,0.2136,9273
-0.03352,-0.009577,9.878778,0.000845,0.000911,-0.001729,-20.28,-12.36,-47.7,124.2477,0.0685,0.2136,9283
-0.05028,-0.002394,9.864412,0.000234,0.002133,0.001326,-20.28,-12.36,-47.7,124.2477,0.0685,0.2136,9293
-0.035914,-0.01676,9.873989,0.000234,-0.002754,0.000104,-20.58,-13.26,-47.46,121.6569,0.0702,0.2164,9304
-0.035914,-0.014366,9.873989,0.000845,0.001522,0.002547,-20.58,-13.26,-47.46,121.6569,0.0702,0.2164,9313
-0.035914,-0.014366,9.873989,0.000845,0.001522,0.002547,-20.58,-13.26,-47.46,121.6569,0.0702,0.2164,9324
-0.047885,-0.004789,9.873989,0.000234,0.002133,0.000104,-19.98,-13.5,-47.64,121.6569,0.0702,0.2164,9334
-0.028731,-0.011971,9.883567,-0.001599,0.000911,-0.000507,-20.04,-13.56,-47.16,124.862,0.0699,0.2185,9343
-0.03352,-0.007183,9.876384,0.000845,0.001522,-0.000507,-20.04,-13.56,-47.16,124.862,0.0699,0.2185,9354
-0.035914,-0.014366,9.885961,-0.000377,0.001522,0.001326,-20.1,-13.62,-47.58,124.862,0.0699,0.2185,9363
-0.035914,-0.014366,9.885961,-0.000988,0.0003,0.002547,-20.1,-13.62,-47.58,124.862,0.0699,0.2185,9373
-0.035914,-0.009577,9.878778,-0.002209,-0.000922,-0.00295,-19.5,-13.68,-47.76,126.2356,0.076,0.2274,9384
-0.038308,-0.019154,9.873989,-0.001599,0.003965,-0.00234,-19.5,-13.68,-47.76,126.2356,0.076,0.2274,9393
-0.047885,-0.004789,9.890749,0.000845,0.0003,-0.001118,-19.86,-13.74,-47.22,126.2356,0.076,0.2274,9404
-0.047885,-0.004789,9.890749,0.000845,0.0003,-0.001118,-19.86,-13.74,-47.22,126.2356,0.076,0.2274,9413
-0.040703,-0.007183,9.885961,0.001456,-0.000922,0.002547,-20.28,-13.14,-47.34,122.9047,0.0776,0.2313,9424
-0.031126,-0.007183,9.876384,-0.000988,-0.000311,-0.001729,-20.28,-13.14,-47.34,122.9047,0.0776,0.2313,9433
-0.045491,-0.009577,9.876384,0.002677,-0.001533,-0.001118,-19.92,-12.6,-47.7,122.9047,0.0776,0.2313,9444
-0.043097,-0.004789,9.885961,0.000234,0.000911,0.000104,-19.92,-12.6,-47.7,122.9047,0.0776,0.2313,9454
-0.043097,-0.004789,9.885961,-0.000377,-0.000922,0.000104,-19.38,-13.02,-47.88,124.2331,0.0764,0.2378,9464
-0.031126,-0.004789,9.883567,-0.001599,0.000911,0.000715,-19.38,-13.02,-47.88,124.2331,0.0764,0.2378,9474
-0.004789,-0.004789,9.885961,-0.000377,-0.000311,-0.001118,-19.08,-14.04,-48.42,124.2331,0.0764,0.2378,9483
-0.019154,-0.009577,9.878778,-0.000377,-0.000311,-0.001118,-19.08,-14.04,-48.42,124.2331,0.0764,0.2378,9494
-0.019154,-0.009577,9.878778,-0.000988,-0.000311,-0.000507,-19.26,-13.8,-48.96,126.2218,0.0766,0.237,9503
-0.047885,-0.009577,9.857229,0.000234,0.000911,0.000104,-19.26,-13.8,-48.96,126.2218,0.0766,0.237,9514
-0.045491,-0.021548,9.859624,0.000234,0.000911,-0.00234,-19.92,-13.38,-48,126.2218,0.0766,0.237,9523
-0.026337,-0.01676,9.873989,0.002067,0.001522,0.003158,-19.92,-13.38,-48,126.2218,0.0766,0.237,9534
-0.038308,-0.002394,9.876384,0.000234,-0.000922,0.000715,-20.64,-13.5,-46.92,121.654,0.0753,0.2277,9544
-0.038308,-0.002394,9.876384,0.000234,-0.000922,0.000715,-20.64,-13.5,-46.92,121.654,0.0753,0.2277,9553
-0.03352,-0.019154,9.854836,0.000845,0.001522,-0.001118,-19.98,-13.14,-47.04,121.654,0.0753,0.2277,9563
-0.045491,-0.026337,9.871595,-0.000988,-0.000922,0.001326,-19.98,-13.14,-47.04,121.654,0.0753,0.2277,9573
-0.035914,-0.021548,9.869201,-0.000988,-0.000922,0.000104,-19.86,-13.26,-47.46,122.8959,0.0719,0.2307,9583
-0.035914,-0.021548,9.869201,-0.002209,-0.002754,-0.000507,-19.86,-13.26,-47.46,122.8959,0.0719,0.2307,9594
-0.011971,-0.014366,9.866806,0.000234,-0.000311,0.001936,-20.16,-13.26,-47.64,122.8959,0.0719,0.2307,9604
-0.026337,-0.014366,9.873989,-0.00282,-0.000922,0.001936,-20.16,-13.26,-47.64,122.8959,0.0719,0.2307,9613
-0.038308,-0.01676,9.866806,-0.000988,0.001522,-0.00234,-19.56,-13.5,-47.76,122.8811,0.0663,0.2333,9623
-0.040703,-0.011971,9.869201,0.002067,0.002133,0.001326,-19.56,-13.5,-47.76,122.8811,0.0663,0.2333,9633
-0.040703,-0.011971,9.869201,0.000845,0.001522,0.001936,-19.92,-14.04,-48.36,122.8811,0.0663,0.2333,9643
-0.038308,-0.01676,9.857229,-0.000988,-0.000922,0.000104,-19.92,-14.04,-48.36,122.8811,0.0663,0.2333,9653
-0.03352,-0.01676,9.869201,-0.002209,0.0003,-0.00295,-20.28,-13.56,-48,124.8515,0.0713,0.2274,9663
-0.031126,-0.011971,9.871595,0.001456,0.002133,0.000104,-20.28,-13.56,-48,124.8515,0.0713,0.2274,9673
-0.01676,-0.019154,9.866806,-0.000377,-0.000922,-0.00234,-19.44,-13.44,-47.88,124.8515,0.0713,0.2274,9684
-0.01676,-0.019154,9.866806,0.000845,0.001522,0.000104,-19.44,-13.44,-47.88,124.8515,0.0713,0.2274,9694
-0.045491,-0.01676,9.873989,0.000845,0.001522,0.000104,-19.14,-13.26,-47.76,124.2382,0.0718,0.2266,9703
-0.05028,-0.023943,9.881172,-0.001599,-0.001533,-0.001729,-19.14,-13.26,-47.76,124.2382,0.0718,0.2266,9713
-0.026337,-0.021548,9.873989,-0.001599,-0.001533,0.000104,-19.68,-13.44,-47.64,124.2382,0.0718,0.2266,9724
-0.026337,-0.021548,9.873989,0.000845,0.0003,0.000715,-19.68,-13.44,-47.64,124.2382,0.0718,0.2266,9733
-0.043097,-0.031126,9.850046,-0.000377,0.000911,0.000715,-20.04,-13.62,-48.12,124.857,0.0724,0.2241,9743
-0.052674,-0.021548,9.864412,-0.000377,0.002133,0.002547,-20.04,-13.62,-48.12,124.857,0.0724,0.2241,9753
-0.043097,-0.011971,9.878778,-0.000988,-0.000922,0.000104,-20.4,-13.5,-47.52,124.857,0.0724,0.2241,9763
-0.031126,-0.011971,9.862018,-0.000988,0.0003,0.000715,-20.16,-13.68,-47.64,124.857,0.0724,0.2241,9774
-0.031126,-0.011971,9.862018,-0.000377,0.000911,0.000715,-20.16,-13.68,-47.64,124.857,0.0724,0.2241,9783
-0.01676,-0.004789,9.864412,0.000845,0.003354,0.004991,-20.16,-13.56,-47.52,124.8686,0.0756,0.2182,9794
-0.038308,-0.009577,9.869201,0.000845,0.003354,0.004991,-20.16,-13.56,-47.52,124.8686,0.0756,0.2182,9804
-0.040703,-0.014366,9.864412,-0.001599,0.0003,0.000104,-19.86,-12.6,-46.92,124.8686,0.0756,0.2182,9813
-0.031126,-0.004789,9.857229,0.000845,-0.003976,-0.001118,-19.86,-12.6,-46.92,124.8686,0.0756,0.2182,9823
-0.031126,-0.004789,9.857229,-0.004042,-0.000922,-0.001118,-19.68,-12.84,-47.4,122.9135,0.075,0.219,9833
-0.043097,-0.011971,9.859624,0.000845,0.002743,0.003769,-19.68,-12.84,-47.4,122.9135,0.075,0.219,9843
-0.03352,-0.01676,9.883567,-0.000377,-0.000922,-0.000507,-19.98,-13.26,-48.24,122.9135,0.075,0.219,9854
-0.043097,-0.01676,9.888355,-0.000377,-0.001533,-0.001118,-19.98,-13.26,-48.24,122.9135,0.075,0.219,9863
-0.045491,-0.03352,9.888355,0.001456,0.000911,-0.00234,-20.4,-13.74,-48.54,124.86,0.0753,0.2231,9873
-0.045491,-0.03352,9.888355,-0.002209,0.000911,0.000104,-20.4,-13.74,-48.54,124.86,0.0753,0.2231,9883
-0.047885,0,9.850046,0.002067,-0.000311,0.000715,-20.34,-13.98,-48.18,124.86,0.0753,0.2231,9893
-0.028731,-0.01676,9.850046,0.002067,-0.000311,0.000715,-20.34,-13.98,-48.18,124.86,0.0753,0.2231,9903
-0.040703,-0.014366,9.876384,-0.000377,-0.001533,0.000715,-20.04,-13.44,-47.76,122.9076,0.0773,0.2258,9913
-0.040703,-0.014366,9.876384,-0.002209,-0.002144,0.000715,-20.04,-13.44,-47.76,122.9076,0.0773,0.2258,9923
-0.05028,-0.01676,9.871595,0.000845,0.0003,-0.001118,-19.5,-13.08,-48.54,122.9076,0.0773,0.2258,9934
-0.03352,-0.011971,9.869201,-0.000377,-0.002144,-0.001729,-19.5,-13.08,-48.54,122.9076,0.0773,0.2258,9943
-0.040703,-0.002394,9.871595,-0.000988,0.0003,-0.000507,-19.8,-13.56,-48.24,124.8617,0.0768,0.2261,9953
-0.059857,-0.004789,9.864412,-0.004042,-0.002754,-0.005394,-19.8,-13.56,-48.24,124.8617,0.0768,0.2261,9965
-0.059857,-0.004789,9.864412,0.002067,-0.002144,0.00438,-20.34,-14.1,-47.52,124.8617,0.0768,0.2261,9974
-0.03352,-0.021548,9.876384,-0.002209,0.000911,0.001326,-20.34,-14.1,-47.52,124.8617,0.0768,0.2261,9984
-0.023943,-0.009577,9.876384,0.000845,-0.000922,-0.001729,-19.8,-13.62,-47.82,124.8697,0.0805,0.2243,9994
-0.031126,-0.007183,9.869201,-0.000988,-0.000922,0.002547,-19.8,-13.62,-47.82,124.8697,0.0805,0.2243,10005
-0.03352,-0.021548,9.883567,0.002067,-0.000922,0.000715,-19.26,-13.5,-47.46,124.8697,0.0805,0.2243,10013
-0.03352,-0.021548,9.883567,-0.000988,-0.002144,0.000104,-19.56,-13.62,-47.64,124.8697,0.0805,0.2243,10024
-0.028731,-0.019154,9.857229,-0.000988,-0.002144,0.000104,-19.56,-13.62,-47.64,124.8697,0.0805,0.2243,10033
-0.031126,-0.011971,9.852441,-0.000988,0.001522,0.000715,-19.92,-13.38,-47.76,122.8963,0.0718,0.2277,10043
-0.052674,-0.009577,9.871595,-0.000988,0.001522,0.000715,-19.92,-13.38,-47.76,122.8963,0.0718,0.2277,10053
-0.023943,-0.004789,9.864412,0.002677,-0.000311,-0.000507,-20.28,-13.5,-47.7,122.8963,0.0718,0.2277,10063
-0.023943,-0.004789,9.864412,-0.001599,0.0003,0.001326,-20.28,-13.5,-47.7,122.8963,0.0718,0.2277,10074
-0.052674,0.011971,9.859624,-0.00282,-0.000922,-0.000507,-20.52,-13.38,-47.58,121.6441,0.0694,0.2258,10083
-0.03352,-0.014366,9.873989,0.001456,0.000911,-0.00234,-20.52,-13.38,-47.58,121.6441,0.0694,0.2258,10093
-0.03352,-0.014366,9.883567,0.002067,-0.000922,-0.001118,-19.98,-12.84,-47.7,121.6441,0.0694,0.2258,10104
-0.031126,0,9.859624,-0.000988,-0.002144,-0.001118,-19.98,-12.84,-47.7,121.6441,0.0694,0.2258,10114
-0.031126,0,9.859624,0.002067,0.001522,0.003158,-19.56,-13.2,-47.76,122.8891,0.0672,0.2272,10124
-0.023943,-0.007183,9.862018,0.002677,0.0003,0.003158,-19.56,-13.2,-47.76,122.8891,0.0672,0.2272,10133
-0.05028,-0.009577,9.888355,-0.001599,-0.002754,-0.00234,-20.1,-12.96,-47.52,122.8891,0.0672,0.2272,10143
-0.035914,-0.011971,9.881172,-0.000988,-0.000311,-0.00234,-20.1,-12.96,-47.52,122.8891,0.0672,0.2272,10153
-0.035914,-0.014366,9.866806,0.002067,0.001522,0.002547,-20.1,-13.02,-47.58,122.9108,0.0762,0.221,10163
-0.035914,-0.014366,9.866806,-0.000377,-0.001533,0.000715,-20.1,-13.02,-47.58,122.9108,0.0762,0.221,10174
-0.038308,-0.004789,9.857229,0.000845,-0.000922,0.001326,-19.74,-13.08,-48.06,122.9108,0.0762,0.221,10183
-0.031126,0.004789,9.859624,0.000234,-0.001533,0.000715,-19.74,-13.08,-48.06,122.9108,0.0762,0.221,10193
-0.040703,0.004789,9.885961,-0.001599,-0.001533,-0.00234,-19.86,-13.08,-48.18,122.9165,0.0773,0.2176,10204
-0.055068,-0.021548,9.881172,-0.001599,-0.001533,-0.00234,-19.86,-13.08,-48.18,122.9165,0.0773,0.2176,10214
-0.031126,-0.014366,9.883567,0.000234,-0.000922,-0.00295,-20.34,-13.8,-48.54,122.9165,0.0773,0.2176,10223
-0.031126,-0.014366,9.883567,-0.000377,0.001522,0.001936,-20.34,-13.8,-48.54,122.9165,0.0773,0.2176,10234
-0.059857,-0.031126,9.869201,-0.000988,-0.001533,0.000104,-20.04,-13.5,-48.66,122.9214,0.0802,0.2156,10243
-0.05028,-0.002394,9.907509,0.001456,0.000911,-0.000507,-20.04,-13.5,-48.66,122.9214,0.0802,0.2156,10253
-0.040703,-0.011971,9.881172,0.000234,0.0003,-0.006616,-19.74,-12.78,-48.42,122.9214,0.0802,0.2156,10263
-0.028731,0,9.878778,-0.000377,0.003354,-0.001118,-19.74,-12.78,-48.42,122.9214,0.0802,0.2156,10274
-0.028731,0,9.878778,0.000845,-0.000311,-0.00234,-20.04,-13.14,-47.88,122.9204,0.0771,0.2137,10283
-0.038308,-0.004789,9.862018,-0.002209,-0.000922,0.000715,-20.16,-13.26,-47.64,122.9204,0.0771,0.2137,10293
-0.040703,-0.019154,9.888355,-0.002209,-0.000922,0.000715,-20.16,-13.26,-47.64,122.9204,0.0771,0.2137,10303
-0.045491,-0.007183,9.878778,-0.000377,0.002743,-0.001729,-20.04,-13.08,-48.42,122.9204,0.0771,0.2137,10314
-0.035914,-0.011971,9.881172,-0.000377,-0.000311,-0.00295,-20.04,-13.08,-48.42,122.9204,0.0771,0.2137,10323
-0.035914,-0.011971,9.881172,0.000234,-0.000311,0.000715,-20.16,-13.26,-48.72,122.8986,0.0674,0.2165,10334
-0.038308,0,9.876384,-0.001599,-0.001533,-0.003561,-20.16,-13.26,-48.72,122.8986,0.0674,0.2165,10343
-0.031126,-0.01676,9.873989,0.003288,0.001522,0.002547,-19.98,-13.92,-47.76,122.8986,0.0674,0.2165,10354
-0.043097,-0.019154,9.876384,0.000234,-0.000311,-0.00234,-19.98,-13.92,-47.76,122.8986,0.0674,0.2165,10364
-0.038308,-0.007183,9.876384,-0.001599,-0.003976,-0.004783,-20.04,-13.8,-47.58,124.8535,0.0655,0.2174,10373
-0.038308,-0.021548,9.878778,-0.000988,0.0003,-0.00295,-20.04,-13.8,-47.58,124.8535,0.0655,0.2174,10383
-0.038308,-0.021548,9.878778,-0.001599,0.000911,-0.000507,-20.46,-13.74,-47.76,124.8535,0.0655,0.2174,10394
-0.023943,-0.019154,9.866806,0.001456,0.000911,0.000104,-20.46,-13.74,-47.76,124.8535,0.0655,0.2174,10403
-0.05028,-0.009577,9.873989,0.000234,0.0003,0.001326,-19.74,-13.02,-47.94,122.9045,0.0686,0.2152,10413
-0.040703,-0.011971,9.862018,0.000845,0.000911,0.003158,-19.74,-13.02,-47.94,122.9045,0.0686,0.2152,10423
-0.038308,-0.002394,9.866806,-0.000377,0.001522,-0.001729,-19.26,-13.02,-48.48,122.9045,0.0686,0.2152,10434
-0.038308,-0.002394,9.866806,0.000234,0.0003,-0.00295,-19.26,-13.02,-48.48,122.9045,0.0686,0.2152,10443
-0.047885,-0.002394,9.881172,-0.000377,-0.000922,-0.001118,-19.56,-13.14,-48.24,122.9095,0.0702,0.2131,10453
-0.035914,-0.023943,9.881172,-0.000988,-0.002754,0.001936,-19.56,-13.14,-48.24,122.9095,0.0702,0.2131,10464
-0.045491,-0.021548,9.873989,-0.000988,-0.002754,-0.001729,-19.26,-13.38,-48.06,122.9095,0.0702,0.2131,10475
-0.040703,-0.011971,9.873989,-0.000988,-0.002754,-0.001729,-19.26,-13.38,-48.06,122.9095,0.0702,0.2131,10483
-0.040703,-0.011971,9.873989,-0.000377,-0.001533,-0.000507,-19.02,-13.74,-47.7,126.226,0.0652,0.2207,10493
-0.047885,-0.01676,9.878778,-0.00282,-0.001533,0.000715,-19.02,-13.74,-47.7,126.226,0.0652,0.2207,10504
-0.040703,-0.026337,9.885961,-0.000377,-0.000311,-0.000507,-19.74,-13.2,-47.04,126.226,0.0652,0.2207,10513
-0.035914,-0.007183,9.873989,-0.002209,-0.001533,-0.001118,-19.74,-13.2,-47.04,126.226,0.0652,0.2207,10524
-0.031126,-0.01676,9.871595,-0.000988,-0.000311,-0.00234,-19.86,-13.38,-47.88,122.9007,0.0697,0.2204,10533
-0.031126,-0.01676,9.871595,-0.001599,0.0003,-0.001729,-19.86,-13.38,-47.88,122.9007,0.0697,0.2204,10543
-0.031126,-0.014366,9.845258,-0.001599,0.0003,-0.000507,-19.92,-13.5,-48.36,122.9007,0.0697,0.2204,10553
-0.031126,-0.011971,9.871595,-0.001599,0.0003,-0.000507,-19.92,-13.5,-48.36,122.9007,0.0697,0.2204,10563
-0.038308,0.004789,9.873989,0.000234,-0.001533,0.000715,-19.86,-13.14,-48.06,122.9031,0.0703,0.2191,10574
-0.031126,-0.01676,9.876384,0.000234,-0.001533,0.000715,-19.86,-13.14,-48.06,122.9031,0.0703,0.2191,10583
-0.031126,-0.01676,9.876384,-0.000988,0.000911,0.003158,-19.5,-13.2,-47.58,122.9031,0.0703,0.2191,10593
-0.040703,-0.002394,9.883567,0.000845,-0.001533,0.000715,-19.5,-13.2,-47.58,122.9031,0.0703,0.2191,10603
-0.028731,-0.011971,9.859624,0.002067,0.0003,0.000715,-19.86,-12.9,-47.76,122.9017,0.0694,0.2191,10613
-0.023943,-0.021548,9.866806,-0.001599,-0.003365,-0.000507,-19.86,-12.9,-47.76,122.9017,0.0694,0.2191,10623
-0.031126,-0.01676,9.864412,-0.000988,-0.000311,-0.00234,-20.04,-13.14,-48.06,122.9017,0.0694,0.2191,10633
-0.031126,-0.01676,9.864412,-0.000377,0.000911,0.000715,-20.04,-13.14,-48.06,122.9017,0.0694,0.2191,10643
-0.047885,-0.023943,9.883567,-0.002209,-0.000311,0.001326,-20.1,-13.5,-47.88,122.9049,0.067,0.2124,10653
-0.035914,0.002394,9.871595,0.000234,-0.001533,-0.001118,-20.1,-13.5,-47.88,122.9049,0.067,0.2124,10663
-0.045491,0.004789,9.852441,0.000234,-0.002144,0.000104,-20.76,-13.32,-47.28,122.9049,0.067,0.2124,10674
-0.047885,-0.021548,9.866806,0.000845,0.000911,0.000104,-20.76,-13.32,-47.28,122.9049,0.067,0.2124,10683
-0.047885,-0.021548,9.866806,-0.001599,-0.000922,-0.000507,-20.94,-13.44,-47.22,121.6583,0.0678,0.2113,10693
-0.045491,0.002394,9.866806,-0.000377,0.000911,0.002547,-20.94,-13.44,-47.22,121.6583,0.0678,0.2113,10704
-0.035914,-0.028731,9.895537,0.000234,0.002743,0.000715,-20.28,-13.5,-47.94,121.6583,0.0678,0.2113,10713
-0.035914,-0.019154,9.881172,0.000283,0.002811,0.000173,-20.28,-13.5,-47.94,121.6583,0.0678,0.2113,10724
-0.052674,-0.007183,9.869201,-0.000939,0.001589,0.000784,-20.1,-13.92,-48.36,124.8647,0.068,0.2109,10734
-0.052674,-0.007183,9.869201,-0.002161,0.001589,0.000173,-20.1,-13.92,-48.36,124.8647,0.068,0.2109,10744
-0.038308,-0.014366,9.857229,-0.000328,0.000978,-0.000437,-20.04,-13.92,-48.42,124.8647,0.068,0.2109,10753
-0.038308,-0.004789,9.866806,-0.00155,-0.003909,-0.004713,-20.04,-13.92,-48.42,124.8647,0.068,0.2109,10763
-0.045491,-0.011971,9.885961,0.000894,0.001589,-0.00227,-19.62,-13.56,-48.48,124.8677,0.0695,0.2104,10773
-0.05028,-0.007183,9.869201,0.000283,-0.000855,0.000173,-19.62,-13.56,-48.48,124.8677,0.0695,0.2104,10783
-0.05028,-0.007183,9.869201,0.000283,-0.002687,0.000173,-19.92,-13.56,-48.72,124.8677,0.0695,0.2104,10794
-0.045491,-0.028731,9.878778,0.000283,-0.000855,0.000784,-19.92,-13.56,-48.72,124.8677,0.0695,0.2104,10803
-0.045491,-0.014366,9.869201,0.000894,0.003421,0.003228,-19.98,-13.62,-48.3,124.8658,0.0686,0.2108,10814
-0.023943,-0.002394,9.890749,-0.00155,0.001589,-0.001659,-19.98,-13.62,-48.3,124.8658,0.0686,0.2108,10823
-0.023943,-0.002394,9.890749,-0.00155,0.001589,-0.001659,-19.92,-13.56,-48.3,124.8658,0.0686,0.2108,10833
-0.03352,-0.01676,9.873989,-0.00155,-0.000855,0.002006,-19.92,-13.56,-48.3,124.8658,0.0686,0.2108,10843
-0.05028,0,9.862018,-0.00155,-0.000855,0.002006,-20.28,-13.2,-48.66,122.9045,0.069,0.2136,10854
-0.023943,-0.01676,9.866806,-0.002771,-0.000244,-0.001659,-20.28,-13.2,-48.66,122.9045,0.069,0.2136,10864
-0.023943,-0.028731,9.854836,0.002115,0.000978,-0.001048,-20.34,-13.02,-48.42,122.9045,0.069,0.2136,10873
-0.040703,-0.011971,9.873989,-0.000939,-0.000244,0.003228,-20.34,-13.02,-48.42,122.9045,0.069,0.2136,10883
-0.040703,-0.011971,9.873989,0.001505,0.002811,-0.000437,-20.28,-13.38,-48.36,122.9056,0.068,0.2133,10894
-0.035914,0.007183,9.871595,0.000283,0.001589,0.002617,-20.28,-13.38,-48.36,122.9056,0.068,0.2133,10903
-0.031126,-0.007183,9.866806,-0.002161,0.000978,0.002617,-20.46,-13.38,-48.24,122.9056,0.068,0.2133,10913
-0.052674,-0.011971,9.866806,0.000283,-0.003909,-0.001048,-20.46,-13.38,-48.24,122.9056,0.068,0.2133,10926
-0.043097,-0.019154,9.871595,-0.000939,-0.000855,-0.001659,-20.16,-13.08,-48.24,122.9093,0.0688,0.2111,10934
-0.043097,-0.019154,9.871595,0.000894,0.000367,0.001395,-20.16,-13.08,-48.24,122.9093,0.0688,0.2111,10943
-0.031126,-0.002394,9.869201,0.001505,-0.000855,0.000784,-19.92,-13.2,-48.54,122.9093,0.0688,0.2111,10953
-0.047885,0,9.873989,0.000283,0.001589,0.000784,-19.92,-13.2,-48.54,122.9093,0.0688,0.2111,10963
-0.045491,-0.002394,9.876384,0.000283,0.001589,0.000784,-20.04,-13.2,-48.48,122.901,0.0676,0.2168,10973
-0.047885,-0.009577,9.878778,-0.000328,-0.000855,-0.001048,-20.04,-13.2,-48.48,122.901,0.0676,0.2168,10983
-0.047885,-0.009577,9.878778,0.000894,-0.000244,-0.001659,-19.8,-13.32,-47.88,122.901,0.0676,0.2168,10993
-0.05028,-0.019154,9.869201,-0.000939,-0.000244,0.000173,-19.8,-13.32,-47.88,122.901,0.0676,0.2168,11003
-0.031126,-0.014366,9.862018,0.002726,0.002811,0.000173,-19.8,-12.84,-47.88,122.8721,0.0589,0.2301,11014
-0.026337,-0.014366,9.878778,-0.00155,-0.001465,-0.001659,-19.8,-12.84,-47.88,122.8721,0.0589,0.2301,11023
-0.026337,-0.014366,9.878778,-0.000939,-0.000855,-0.001048,-20.04,-12.96,-48.12,122.8721,0.0589,0.2301,11033
-0.040703,-0.009577,9.869201,-0.000328,0.000367,-0.001659,-20.04,-13.62,-48.3,122.8721,0.0589,0.2301,11044
-0.031126,-0.014366,9.873989,0.002115,-0.000855,-0.001659,-20.04,-13.62,-48.3,122.8721,0.0589,0.2301,11053
-0.045491,-0.002394,9.866806,0.000894,-0.000244,0.002617,-19.62,-13.86,-48.48,124.8238,0.0564,0.231,11063
-0.045491,-0.002394,9.866806,0.002115,-0.000244,-0.000437,-19.62,-13.86,-48.48,124.8238,0.0564,0.231,11073
-0.038308,-0.014366,9.873989,-0.003993,-0.002076,-0.004103,-19.86,-13.74,-48.12,124.8238,0.0564,0.231,11083
-0.038308,-0.011971,9.878778,-0.002771,0.000367,-0.001048,-20.16,-14.04,-47.52,124.8238,0.0564,0.231,11093
-0.014366,-0.009577,9.873989,0.001505,-0.000244,0.000173,-20.16,-14.04,-47.52,124.8238,0.0564,0.231,11104
-0.045491,0,9.883567,0.000283,0.001589,0.000173,-20.58,-13.8,-47.4,123.5533,0.0594,0.2225,11114
-0.045491,0,9.883567,-0.002161,0.000367,-0.001659,-20.58,-13.8,-47.4,123.5533,0.0594,0.2225,11123
-0.023943,0.002394,9.862018,-0.000328,0.000367,-0.00227,-20.34,-13.5,-47.46,123.5533,0.0594,0.2225,11133
-0.035914,-0.021548,9.871595,-0.003993,-0.000244,-0.000437,-19.98,-13.44,-47.52,123.5533,0.0594,0.2225,11143
-0.028731,-0.007183,9.883567,0.002115,0.001589,0.002617,-19.98,-13.44,-47.52,123.5533,0.0594,0.2225,11153
-0.035914,-0.019154,9.881172,0.000894,0.000367,-0.000437,-20.4,-13.98,-48.3,124.8427,0.0593,0.2182,11164
-0.035914,-0.019154,9.881172,0.000894,0.000367,-0.000437,-20.4,-13.98,-48.3,124.8427,0.0593,0.2182,11174
-0.047885,-0.011971,9.871595,-0.000328,-0.001465,0.001395,-19.92,-13.56,-48.6,124.8427,0.0593,0.2182,11184
-0.03352,-0.014366,9.878778,-0.000939,-0.000855,0.001395,-19.92,-13.56,-48.6,124.8427,0.0593,0.2182,11193
-0.040703,-0.011971,9.869201,0.000894,-0.000244,0.000173,-19.14,-13.26,-47.88,124.227,0.0579,0.2159,11204
-0.040703,-0.011971,9.869201,0.000894,-0.002687,0.003228,-19.14,-13.26,-47.88,124.227,0.0579,0.2159,11214
-0.038308,-0.004789,9.878778,-0.00155,-0.003298,-0.000437,-19.92,-13.08,-47.58,124.227,0.0579,0.2159,11223
-0.026337,-0.007183,9.869201,0.001505,0.001589,0.000784,-19.92,-13.08,-47.58,124.227,0.0579,0.2159,11233
-0.031126,-0.01676,9.883567,0.001505,-0.000244,-0.001048,-20.76,-13.32,-47.64,121.6348,0.0579,0.2164,11243
-0.031126,-0.01676,9.883567,-0.000328,0.0022,0.003228,-20.76,-13.32,-47.64,121.6348,0.0579,0.2164,11253
-0.047885,-0.004789,9.866806,-0.002771,-0.001465,-0.001048,-20.4,-13.5,-47.58,121.6348,0.0579,0.2164,11264
-0.047885,-0.004789,9.871595,-0.000939,0.000978,-0.000437,-20.4,-13.5,-47.58,121.6348,0.0579,0.2164,11274
-0.026337,-0.014366,9.864412,0.000894,-0.000855,0.001395,-19.5,-13.56,-47.34,126.2206,0.0565,0.2163,11284
-0.035914,0,9.881172,0.000894,-0.000244,0.002006,-19.44,-13.92,-47.16,126.2206,0.0565,0.2163,11293
-0.047885,-0.021548,9.859624,0.000894,0.003421,-0.001659,-19.44,-13.92,-47.16,126.2206,0.0565,0.2163,11304
-0.047885,-0.021548,9.859624,-0.000939,0.000367,-0.000437,-18.9,-13.62,-47.76,126.2206,0.0565,0.2163,11313
-0.043097,-0.026337,9.864412,-0.00155,-0.000244,0.000173,-18.9,-13.62,-47.76,126.2206,0.0565,0.2163,11323
-0.028731,-0.009577,9.864412,0.001505,0.002811,-0.00227,-19.38,-13.32,-48.3,124.2398,0.0602,0.2083,11333
-0.064645,-0.009577,9.871595,-0.000328,0.000367,-0.003492,-19.38,-13.32,-48.3,124.2398,0.0602,0.2083,11345
-0.03352,-0.007183,9.864412,0.000894,0.002811,0.000173,-20.22,-13.74,-47.52,124.2398,0.0602,0.2083,11353
-0.03352,-0.007183,9.864412,-0.000939,-0.000244,-0.001048,-20.22,-13.74,-47.52,124.2398,0.0602,0.2083,11364
-0.035914,-0.009577,9.869201,0.000894,0.000978,0.000784,-20.82,-14.04,-47.1,123.5786,0.0648,0.2057,11373
-0.035914,-0.004789,9.883567,-0.00155,0.003421,-0.001048,-20.82,-14.04,-47.1,123.5786,0.0648,0.2057,11384
-0.045491,0.007183,9.883567,0.000894,0.000978,0.003228,-20.22,-13.86,-47.22,123.5786,0.0648,0.2057,11394
-0.045491,0.007183,9.883567,0.000283,0.0022,-0.00227,-20.22,-13.86,-47.22,123.5786,0.0648,0.2057,11403
-0.040703,-0.011971,9.878778,0.000283,0.0022,-0.00227,-19.92,-13.38,-48.24,122.9076,0.068,0.2114,11413
-0.043097,-0.011971,9.857229,0.000894,0.000978,0.000784,-19.92,-13.38,-48.24,122.9076,0.068,0.2114,11424
-0.03352,0.004789,9.859624,0.000283,-0.002076,0.000173,-20.52,-12.96,-48.78,122.9076,0.068,0.2114,11433
-0.03352,0.004789,9.859624,0.000283,-0.002076,0.000173,-20.52,-12.96,-48.78,122.9076,0.068,0.2114,11443
-0.035914,-0.011971,9.876384,-0.000939,-0.001465,0.002006,-20.7,-13.14,-48.12,121.6402,0.0668,0.2254,11453
