ACCELEROMETER X (m/s²),ACCELEROMETER Y (m/s²),ACCELEROMETER Z (m/s²),GRAVITY X (m/s²),GRAVITY Y (m/s²),GRAVITY Z (m/s²),GYROSCOPE X (rad/s),GYROSCOPE Y (rad/s),GYROSCOPE Z (rad/s),MAGNETIC FIELD X (μT),MAGNETIC FIELD Y (μT),MAGNETIC FIELD Z (μT),ORIENTATION Z (azimuth °),ORIENTATION X (pitch °),ORIENTATION Y (roll °),ATMOSPHERIC PRESSURE (hPa),LOCATION Latitude : ,LOCATION Longitude : ,LOCATION Altitude ( m),LOCATION Altitude-google ( m),LOCATION Altitude-atmospheric pressure ( m),LOCATION Speed ( m/s),LOCATION Accuracy ( m),LOCATION ORIENTATION (°),Satellites in range,GPS NMEA,Time since start in ms ,YYYY-MO-DD HH-MI-SS_SSS
0.064645,0.01676,9.615408,0.172987,0.170048,9.803649,0.249638,-0.422785,-0.184805,-1957.98,-1937.82,1858.74,134.7668,-0.6268,-0.4967,984.8218,55.855846,37.484257,176.3944,NaN,,0.7513,2.0,269.3348,27 / 28,,24,2021-05-20 21:44:23:249
0.260976,0.064645,9.390346,0.172987,0.170048,9.803649,0.172058,-0.399572,-0.220846,-1957.98,-1937.82,1858.74,134.7668,-0.6268,-0.4967,984.8218,55.855846,37.484257,176.3944,NaN,,0.7513,2.0,269.3348,27 / 28,,35,2021-05-20 21:44:23:260
0.699128,0.102954,9.387952,0.253729,0.214441,9.801022,0.034003,-0.331155,-0.291706,-1957.86,-1938.18,1858.98,134.7668,-0.6268,-0.4967,984.8218,55.855846,37.484257,176.3944,NaN,,0.7513,2.0,269.3348,27 / 28,,45,2021-05-20 21:44:23:270
0.699128,0.102954,9.387952,0.253729,0.214441,9.801022,-0.114438,-0.274344,-0.368675,-1957.86,-1938.18,1858.98,134.7668,-0.6268,-0.4967,984.8218,55.855846,37.484257,176.3944,NaN,,0.7513,2.0,269.3348,27 / 28,,54,2021-05-20 21:44:23:279
0.871516,0.035914,9.134158,0.314904,0.218507,9.799157,-0.251271,-0.290838,-0.443201,-1957.8,-1938.42,1859.22,134.5916,-1.253,-1.4829,984.8218,55.855846,37.484257,176.3944,NaN,,0.7513,2.0,269.3348,27 / 28,,64,2021-05-20 21:44:23:289
0.735042,0.141262,9.227535,0.314904,0.218507,9.799157,-0.347788,-0.301833,-0.538496,-1957.8,-1938.42,1859.22,134.5916,-1.253,-1.4829,984.8218,55.855846,37.484257,176.3944,NaN,,0.7513,2.0,269.3348,27 / 28,,74,2021-05-20 21:44:23:299
0.232245,0.28013,9.665688,0.36841,0.172965,9.798201,-0.363671,-0.287783,-0.638678,-1958.64,-1938.42,1859.22,134.5916,-1.253,-1.4829,984.8218,55.855846,37.484257,176.3944,NaN,,0.7513,2.0,269.3348,27 / 28,,84,2021-05-20 21:44:23:309
-0.732648,0.52674,10.668888,0.36841,0.172965,9.798201,-0.363671,-0.287783,-0.638678,-1958.64,-1938.42,1859.22,134.5916,-1.253,-1.4829,984.8218,55.855846,37.484257,176.3944,NaN,,0.7513,2.0,269.3348,27 / 28,,94,2021-05-20 21:44:23:319
-0.732648,0.52674,10.668888,0.422729,0.10968,9.796921,-0.174913,-0.196154,-0.614243,-1959.36,-1938.18,1859.22,134.1643,-1.0106,-2.1533,984.8218,55.855846,37.484257,176.3944,NaN,,0.7513,2.0,269.3348,27 / 28,,104,2021-05-20 21:44:23:329
-0.842785,0.605752,11.207601,0.422729,0.10968,9.796921,0.082872,-0.120406,-0.520781,-1959.36,-1938.18,1859.22,134.1643,-1.0106,-2.1533,984.8218,55.855846,37.484257,176.3944,NaN,,0.7513,2.0,269.3348,27 / 28,,114,2021-05-20 21:44:23:339
-0.440547,0.299284,11.066339,0.449134,0.117797,9.795651,0.336381,-0.132624,-0.432816,-1959.66,-1937.88,1858.26,134.1643,-1.0106,-2.1533,984.8218,55.855846,37.484257,176.3944,NaN,,0.7513,2.0,269.3348,27 / 28,,124,2021-05-20 21:44:23:349
0.196331,0.007183,10.582695,0.449134,0.117797,9.795651,0.477491,-0.10208,-0.387612,-1959.66,-1937.88,1858.26,134.1643,-1.0106,-2.1533,984.8218,55.855846,37.484257,176.3944,NaN,,0.7513,2.0,269.3348,27 / 28,,134,2021-05-20 21:44:23:359
0.232245,0.105348,9.907509,0.469911,0.203518,9.793271,0.470771,0.013984,-0.332634,-1959.84,-1937.5198,1857.96,133.7981,-0.6882,-2.6252,984.8218,55.855846,37.484257,176.3944,NaN,,0.7513,2.0,269.3348,27 / 28,,144,2021-05-20 21:44:23:369
0.110137,0.378295,9.385557,0.469911,0.203518,9.793271,0.322942,0.159981,-0.261774,-1959.84,-1937.5198,1857.96,133.7981,-0.6882,-2.6252,984.8218,55.855846,37.484257,176.3944,NaN,,0.7513,2.0,269.3348,27 / 28,,155,2021-05-20 21:44:23:380
0.110137,0.378295,9.385557,0.450539,0.283861,9.792181,0.135406,0.295593,-0.214737,-1960.08,-1937.7,1858.74,133.7981,-0.6882,-2.6252,984.8125,55.855846,37.484257,176.3944,NaN,,0.7513,2.0,269.3348,27 / 28,,165,2021-05-20 21:44:23:390
0.043097,0.409421,9.076695,0.450539,0.283861,9.792181,-0.046632,0.387833,-0.156705,-1960.08,-1937.7,1858.74,133.7981,-0.6882,-2.6252,984.8125,55.855846,37.484257,176.3944,NaN,,0.7513,2.0,269.3348,27 / 28,,174,2021-05-20 21:44:23:399
0.249005,0.351958,8.992896,0.381769,0.29404,9.794804,-0.228059,0.40677,-0.088288,-1959.66,-1938.48,1858.5,134.2179,-1.6587,-2.6343,984.8125,55.855846,37.484257,176.3944,NaN,,0.7513,2.0,269.3348,27 / 28,,185,2021-05-20 21:44:23:410
0.36393,0.385478,9.220352,0.381769,0.29404,9.794804,-0.276928,0.352403,-0.071795,-1959.66,-1938.48,1858.5,134.2179,-1.6587,-2.6343,984.8125,55.855846,37.484257,176.3944,NaN,,0.7513,2.0,269.3348,27 / 28,,194,2021-05-20 21:44:23:419
0.36393,0.385478,9.220352,0.305669,0.247823,9.798752,-0.255548,0.249778,-0.068741,-1958.82,-1938.84,1858.0198,134.2179,-1.6587,-2.6343,984.8125,55.855846,37.484257,176.3944,NaN,,0.7513,2.0,269.3348,27 / 28,,204,2021-05-20 21:44:23:429
0.36393,0.311256,9.60583,0.305669,0.247823,9.798752,-0.149868,0.164868,-0.048582,-1958.82,-1938.84,1858.0198,134.2179,-1.6587,-2.6343,984.8125,55.855846,37.484257,176.3944,NaN,,0.7513,2.0,269.3348,27 / 28,,214,2021-05-20 21:44:23:439
0.129291,0.148445,10.13736,0.260214,0.202612,9.801104,-0.083894,0.172198,-0.005822,-1958.28,-1938.36,1858.32,134.5384,-1.4481,-1.7867,984.8125,55.855846,37.484257,176.3944,NaN,,0.7513,2.0,269.3348,27 / 28,,224,2021-05-20 21:44:23:449
0.268159,0.438152,9.998491,0.260214,0.202612,9.801104,-0.018532,0.225954,0.032663,-1958.28,-1938.36,1858.32,134.5384,-1.4481,-1.7867,984.8125,55.855846,37.484257,176.3944,NaN,,0.7513,2.0,269.3348,27 / 28,,234,2021-05-20 21:44:23:459
0.328016,0.117319,9.591465,0.223641,0.190355,9.802252,-0.039301,0.261384,0.049767,-1958.16,-1938.3,1858.92,134.5384,-1.4481,-1.7867,984.8125,55.855846,37.484257,176.3944,NaN,,0.7513,2.0,269.3348,27 / 28,,244,2021-05-20 21:44:23:469
0.328016,0.117319,9.591465,0.223641,0.190355,9.802252,-0.110772,0.263828,0.096804,-1958.16,-1938.3,1858.92,134.5384,-1.4481,-1.7867,984.8125,55.855846,37.484257,176.3944,NaN,,0.7513,2.0,269.3348,27 / 28,,254,2021-05-20 21:44:23:479
0.275342,0.035914,9.373586,0.172856,0.179806,9.803477,-0.175524,0.233895,0.140786,-1957.56,-1938.06,1859.58,134.6099,-1.1122,-1.307,984.8049,55.855846,37.484257,176.3944,NaN,,0.7513,2.0,269.3348,27 / 28,,264,2021-05-20 21:44:23:489
0.064645,0.215485,9.627379,0.172856,0.179806,9.803477,-0.1798,0.214348,0.146895,-1957.56,-1938.06,1859.58,134.6099,-1.1122,-1.307,984.8049,55.855846,37.484257,176.3944,NaN,,0.7513,2.0,269.3348,27 / 28,,274,2021-05-20 21:44:23:499
0.047885,0.435758,9.766247,0.126689,0.146628,9.804735,-0.160253,0.169755,0.117573,-1957.2,-1937.58,1859.58,134.6099,-1.1122,-1.307,984.8049,55.855846,37.484257,176.3944,NaN,,0.7513,2.0,269.3348,27 / 28,,285,2021-05-20 21:44:23:510
0.023943,0.428575,9.608225,0.126689,0.146628,9.804735,-0.112605,0.038419,0.071147,-1957.2,-1937.58,1859.58,134.6099,-1.1122,-1.307,984.8049,55.855846,37.484257,176.3944,NaN,,0.7513,2.0,269.3348,27 / 28,,295,2021-05-20 21:44:23:520
-0.055068,0.292102,9.58907,0.093435,0.11475,9.805533,-0.112605,0.038419,0.071147,-1957.32,-1937.5198,1858.92,134.7727,-0.8567,-0.7403,984.8049,55.855846,37.484257,176.3944,NaN,,0.7513,2.0,269.3348,27 / 28,,304,2021-05-20 21:44:23:529
-0.055068,0.292102,9.58907,0.093435,0.11475,9.805533,-0.076564,-0.069094,0.046102,-1957.32,-1937.5198,1858.92,134.7727,-0.8567,-0.7403,984.8049,55.855846,37.484257,176.3944,NaN,,0.7513,2.0,269.3348,27 / 28,,314,2021-05-20 21:44:23:539
-0.126897,0.146051,9.505271,0.099465,0.097827,9.805657,-0.071066,-0.105746,0.052822,-1957.5,-1937.46,1858.56,134.7727,-0.8567,-0.7403,984.8049,55.855846,37.484257,176.3944,NaN,,0.7513,2.0,269.3348,27 / 28,,324,2021-05-20 21:44:23:549
0.007183,0.009577,9.818921,0.099465,0.097827,9.805657,-0.092447,-0.070315,0.099858,-1957.5,-1937.46,1858.56,134.7727,-0.8567,-0.7403,984.8049,55.855846,37.484257,176.3944,NaN,,0.7513,2.0,269.3348,27 / 28,,334,2021-05-20 21:44:23:559
0.007183,0.009577,9.818921,0.118045,0.082453,9.805593,-0.064347,-0.040994,0.130401,-1957.86,-1937.1,1858.92,134.6866,-0.5716,-0.5812,984.8049,55.855846,37.484257,176.3944,NaN,,0.7513,2.0,269.3348,27 / 28,,344,2021-05-20 21:44:23:569
0.047885,-0.038308,9.998491,0.118045,0.082453,9.805593,0.01812,-0.095972,0.162777,-1957.86,-1937.1,1858.92,134.6866,-0.5716,-0.5812,984.8049,55.855846,37.484257,176.3944,NaN,,0.7513,2.0,269.3348,27 / 28,,355,2021-05-20 21:44:23:580
0.074223,0.026337,10.187639,0.128768,0.072162,9.805539,0.172058,-0.238303,0.189044,-1957.98,-1937.04,1858.98,134.6866,-0.5716,-0.5812,984.8049,55.855846,37.484257,176.3944,NaN,,0.7513,2.0,269.3348,27 / 28,,364,2021-05-20 21:44:23:589
0.277736,0.241822,10.235525,0.128768,0.072162,9.805539,0.172058,-0.238303,0.189044,-1957.98,-1937.04,1858.98,134.6866,-0.5716,-0.5812,984.8049,55.855846,37.484257,176.3944,NaN,,0.7513,2.0,269.3348,27 / 28,,374,2021-05-20 21:44:23:599
0.277736,0.241822,10.235525,0.172424,0.102146,9.804602,0.297286,-0.353757,0.148117,-1958.1,-1937.28,1858.8,134.5366,-0.4216,-0.7524,984.8049,55.855846,37.484257,176.3944,NaN,,0.7513,2.0,269.3348,27 / 28,,384,2021-05-20 21:44:23:609
0.392661,0.275342,10.166091,0.172424,0.102146,9.804602,0.291177,-0.374526,0.077867,-1958.1,-1937.28,1858.8,134.5366,-0.4216,-0.7524,984.8049,55.855846,37.484257,176.3944,NaN,,0.7513,2.0,269.3348,27 / 28,,395,2021-05-20 21:44:23:620
0.371113,0.198725,9.670476,0.244217,0.163652,9.802243,0.291177,-0.374526,0.077867,-1958.34,-1937.76,1859.04,134.5366,-0.4216,-0.7524,984.8049,55.855846,37.484257,176.3944,NaN,,0.7513,2.0,269.3348,27 / 28,,404,2021-05-20 21:44:23:629
0.201119,0.21309,9.593859,0.244217,0.163652,9.802243,0.216651,-0.378192,0.078478,-1958.34,-1937.76,1859.04,134.5366,-0.4216,-0.7524,984.8049,55.855846,37.484257,176.3944,NaN,,0.7513,2.0,269.3348,27 / 28,,414,2021-05-20 21:44:23:639
0.222668,0.462095,9.617802,0.317411,0.209209,9.799279,0.10303,-0.285951,0.088252,-1958.7,-1937.7,1859.22,134.4698,-0.9562,-1.4272,984.8049,55.855846,37.484257,176.3944,NaN,,0.7513,2.0,269.3348,27 / 28,,424,2021-05-20 21:44:23:649
0.222668,0.462095,9.617802,0.317411,0.209209,9.799279,-0.057016,-0.092307,0.088863,-1958.7,-1937.7,1859.22,134.4698,-0.9562,-1.4272,984.8049,55.855846,37.484257,176.3944,NaN,,0.7513,2.0,269.3348,27 / 28,,435,2021-05-20 21:44:23:660
0.138868,0.452518,9.80695,0.351399,0.209802,9.798106,-0.140705,0.05369,0.085808,-1958.94,-1938.12,1859.1,134.4698,-0.9562,-1.4272,984.8049,55.855846,37.484257,176.3944,NaN,,0.7513,2.0,269.3348,27 / 28,,444,2021-05-20 21:44:23:669
0.237033,0.38069,9.828498,0.351399,0.209802,9.798106,-0.163918,0.10989,0.101691,-1958.94,-1938.12,1859.1,134.4698,-0.9562,-1.4272,984.8049,55.855846,37.484257,176.3944,NaN,,0.7513,2.0,269.3348,27 / 28,,454,2021-05-20 21:44:23:679
0.387873,0.423787,10.024829,0.335412,0.179498,9.799269,-0.137651,0.135546,0.0797,-1959.06,-1938.54,1858.92,134.3188,-1.2259,-2.054,984.813,55.855846,37.484257,176.3944,NaN,,0.7513,2.0,269.3348,27 / 28,,464,2021-05-20 21:44:23:689
0.275342,0.220273,10.192428,0.335412,0.179498,9.799269,-0.058849,0.07507,0.032663,-1959.06,-1938.54,1858.92,134.3188,-1.2259,-2.054,984.813,55.855846,37.484257,176.3944,NaN,,0.7513,2.0,269.3348,27 / 28,,474,2021-05-20 21:44:23:699
0.275342,0.220273,10.192428,0.314783,0.160196,9.800287,0.064546,-0.009229,-0.007654,-1959.18,-1937.76,1858.62,134.3188,-1.2259,-2.054,984.813,55.855846,37.484257,176.3944,NaN,,0.7513,2.0,269.3348,27 / 28,,484,2021-05-20 21:44:23:709
0.244216,0.186753,10.051166,0.314783,0.160196,9.800287,0.133574,-0.097804,-0.002156,-1959.18,-1937.76,1858.62,134.3188,-1.2259,-2.054,984.813,55.855846,37.484257,176.3944,NaN,,0.7513,2.0,269.3348,27 / 28,,494,2021-05-20 21:44:23:719
0.383084,0.387873,10.029617,0.322953,0.177337,9.799726,0.21604,-0.163778,-0.019871,-1959.12,-1937.28,1858.56,134.2578,-0.936,-1.8397,984.813,55.855846,37.484257,176.3944,NaN,,0.7513,2.0,269.3348,27 / 28,,504,2021-05-20 21:44:23:729
0.265765,0.41421,9.780613,0.322953,0.177337,9.799726,0.242308,-0.157058,-0.02598,-1959.12,-1937.28,1858.56,134.2578,-0.936,-1.8397,984.813,55.855846,37.484257,176.3944,NaN,,0.7513,2.0,269.3348,27 / 28,,515,2021-05-20 21:44:23:740
0.086194,0.320833,9.680053,0.353735,0.221373,9.797768,0.232534,-0.158891,-0.018039,-1959.48,-1937.58,1858.68,134.2578,-0.936,-1.8397,984.813,55.855846,37.484257,176.3944,NaN,,0.7513,2.0,269.3348,27 / 28,,524,2021-05-20 21:44:23:749
0.086194,0.320833,9.680053,0.353735,0.221373,9.797768,0.196493,-0.104524,0.014337,-1959.48,-1937.58,1858.68,134.2578,-0.936,-1.8397,984.813,55.855846,37.484257,176.3944,NaN,,0.7513,2.0,269.3348,27 / 28,,534,2021-05-20 21:44:23:759
0.007183,0.316044,9.617802,0.380862,0.264448,9.795683,0.17328,-0.100248,0.041215,-1959.54,-1938.0,1858.38,134.314,-1.2935,-2.0677,984.813,55.855846,37.484257,176.3944,NaN,,0.7513,2.0,269.3348,27 / 28,,544,2021-05-20 21:44:23:769
0.023943,0.344776,9.517242,0.380862,0.264448,9.795683,0.140293,-0.113687,0.057708,-1959.54,-1938.0,1858.38,134.314,-1.2935,-2.0677,984.813,55.855846,37.484257,176.3944,NaN,,0.7513,2.0,269.3348,27 / 28,,554,2021-05-20 21:44:23:779
0.438152,0.478855,9.58907,0.40038,0.298399,9.793929,0.140293,-0.113687,0.057708,-1958.82,-1938.06,1858.14,134.314,-1.2935,-2.0677,984.8191,55.855846,37.484257,176.3944,NaN,,0.7513,2.0,269.3348,27 / 28,,564,2021-05-20 21:44:23:789
0.665608,0.572232,9.897932,0.40038,0.298399,9.793929,0.084094,-0.109411,0.060152,-1958.82,-1938.06,1858.14,134.314,-1.2935,-2.0677,984.8191,55.855846,37.484257,176.3944,NaN,,0.7513,2.0,269.3348,27 / 28,,574,2021-05-20 21:44:23:799
0.665608,0.572232,9.897932,0.421896,0.316918,9.792444,0.038279,-0.068483,0.040604,-1959.18,-1938.06,1858.08,134.4006,-1.7437,-2.341,984.8191,55.855846,37.484257,176.3944,NaN,,0.7513,2.0,269.3348,27 / 28,,585,2021-05-20 21:44:23:810
0.5435,0.538712,9.823709,0.421896,0.316918,9.792444,0.013844,-0.034274,0.020446,-1959.18,-1938.06,1858.08,134.4006,-1.7437,-2.341,984.8191,55.855846,37.484257,176.3944,NaN,,0.7513,2.0,269.3348,27 / 28,,594,2021-05-20 21:44:23:819
0.5435,0.646454,9.713573,0.431293,0.321613,9.791881,0.010179,-0.040383,0.001509,-1959.72,-1938.42,1858.08,134.4006,-1.7437,-2.341,984.8191,55.855846,37.484257,176.3944,NaN,,0.7513,2.0,269.3348,27 / 28,,605,2021-05-20 21:44:23:830
0.553077,0.624906,9.581888,0.431293,0.321613,9.791881,0.02484,-0.073981,-0.0327,-1959.72,-1938.42,1858.08,134.4006,-1.7437,-2.341,984.8191,55.855846,37.484257,176.3944,NaN,,0.7513,2.0,269.3348,27 / 28,,614,2021-05-20 21:44:23:839
0.553077,0.624906,9.581888,0.442311,0.325482,9.791262,0.036446,-0.121628,-0.064465,-1959.66,-1938.54,1858.26,134.3774,-1.8794,-2.522,984.8191,55.855846,37.48426,176.4263,NaN,,0.0422,2.0,269.3348,27 / 27,,624,2021-05-20 21:44:23:849
0.323227,0.52674,9.766247,0.442311,0.325482,9.791262,0.040722,-0.145452,-0.084623,-1959.66,-1938.54,1858.26,134.3774,-1.8794,-2.522,984.8191,55.855846,37.48426,176.4263,NaN,,0.0422,2.0,269.3348,27 / 27,,634,2021-05-20 21:44:23:859
0.107742,0.237033,9.941029,0.467993,0.334313,9.78977,0.045609,-0.088031,-0.066908,-1959.0,-1938.78,1858.68,134.3774,-1.8794,-2.522,984.8191,55.855846,37.48426,176.4263,NaN,,0.0422,2.0,269.3348,27 / 27,,644,2021-05-20 21:44:23:869
0.122108,0.208302,9.943423,0.467993,0.334313,9.78977,0.043166,-0.037329,-0.031478,-1959.0,-1938.78,1858.68,134.3774,-1.8794,-2.522,984.8191,55.855846,37.48426,176.4263,NaN,,0.0422,2.0,269.3348,27 / 27,,654,2021-05-20 21:44:23:879
0.122108,0.208302,9.943423,0.481818,0.344029,9.788763,0.073098,-0.039161,0.005785,-1958.94,-1939.2,1858.98,134.3263,-1.9536,-2.7369,984.8228,55.855846,37.48426,176.4263,NaN,,0.0422,2.0,269.3348,27 / 27,,664,2021-05-20 21:44:23:889
0.220273,0.351958,10.015251,0.481818,0.344029,9.788763,0.117691,-0.060542,0.027776,-1958.94,-1939.2,1858.98,134.3263,-1.9536,-2.7369,984.8228,55.855846,37.48426,176.4263,NaN,,0.0422,2.0,269.3348,27 / 27,,674,2021-05-20 21:44:23:899
0.28013,0.445335,9.90272,0.489518,0.358465,9.787863,0.148845,-0.088031,0.039993,-1959.96,-1939.14,1858.5,134.3263,-1.9536,-2.7369,984.8228,55.855846,37.48426,176.4263,NaN,,0.0422,2.0,269.3348,27 / 27,,685,2021-05-20 21:44:23:910
0.466884,0.624906,9.651321,0.489518,0.358465,9.787863,0.145791,-0.12285,0.036939,-1959.96,-1939.14,1858.5,134.3263,-1.9536,-2.7369,984.8228,55.855846,37.48426,176.4263,NaN,,0.0422,2.0,269.3348,27 / 27,,694,2021-05-20 21:44:23:919
0.69434,0.699128,9.433443,0.507046,0.386476,9.785904,0.116469,-0.154004,0.013726,-1960.08,-1939.0198,1858.68,134.3155,-2.0948,-2.8631,984.8228,55.855846,37.48426,176.4263,NaN,,0.0422,2.0,269.3348,27 / 27,,704,2021-05-20 21:44:23:929
0.598569,0.6273,9.713573,0.507046,0.386476,9.785904,0.076152,-0.126515,-0.005822,-1960.08,-1939.0198,1858.68,134.3155,-2.0948,-2.8631,984.8228,55.855846,37.48426,176.4263,NaN,,0.0422,2.0,269.3348,27 / 27,,715,2021-05-20 21:44:23:940
0.598569,0.6273,9.713573,0.534896,0.409814,9.783472,0.0395,-0.079478,-0.018039,-1959.54,-1938.84,1858.92,134.3155,-2.0948,-2.8631,984.8228,55.855846,37.48426,176.4263,NaN,,0.0422,2.0,269.3348,27 / 27,,724,2021-05-20 21:44:23:949
0.514769,0.574626,9.993703,0.534896,0.409814,9.783472,0.0395,-0.079478,-0.018039,-1959.54,-1938.84,1858.92,134.3155,-2.0948,-2.8631,984.8228,55.855846,37.48426,176.4263,NaN,,0.0422,2.0,269.3348,27 / 27,,734,2021-05-20 21:44:23:959
0.421392,0.517163,10.118205,0.550722,0.419223,9.782195,0.017509,0.001156,-0.005822,-1959.6,-1939.14,1858.5,134.3219,-2.3951,-3.1294,984.8228,55.855846,37.48426,176.4263,NaN,,0.0422,2.0,269.3348,27 / 27,,744,2021-05-20 21:44:23:969
0.395055,0.483644,9.953,0.550722,0.419223,9.782195,0.002848,0.090953,0.004563,-1959.6,-1939.14,1858.5,134.3219,-2.3951,-3.1294,984.8228,55.855846,37.48426,176.4263,NaN,,0.0422,2.0,269.3348,27 / 27,,754,2021-05-20 21:44:23:979
0.395055,0.483644,9.953,0.540541,0.421725,9.782656,0.011401,0.146542,0.01678,-1959.48,-1939.26,1858.26,134.3219,-2.3951,-3.1294,984.8291,55.855846,37.48426,176.4263,NaN,,0.0422,2.0,269.3348,27 / 27,,764,2021-05-20 21:44:23:989
0.260976,0.615329,9.694419,0.540541,0.421725,9.782656,0.009568,0.197244,0.018613,-1959.48,-1939.26,1858.26,134.3219,-2.3951,-3.1294,984.8291,55.855846,37.48426,176.4263,NaN,,0.0422,2.0,269.3348,27 / 27,,774,2021-05-20 21:44:23:999
0.244216,0.581809,9.304152,0.507196,0.423891,9.784348,-2.06E-4,0.15937,0.032052,-1959.18,-1939.26,1858.08,134.35,-2.4647,-3.1627,984.8291,55.855846,37.48426,176.4263,NaN,,0.0422,2.0,269.3348,27 / 27,,784,2021-05-20 21:44:24:009
0.258582,0.691945,9.368797,0.507196,0.423891,9.784348,0.01079,0.100727,0.032052,-1959.18,-1939.26,1858.08,134.35,-2.4647,-3.1627,984.8291,55.855846,37.48426,176.4263,NaN,,0.0422,2.0,269.3348,27 / 27,,794,2021-05-20 21:44:24:019
0.258582,0.691945,9.368797,0.477577,0.424384,9.785816,0.023618,0.023147,0.00945,-1959.24,-1939.32,1857.48,134.35,-2.4647,-3.1627,984.8291,55.855846,37.48426,176.4263,NaN,,0.0422,2.0,269.3348,27 / 27,,805,2021-05-20 21:44:24:030
0.29689,0.691945,9.562734,0.471225,0.426155,9.786048,0.041944,-0.037329,-0.016817,-1959.36,-1939.38,1857.42,134.35,-2.4647,-3.1627,984.8291,55.855846,37.48426,176.4263,NaN,,0.0422,2.0,269.3348,27 / 27,,814,2021-05-20 21:44:24:039
0.392661,0.684763,9.715967,0.471225,0.426155,9.786048,0.059048,-0.077646,-0.032089,-1959.36,-1939.38,1857.42,134.35,-2.4647,-3.1627,984.8291,55.855846,37.48426,176.4263,NaN,,0.0422,2.0,269.3348,27 / 27,,824,2021-05-20 21:44:24:049
0.311256,0.624906,9.814133,0.476708,0.434528,9.785414,0.059048,-0.077646,-0.032089,-1959.12,-1939.44,1858.2,134.5431,-2.4906,-2.7568,984.8291,55.855846,37.48426,176.4263,NaN,,0.0422,2.0,269.3348,27 / 27,,834,2021-05-20 21:44:24:059
0.251399,0.505192,9.869201,0.476708,0.434528,9.785414,0.048052,-0.075813,-0.036976,-1959.12,-1939.44,1858.2,134.5431,-2.4906,-2.7568,984.8291,55.855846,37.48426,176.4263,NaN,,0.0422,2.0,269.3348,27 / 27,,845,2021-05-20 21:44:24:070
0.251399,0.505192,9.869201,0.490915,0.445739,9.784206,0.021785,-0.044659,-0.022315,-1958.82,-1938.66,1858.68,134.5431,-2.4906,-2.7568,984.8291,55.855846,37.48426,176.4263,NaN,,0.0422,2.0,269.3348,27 / 27,,854,2021-05-20 21:44:24:079
0.306467,0.509981,9.885961,0.490915,0.445739,9.784206,0.001016,-0.012894,0.003952,-1958.82,-1938.66,1858.68,134.5431,-2.4906,-2.7568,984.8218,55.855846,37.48426,176.4263,NaN,,0.0422,2.0,269.3348,27 / 27,,864,2021-05-20 21:44:24:089
0.433364,0.52674,9.945818,0.496127,0.448357,9.783825,-0.021586,0.022536,0.014337,-1959.36,-1938.18,1859.04,134.5241,-2.6051,-2.8724,984.8218,55.855846,37.48426,176.4263,NaN,,0.0422,2.0,269.3348,27 / 27,,875,2021-05-20 21:44:24:100
0.390267,0.498009,10.132571,0.496127,0.448357,9.783825,-0.027084,0.051858,0.014337,-1959.36,-1938.18,1859.04,134.5241,-2.6051,-2.8724,984.8218,55.855846,37.48426,176.4263,NaN,,0.0422,2.0,269.3348,27 / 27,,884,2021-05-20 21:44:24:109
0.337593,0.462095,10.099051,0.488691,0.443708,9.78441,-8.17E-4,0.058577,0.025943,-1959.78,-1938.78,1859.04,134.5241,-2.6051,-2.8724,984.8218,55.855846,37.48426,176.4263,NaN,,0.0422,2.0,269.3348,27 / 27,,894,2021-05-20 21:44:24:119
0.337593,0.462095,10.099051,0.488691,0.443708,9.78441,0.024229,0.071405,0.041215,-1959.78,-1938.78,1859.04,134.5241,-2.6051,-2.8724,984.8218,55.855846,37.48426,176.4263,NaN,,0.0422,2.0,269.3348,27 / 27,,905,2021-05-20 21:44:24:130
0.34717,0.588992,10.00328,0.476005,0.445858,9.784938,0.02545,0.105003,0.041215,-1959.48,-1938.6,1858.2,134.5393,-2.5933,-2.8593,984.8218,55.855846,37.48426,176.4263,NaN,,0.0422,2.0,269.3348,27 / 27,,914,2021-05-20 21:44:24:139
0.34717,0.730254,9.897932,0.476005,0.445858,9.784938,0.035835,0.125161,0.03755,-1959.48,-1938.6,1858.2,134.5393,-2.5933,-2.8593,984.8218,55.855846,37.48426,176.4263,NaN,,0.0422,2.0,269.3348,27 / 27,,924,2021-05-20 21:44:24:149
0.34717,0.730254,9.897932,0.453598,0.451697,9.785735,0.051107,0.120274,0.03083,-1959.54,-1938.42,1858.2,134.5393,-2.5933,-2.8593,984.8218,55.855846,37.48426,176.4263,NaN,,0.0422,2.0,269.3348,27 / 27,,934,2021-05-20 21:44:24:159
0.416604,0.943344,9.510059,0.453598,0.451697,9.785735,0.05355,0.095229,0.007617,-1959.54,-1938.42,1858.2,134.5393,-2.5933,-2.8593,984.8218,55.855846,37.48426,176.4263,NaN,,0.0422,2.0,269.3348,27 / 27,,944,2021-05-20 21:44:24:169
0.392661,0.792505,9.4095,0.432537,0.462131,9.786201,0.034613,0.046971,-0.013763,-1959.6,-1939.14,1858.26,134.6378,-2.64,-2.6539,984.8218,55.855846,37.48426,176.4263,NaN,,0.0422,2.0,269.3348,27 / 27,,954,2021-05-20 21:44:24:179
0.38069,0.684763,9.553157,0.432537,0.462131,9.786201,0.020564,0.017649,-0.013152,-1959.6,-1939.14,1858.26,134.6378,-2.64,-2.6539,984.8245,55.855846,37.48426,176.4263,NaN,,0.0422,2.0,269.3348,27 / 27,,964,2021-05-20 21:44:24:189
0.418998,0.684763,9.763853,0.424549,0.468809,9.786233,0.016898,-0.003731,-0.016206,-1959.48,-1939.44,1858.68,134.6378,-2.64,-2.6539,984.8245,55.855846,37.48426,176.4263,NaN,,0.0422,2.0,269.3348,27 / 27,,974,2021-05-20 21:44:24:199
0.418998,0.684763,9.763853,0.424549,0.468809,9.786233,0.038279,-0.011672,-0.043695,-1959.48,-1939.44,1858.68,134.6378,-2.64,-2.6539,984.8245,55.855846,37.48426,176.4263,NaN,,0.0422,2.0,269.3348,27 / 27,,985,2021-05-20 21:44:24:210
0.536318,0.684763,9.895537,0.425206,0.474029,9.785954,0.055994,-0.023279,-0.063854,-1959.0,-1939.38,1859.28,134.7711,-2.7401,-2.4841,984.8245,55.855846,37.48426,176.4263,NaN,,0.0422,2.0,269.3348,27 / 27,,994,2021-05-20 21:44:24:219
0.435758,0.59378,9.90272,0.425206,0.474029,9.785954,0.055994,-0.023279,-0.063854,-1959.0,-1939.38,1859.28,134.7711,-2.7401,-2.4841,984.8245,55.855846,37.48426,176.4263,NaN,,0.0422,2.0,269.3348,27 / 27,,1004,2021-05-20 21:44:24:229
0.277736,0.584203,9.926663,0.430438,0.486177,9.785129,0.099976,-0.074592,-0.058967,-1958.58,-1938.96,1858.92,134.7711,-2.7401,-2.4841,984.8245,55.855846,37.48426,176.4263,NaN,,0.0422,2.0,269.3348,27 / 27,,1015,2021-05-20 21:44:24:240
0.251399,0.605752,9.718362,0.430438,0.486177,9.785129,0.080428,-0.051379,-0.036365,-1958.58,-1938.96,1858.92,134.7711,-2.7401,-2.4841,984.8245,55.855846,37.48426,176.4263,NaN,,0.0422,2.0,269.3348,27 / 27,,1025,2021-05-20 21:44:24:250
0.251399,0.605752,9.718362,0.444217,0.506118,9.783502,0.080428,-0.051379,-0.036365,-1959.06,-1939.2,1858.5,134.7972,-2.8417,-2.5188,984.8245,55.855846,37.48426,176.4263,NaN,,0.0422,2.0,269.3348,27 / 27,,1034,2021-05-20 21:44:24:259
0.308861,0.61054,9.75667,0.444217,0.506118,9.783502,0.023007,-0.00312,-0.010098,-1959.06,-1939.2,1858.5,134.7972,-2.8417,-2.5188,984.8245,55.855846,37.48426,176.4263,NaN,,0.0422,2.0,269.3348,27 / 27,,1044,2021-05-20 21:44:24:269
0.335198,0.701523,9.914692,0.447768,0.515268,9.782862,-0.00326,0.043305,0.013115,-1959.18,-1939.56,1858.8,134.7972,-2.8417,-2.5188,984.8245,55.855846,37.48426,176.4263,NaN,,0.0422,2.0,269.3348,27 / 27,,1055,2021-05-20 21:44:24:280
0.375901,0.754197,9.833286,0.447768,0.515268,9.782862,0.013233,0.044527,0.021057,-1959.18,-1939.56,1858.8,134.7972,-2.8417,-2.5188,984.8308,55.855846,37.48426,176.4263,NaN,,0.0422,2.0,269.3348,27 / 27,,1064,2021-05-20 21:44:24:289
0.395055,0.723071,9.759064,0.439168,0.516385,9.783194,0.051107,-6.77E-4,0.00945,-1959.24,-1939.44,1859.04,134.8204,-3.0119,-2.6206,984.8308,55.855846,37.48426,176.4263,NaN,,0.0422,2.0,269.3348,27 / 27,,1074,2021-05-20 21:44:24:299
0.395055,0.723071,9.759064,0.439168,0.516385,9.783194,0.098143,-0.061763,-0.003378,-1959.24,-1939.44,1859.04,134.8204,-3.0119,-2.6206,984.8308,55.855846,37.48426,176.4263,NaN,,0.0422,2.0,269.3348,27 / 27,,1084,2021-05-20 21:44:24:309
0.498009,0.811659,9.560339,0.44293,0.52958,9.782318,0.08837,-0.07337,-0.036365,-1959.66,-1938.96,1858.44,134.8204,-3.0119,-2.6206,984.8308,55.855846,37.48426,176.4263,NaN,,0.0422,2.0,269.3348,27 / 27,,1094,2021-05-20 21:44:24:319
0.38069,0.768562,9.474146,0.44293,0.52958,9.782318,0.043776,-0.033664,-0.041252,-1959.66,-1938.96,1858.44,134.8204,-3.0119,-2.6206,984.8308,55.855846,37.48426,176.4263,NaN,,0.0422,2.0,269.3348,27 / 27,,1104,2021-05-20 21:44:24:329
0.220273,0.641666,9.529214,0.455812,0.547504,9.78074,-0.02464,0.01154,-0.026591,-1959.42,-1938.96,1858.62,134.8676,-3.0956,-2.5925,984.8308,55.855846,37.48426,176.4263,NaN,,0.0422,2.0,269.3348,27 / 27,,1115,2021-05-20 21:44:24:340
0.220273,0.641666,9.529214,0.455812,0.547504,9.78074,-0.02464,0.01154,-0.026591,-1959.42,-1938.96,1858.62,134.8676,-3.0956,-2.5925,984.8308,55.855846,37.48426,176.4263,NaN,,0.0422,2.0,269.3348,27 / 27,,1124,2021-05-20 21:44:24:349
0.193936,0.598569,9.73991,0.455652,0.547527,9.780746,-0.053351,0.027423,-0.007043,-1959.3,-1939.92,1858.44,134.8676,-3.0956,-2.5925,984.8308,55.855846,37.48426,176.4263,NaN,,0.0422,2.0,269.3348,27 / 27,,1134,2021-05-20 21:44:24:359
0.220273,0.634483,9.866806,0.455652,0.547527,9.780746,-0.043577,0.02498,8.98E-4,-1959.3,-1939.92,1858.44,134.8676,-3.0956,-2.5925,984.8308,55.855846,37.48426,176.4263,NaN,,0.0422,2.0,269.3348,27 / 27,,1144,2021-05-20 21:44:24:369
0.220273,0.6273,10.012857,0.450522,0.538971,9.781459,-0.015477,0.002988,-0.0046,-1959.24,-1939.8,1858.0198,134.89,-3.2006,-2.6673,984.8308,55.855846,37.48426,176.4263,NaN,,0.0422,2.0,269.3348,27 / 27,,1155,2021-05-20 21:44:24:380
0.181965,0.6273,9.962578,0.450522,0.538971,9.781459,0.019342,-0.015338,-0.003378,-1959.24,-1939.8,1858.0198,134.89,-3.2006,-2.6673,984.821,55.855846,37.48426,176.4263,NaN,,0.0422,2.0,269.3348,27 / 27,,1164,2021-05-20 21:44:24:389
0.193936,0.646454,9.852441,0.45248,0.541239,9.781242,0.052329,-0.034885,0.008228,-1958.88,-1939.26,1858.62,134.89,-3.2006,-2.6673,984.821,55.855846,37.48426,176.4263,NaN,,0.0422,2.0,269.3348,27 / 27,,1175,2021-05-20 21:44:24:400
0.193936,0.646454,9.852441,0.45248,0.541239,9.781242,0.06027,-0.048324,0.017391,-1958.88,-1939.26,1858.62,134.89,-3.2006,-2.6673,984.821,55.855846,37.48426,176.4263,NaN,,0.0422,2.0,269.3348,27 / 27,,1184,2021-05-20 21:44:24:409
0.387873,0.826025,9.771035,0.460359,0.552362,9.780253,0.062102,-0.047103,0.018002,-1959.3,-1939.62,1858.44,134.8836,-3.1638,-2.6486,984.821,55.855846,37.48426,176.4263,NaN,,0.0422,2.0,269.3348,27 / 27,,1194,2021-05-20 21:44:24:419
0.466884,0.849968,9.689631,0.460359,0.552362,9.780253,0.034003,-0.02389,0.007617,-1959.3,-1939.62,1858.44,134.8836,-3.1638,-2.6486,984.821,55.855846,37.48426,176.4263,NaN,,0.0422,2.0,269.3348,27 / 27,,1204,2021-05-20 21:44:24:429
0.459701,0.802082,9.711179,0.468254,0.563227,9.779259,-0.013034,0.003599,0.005174,-1959.6,-1939.68,1858.08,134.8836,-3.1638,-2.6486,984.821,55.855846,37.48426,176.4263,NaN,,0.0422,2.0,269.3348,27 / 27,,1215,2021-05-20 21:44:24:440
0.459701,0.802082,9.711179,0.468254,0.563227,9.779259,-0.043577,0.015817,0.003952,-1959.6,-1939.68,1858.08,134.8836,-3.1638,-2.6486,984.821,55.855846,37.48426,176.4263,NaN,,0.0422,2.0,269.3348,27 / 27,,1225,2021-05-20 21:44:24:450
0.407027,0.758985,9.780613,0.46621,0.559818,9.779552,-0.036858,-6.6E-5,0.006396,-1959.24,-1939.44,1858.62,134.8792,-3.2925,-2.7414,984.821,55.855846,37.48426,176.4263,NaN,,0.0422,2.0,269.3348,27 / 27,,1235,2021-05-20 21:44:24:460
0.426181,0.69434,9.950606,0.46621,0.559818,9.779552,-0.009369,-0.015948,0.008228,-1959.24,-1939.44,1858.62,134.8792,-3.2925,-2.7414,984.821,55.855846,37.48426,176.4263,NaN,,0.0422,2.0,269.3348,27 / 27,,1244,2021-05-20 21:44:24:469
0.445335,0.739831,9.888355,0.466599,0.554096,9.77986,0.017509,-0.017781,0.010061,-1959.3,-1939.44,1858.92,134.8792,-3.2925,-2.7414,984.821,55.855846,37.48426,176.4263,NaN,,0.0422,2.0,269.3348,27 / 27,,1254,2021-05-20 21:44:24:479
0.452518,0.739831,9.883567,0.466599,0.554096,9.77986,0.037057,-0.01717,0.005785,-1959.3,-1939.44,1858.92,134.8792,-3.2925,-2.7414,984.8242,55.855846,37.48426,176.4263,NaN,,0.0422,2.0,269.3348,27 / 27,,1264,2021-05-20 21:44:24:489
0.452518,0.739831,9.883567,0.469743,0.55822,9.779474,0.044387,0.00421,2.87E-4,-1959.84,-1939.38,1858.8,134.8481,-3.2391,-2.7315,984.8242,55.855846,37.48426,176.4263,NaN,,0.0422,2.0,269.3348,27 / 27,,1274,2021-05-20 21:44:24:499
0.359141,0.778139,9.857229,0.469743,0.55822,9.779474,0.037668,0.023758,0.003341,-1959.84,-1939.38,1858.8,134.8481,-3.2391,-2.7315,984.8242,55.855846,37.48426,176.4263,NaN,,0.0422,2.0,269.3348,27 / 27,,1284,2021-05-20 21:44:24:509
0.318439,0.756591,9.711179,0.468493,0.567177,9.779019,0.02484,0.02498,0.008839,-1959.72,-1939.08,1858.5,134.8481,-3.2391,-2.7315,984.8242,55.855846,37.48426,176.4263,NaN,,0.0422,2.0,269.3348,27 / 27,,1294,2021-05-20 21:44:24:519
0.371113,0.713494,9.754275,0.468493,0.567177,9.779019,0.026061,0.014595,0.013726,-1959.72,-1939.08,1858.5,134.8481,-3.2391,-2.7315,984.8242,55.855846,37.48426,176.4263,NaN,,0.0422,2.0,269.3348,27 / 27,,1305,2021-05-20 21:44:24:530
0.493221,0.775745,9.816526,0.463624,0.572959,9.778914,0.037668,-0.020835,0.005785,-1959.36,-1939.2,1858.8,134.8879,-3.3156,-2.7428,984.8242,55.855846,37.48426,176.4263,NaN,,0.0422,2.0,269.3348,27 / 27,,1314,2021-05-20 21:44:24:539
0.493221,0.775745,9.816526,0.463624,0.572959,9.778914,0.037668,-0.020835,0.005785,-1959.36,-1939.2,1858.8,134.8879,-3.3156,-2.7428,984.8242,55.855846,37.48426,176.4263,NaN,,0.0422,2.0,269.3348,27 / 27,,1324,2021-05-20 21:44:24:549
0.490826,0.790111,9.797373,0.465816,0.58,9.778395,0.06027,-0.055044,-0.002156,-1959.54,-1939.92,1859.4,134.8879,-3.3156,-2.7428,984.8242,55.855846,37.48426,176.4263,NaN,,0.0422,2.0,269.3348,27 / 27,,1334,2021-05-20 21:44:24:559
0.512375,0.814053,9.648928,0.465816,0.58,9.778395,0.079817,-0.091696,-0.0046,-1959.54,-1939.92,1859.4,134.8879,-3.3156,-2.7428,984.8242,55.855846,37.48426,176.4263,NaN,,0.0422,2.0,269.3348,27 / 27,,1344,2021-05-20 21:44:24:569
0.52674,0.876305,9.514848,0.480661,0.594601,9.776799,0.066378,-0.093528,-0.003989,-1959.66,-1939.98,1859.34,134.9253,-3.3907,-2.7274,984.8242,55.855846,37.48426,176.4263,NaN,,0.0422,2.0,269.3348,27 / 27,,1354,2021-05-20 21:44:24:579
0.474066,0.871516,9.646533,0.480661,0.594601,9.776799,0.035835,-0.064207,-0.007654,-1959.66,-1939.98,1859.34,134.9253,-3.3907,-2.7274,984.8118,55.855846,37.48426,176.4263,NaN,,0.0422,2.0,269.3348,27 / 27,,1364,2021-05-20 21:44:24:589
0.474066,0.871516,9.646533,0.495929,0.605021,9.775397,0.016288,-0.02389,-0.016206,-1959.54,-1940.16,1858.62,134.9253,-3.3907,-2.7274,984.8118,55.855846,37.48426,176.4263,NaN,,0.0422,2.0,269.3348,27 / 27,,1374,2021-05-20 21:44:24:599
0.368718,0.768562,9.759064,0.495929,0.605021,9.775397,0.019342,0.013373,-0.013763,-1959.54,-1940.16,1858.62,134.9253,-3.3907,-2.7274,984.8118,55.855846,37.48426,176.4263,NaN,,0.0422,2.0,269.3348,27 / 27,,1384,2021-05-20 21:44:24:609
0.232245,0.682368,9.761458,0.496669,0.609053,9.775109,0.019953,0.03231,-0.003989,-1959.66,-1940.04,1858.38,134.9026,-3.5371,-2.9043,984.8118,55.855846,37.48426,176.4263,NaN,,0.0422,2.0,269.3348,27 / 27,,1395,2021-05-20 21:44:24:620
0.268159,0.679974,9.809344,0.496669,0.609053,9.775109,0.029727,0.045138,0.00945,-1959.66,-1940.04,1858.38,134.9026,-3.5371,-2.9043,984.8118,55.855846,37.48426,176.4263,NaN,,0.0422,2.0,269.3348,27 / 27,,1404,2021-05-20 21:44:24:629
0.339987,0.775745,9.699207,0.488941,0.613832,9.7752,0.037057,0.037197,0.008839,-1959.66,-1939.98,1858.68,134.9026,-3.5371,-2.9043,984.8118,55.855846,37.48426,176.4263,NaN,,0.0422,2.0,269.3348,27 / 27,,1414,2021-05-20 21:44:24:639
0.339987,0.775745,9.699207,0.488941,0.613832,9.7752,0.040111,0.013373,0.004563,-1959.66,-1939.98,1858.68,134.9026,-3.5371,-2.9043,984.8118,55.855846,37.48426,176.4263,NaN,,0.0422,2.0,269.3348,27 / 27,,1424,2021-05-20 21:44:24:649
0.440547,0.806871,9.615408,0.482948,0.62194,9.774985,0.02484,-0.019003,-0.003989,-1959.66,-1940.28,1858.8,134.9421,-3.5887,-2.8635,984.8118,55.855846,37.48426,176.4263,NaN,,0.0422,2.0,269.3348,27 / 27,,1434,2021-05-20 21:44:24:659
0.404632,0.861939,9.658504,0.482948,0.62194,9.774985,0.013233,-0.033664,-0.014985,-1959.66,-1940.28,1858.8,134.9421,-3.5887,-2.8635,984.8118,55.855846,37.48426,176.4263,NaN,,0.0422,2.0,269.3348,27 / 27,,1444,2021-05-20 21:44:24:669
0.402238,0.814053,9.687236,0.487068,0.626495,9.77449,-2.06E-4,-0.035496,-0.019871,-1959.72,-1940.4,1858.62,134.9421,-3.5887,-2.8635,984.8118,55.855846,37.48426,176.4263,NaN,,0.0422,2.0,269.3348,27 / 27,,1454,2021-05-20 21:44:24:679
0.402238,0.814053,9.687236,0.487068,0.626495,9.77449,-0.006925,-0.018392,-0.018039,-1959.72,-1940.4,1858.62,134.9421,-3.5887,-2.8635,984.8145,55.855846,37.48426,176.4263,NaN,,0.0422,2.0,269.3348,27 / 27,,1465,2021-05-20 21:44:24:690
0.371113,0.854756,9.550762,0.492529,0.626827,9.774195,-0.015477,0.01093,-0.013152,-1959.54,-1940.46,1858.44,134.9764,-3.6628,-2.8527,984.8145,55.855846,37.48426,176.4263,NaN,,0.0422,2.0,269.3348,27 / 27,,1474,2021-05-20 21:44:24:699
0.407027,0.794899,9.517242,0.492529,0.626827,9.774195,-0.02403,0.009708,-0.012541,-1959.54,-1940.46,1858.44,134.9764,-3.6628,-2.8527,984.8145,55.855846,37.48426,176.4263,NaN,,0.0422,2.0,269.3348,27 / 27,,1484,2021-05-20 21:44:24:709
0.366324,0.718282,9.737515,0.490468,0.623108,9.774536,-0.04541,0.028034,-0.011319,-1960.08,-1940.16,1858.68,134.9764,-3.6628,-2.8527,984.8145,55.855846,37.48426,176.4263,NaN,,0.0422,2.0,269.3348,27 / 27,,1494,2021-05-20 21:44:24:719
0.34717,0.696734,9.873989,0.490468,0.623108,9.774536,-0.03808,0.042695,-0.0046,-1960.08,-1940.16,1858.68,134.9764,-3.6628,-2.8527,984.8145,55.855846,37.48426,176.4263,NaN,,0.0422,2.0,269.3348,27 / 27,,1504,2021-05-20 21:44:24:729
0.34717,0.696734,9.873989,0.483201,0.614717,9.77543,-0.021586,0.045749,-9.35E-4,-1959.72,-1940.04,1858.62,134.9596,-3.643,-2.8726,984.8145,55.855846,37.48426,176.4263,NaN,,0.0422,2.0,269.3348,27 / 27,,1515,2021-05-20 21:44:24:740
0.33041,0.696734,9.866806,0.483201,0.614717,9.77543,-8.17E-4,0.024369,0.007617,-1959.72,-1940.04,1858.62,134.9596,-3.643,-2.8726,984.8145,55.855846,37.48426,176.4263,NaN,,0.0422,2.0,269.3348,27 / 27,,1524,2021-05-20 21:44:24:749
0.349564,0.797294,9.838076,0.474887,0.611001,9.776071,-0.004482,0.009708,0.001509,-1959.36,-1940.16,1858.5,134.9596,-3.643,-2.8726,984.8145,55.855846,37.48426,176.4263,NaN,,0.0422,2.0,269.3348,27 / 27,,1535,2021-05-20 21:44:24:760
0.337593,0.84039,9.814133,0.474887,0.611001,9.776071,-0.009369,0.01093,-0.003378,-1959.36,-1940.16,1858.5,134.9596,-3.643,-2.8726,984.8145,55.855846,37.48426,176.4263,NaN,,0.0422,2.0,269.3348,27 / 27,,1544,2021-05-20 21:44:24:769
0.337593,0.84039,9.814133,0.472299,0.610731,9.776213,-0.009369,0.01093,-0.003378,-1960.2,-1940.16,1858.5,134.9735,-3.5721,-2.781,984.8145,55.855846,37.48426,176.4263,NaN,,0.0422,2.0,269.3348,27 / 27,,1554,2021-05-20 21:44:24:779
0.308861,0.84039,9.771035,0.472299,0.610731,9.776213,-0.019754,-0.001899,0.005785,-1960.2,-1940.16,1858.5,134.9735,-3.5721,-2.781,984.8157,55.855846,37.48426,176.4263,NaN,,0.0422,2.0,269.3348,27 / 27,,1564,2021-05-20 21:44:24:789
0.325621,0.883487,9.778218,0.449137,0.641177,9.775354,-0.020364,-0.017781,0.008839,-1959.9,-1940.4,1858.92,134.9735,-3.5721,-2.781,984.8157,55.855846,37.48426,176.4263,NaN,,0.0422,2.0,269.3348,27 / 27,,1575,2021-05-20 21:44:24:800
0.418998,0.914613,9.675264,0.449137,0.641177,9.775354,-0.004482,-0.033664,0.006396,-1959.9,-1940.4,1858.92,134.9735,-3.5721,-2.781,984.8157,55.855846,37.48426,176.4263,NaN,,0.0422,2.0,269.3348,27 / 27,,1584,2021-05-20 21:44:24:809
0.452518,0.849968,9.670476,0.434678,0.672319,9.773915,0.001627,-0.050768,0.005174,-1959.24,-1940.46,1858.92,135.1278,-3.7488,-2.6307,984.8157,55.855846,37.48426,176.4263,NaN,,0.0422,2.0,269.3348,27 / 27,,1594,2021-05-20 21:44:24:819
0.452518,0.768562,9.759064,0.434678,0.672319,9.773915,-0.026473,-0.020225,0.004563,-1959.24,-1940.46,1858.92,135.1278,-3.7488,-2.6307,984.8157,55.855846,37.48426,176.4263,NaN,,0.0422,2.0,269.3348,27 / 27,,1604,2021-05-20 21:44:24:829
0.452518,0.768562,9.759064,0.429733,0.701511,9.772082,-0.047242,0.006043,0.007617,-1959.36,-1939.98,1858.38,135.1278,-3.7488,-2.6307,984.8157,55.855846,37.48426,176.4263,NaN,,0.0422,2.0,269.3348,27 / 27,,1614,2021-05-20 21:44:24:839
0.462095,0.701523,9.823709,0.429733,0.701511,9.772082,-0.055795,0.01826,0.002731,-1959.36,-1939.98,1858.38,135.1278,-3.7488,-2.6307,984.8157,55.855846,37.48426,176.4263,NaN,,0.0422,2.0,269.3348,29 / 30,,1625,2021-05-20 21:44:24:850
0.447729,0.679974,9.893144,0.422791,0.714533,9.771442,-0.046021,0.017038,-0.0046,-1959.54,-1939.98,1858.44,135.3062,-4.1021,-2.518,984.8157,55.855846,37.48426,176.4263,NaN,,0.0422,2.0,269.3348,29 / 30,,1634,2021-05-20 21:44:24:859
0.466884,0.747014,9.845258,0.422791,0.714533,9.771442,-0.018532,0.001767,-0.008876,-1959.54,-1939.98,1858.44,135.3062,-4.1021,-2.518,984.8157,55.855846,37.48426,176.4263,NaN,,0.0422,2.0,269.3348,29 / 30,,1644,2021-05-20 21:44:24:869
0.466884,0.747014,9.845258,0.418387,0.719908,9.771237,0.002848,-0.012283,-0.020482,-1959.72,-1940.1,1858.92,135.3062,-4.1021,-2.518,984.8157,55.855846,37.48426,176.4263,NaN,,0.0422,2.0,269.3348,29 / 30,,1655,2021-05-20 21:44:24:880
0.371113,0.768562,9.70639,0.418387,0.719908,9.771237,0.005903,-0.019614,-0.026591,-1959.72,-1940.1,1858.92,135.3062,-4.1021,-2.518,984.814,55.855846,37.48426,176.4263,NaN,,0.0422,2.0,269.3348,29 / 30,,1664,2021-05-20 21:44:24:889
0.339987,0.758985,9.715967,0.420353,0.729874,9.770413,0.007735,-0.020225,-0.022926,-1959.9,-1940.22,1858.86,135.3802,-4.2099,-2.4518,984.814,55.855846,37.48426,176.4263,NaN,,0.0422,2.0,269.3348,29 / 30,,1674,2021-05-20 21:44:24:899
0.294496,0.754197,9.672871,0.420353,0.729874,9.770413,-0.002649,-0.029998,-0.015595,-1959.9,-1940.22,1858.86,135.3802,-4.2099,-2.4518,984.814,55.855846,37.48426,176.4263,NaN,,0.0422,2.0,269.3348,29 / 30,,1684,2021-05-20 21:44:24:909
0.304073,0.747014,9.761458,0.418968,0.739107,9.769778,-0.01731,-0.031831,-0.003378,-1960.0198,-1939.56,1858.32,135.3802,-4.2099,-2.4518,984.814,55.855846,37.48426,176.4263,NaN,,0.0422,2.0,269.3348,29 / 30,,1695,2021-05-20 21:44:24:920
0.299284,0.778139,9.80695,0.418968,0.739107,9.769778,-0.015477,-0.022668,2.87E-4,-1960.0198,-1939.56,1858.32,135.3802,-4.2099,-2.4518,984.814,55.855846,37.48426,176.4263,NaN,,0.0422,2.0,269.3348,29 / 30,,1705,2021-05-20 21:44:24:930
0.299284,0.778139,9.80695,0.414146,0.742356,9.769738,-0.005704,-0.033664,0.002731,-1959.42,-1939.26,1858.32,135.4224,-4.3224,-2.4556,984.814,55.855846,37.48426,176.4263,NaN,,0.0422,2.0,269.3348,29 / 30,,1715,2021-05-20 21:44:24:940
0.320833,0.790111,9.72315,0.414146,0.742356,9.769738,0.005903,-0.055044,0.003341,-1959.42,-1939.26,1858.32,135.4224,-4.3224,-2.4556,984.814,55.855846,37.48426,176.4263,NaN,,0.0422,2.0,269.3348,29 / 30,,1724,2021-05-20 21:44:24:949
0.339987,0.756591,9.809344,0.407885,0.746889,9.769656,0.005903,-0.055044,0.003341,-1959.42,-1939.74,1859.04,135.4224,-4.3224,-2.4556,984.814,55.855846,37.48426,176.4263,NaN,,0.0422,2.0,269.3348,29 / 30,,1734,2021-05-20 21:44:24:959
0.354353,0.790111,9.754275,0.407885,0.746889,9.769656,0.014455,-0.020225,-0.002767,-1959.42,-1939.74,1859.04,135.4224,-4.3224,-2.4556,984.814,55.855846,37.48426,176.4263,NaN,,0.0422,2.0,269.3348,29 / 30,,1745,2021-05-20 21:44:24:970
0.354353,0.790111,9.754275,0.403833,0.753417,9.769322,0.014455,-0.020225,-0.002767,-1959.54,-1939.56,1858.98,135.4711,-4.368,-2.3907,984.814,55.855846,37.48426,176.4263,NaN,,0.0422,2.0,269.3348,29 / 30,,1754,2021-05-20 21:44:24:979
0.342381,0.720677,9.708784,0.403833,0.753417,9.769322,-8.17E-4,-0.006175,-9.35E-4,-1959.54,-1939.56,1858.98,135.4711,-4.368,-2.3907,984.8154,55.855846,37.48426,176.4263,NaN,,0.0422,2.0,269.3348,29 / 30,,1764,2021-05-20 21:44:24:989
0.392661,0.74462,9.761458,0.394989,0.756403,9.769454,-0.020975,0.004821,0.007617,-1959.48,-1939.32,1858.62,135.4711,-4.368,-2.3907,984.8154,55.855846,37.48426,176.4263,NaN,,0.0422,2.0,269.3348,29 / 30,,1774,2021-05-20 21:44:24:999
0.466884,0.735042,9.885961,0.394989,0.756403,9.769454,-0.019143,0.003599,0.008228,-1959.48,-1939.32,1858.62,135.4711,-4.368,-2.3907,984.8154,55.855846,37.48426,176.4263,NaN,,0.0422,2.0,269.3348,29 / 30,,1784,2021-05-20 21:44:25:009
0.452518,0.720677,9.941029,0.388311,0.753335,9.769958,-0.002649,-0.005564,0.011894,-1960.0198,-1939.74,1858.32,135.5283,-4.4237,-2.3153,984.8154,55.855846,37.48426,176.4263,NaN,,0.0422,2.0,269.3348,29 / 30,,1794,2021-05-20 21:44:25:019
0.452518,0.720677,9.941029,0.388311,0.753335,9.769958,0.007735,-0.013505,0.010672,-1960.0198,-1939.74,1858.32,135.5283,-4.4237,-2.3153,984.8154,55.855846,37.48426,176.4263,NaN,,0.0422,2.0,269.3348,29 / 30,,1804,2021-05-20 21:44:25:029
0.421392,0.730254,9.823709,0.390426,0.753328,9.769875,0.004681,-0.015948,0.007007,-1959.84,-1939.92,1858.14,135.5283,-4.4237,-2.3153,984.8154,55.855846,37.48426,176.4263,NaN,,0.0422,2.0,269.3348,29 / 30,,1814,2021-05-20 21:44:25:039
0.383084,0.720677,9.787795,0.390426,0.753328,9.769875,0.004681,-0.017781,0.007007,-1959.84,-1939.92,1858.14,135.5283,-4.4237,-2.3153,984.8154,55.855846,37.48426,176.4263,NaN,,0.0422,2.0,269.3348,29 / 30,,1825,2021-05-20 21:44:25:050
0.375901,0.730254,9.749487,0.394745,0.751867,9.769814,0.007735,-0.017781,0.005174,-1959.96,-1939.98,1858.74,135.5345,-4.4057,-2.2884,984.8154,55.855846,37.48426,176.4263,NaN,,0.0422,2.0,269.3348,29 / 30,,1834,2021-05-20 21:44:25:059
0.469278,0.754197,9.792584,0.394745,0.751867,9.769814,0.014455,-0.019003,0.003952,-1959.96,-1939.98,1858.74,135.5345,-4.4057,-2.2884,984.8154,55.855846,37.48426,176.4263,NaN,,0.0422,2.0,269.3348,29 / 30,,1844,2021-05-20 21:44:25:069
0.469278,0.754197,9.792584,0.397165,0.751528,9.769742,0.001016,0.009097,-0.006432,-1960.5,-1940.16,1858.92,135.5345,-4.4057,-2.2884,984.8154,55.855846,37.48426,176.4263,NaN,,0.0422,2.0,269.3348,29 / 30,,1855,2021-05-20 21:44:25:080
0.452518,0.747014,9.768641,0.397165,0.751528,9.769742,-0.010591,0.026201,-0.01193,-1960.5,-1940.16,1858.92,135.5345,-4.4057,-2.2884,984.8142,55.855846,37.48426,176.4263,NaN,,0.0422,2.0,269.3348,29 / 30,,1864,2021-05-20 21:44:25:089
0.328016,0.730254,9.771035,0.397489,0.750104,9.769838,-8.17E-4,0.01826,-0.003378,-1959.84,-1939.62,1858.68,135.5116,-4.3951,-2.3279,984.8142,55.855846,37.48426,176.4263,NaN,,0.0422,2.0,269.3348,29 / 30,,1874,2021-05-20 21:44:25:099
0.416604,0.785322,9.732727,0.397489,0.750104,9.769838,0.017509,-0.003731,2.87E-4,-1959.84,-1939.62,1858.68,135.5116,-4.3951,-2.3279,984.8142,55.855846,37.48426,176.4263,NaN,,0.0422,2.0,269.3348,29 / 30,,1884,2021-05-20 21:44:25:109
0.521952,0.833208,9.672871,0.394667,0.749732,9.76998,0.011401,0.008486,-0.007654,-1959.3,-1939.32,1858.74,135.5116,-4.3951,-2.3279,984.8142,55.855846,37.48426,176.4263,NaN,,0.0422,2.0,269.3348,29 / 30,,1895,2021-05-20 21:44:25:120
0.521952,0.833208,9.672871,0.394667,0.749732,9.76998,-0.013034,0.027423,-0.010708,-1959.3,-1939.32,1858.74,135.5116,-4.3951,-2.3279,984.8142,55.855846,37.48426,176.4263,NaN,,0.0422,2.0,269.3348,29 / 30,,1904,2021-05-20 21:44:25:129
0.385478,0.742225,9.775824,0.39677,0.752951,9.769649,-0.027084,0.048192,-3.24E-4,-1959.6,-1939.26,1858.68,135.5006,-4.3846,-2.3133,984.8142,55.855846,37.48426,176.4263,NaN,,0.0422,2.0,269.3348,29 / 30,,1914,2021-05-20 21:44:25:139
0.373507,0.701523,9.775824,0.39677,0.752951,9.769649,-0.027695,0.041473,0.007617,-1959.6,-1939.26,1858.68,135.5006,-4.3846,-2.3133,984.8142,55.855846,37.48426,176.4263,NaN,,0.0422,2.0,269.3348,29 / 30,,1925,2021-05-20 21:44:25:150
0.407027,0.684763,9.833286,0.391945,0.749105,9.770139,-0.013645,0.01826,0.008228,-1959.72,-1940.04,1858.44,135.5006,-4.3846,-2.3133,984.8142,55.855846,37.48426,176.4263,NaN,,0.0422,2.0,269.3348,29 / 30,,1934,2021-05-20 21:44:25:159
0.483644,0.758985,9.833286,0.390223,0.745949,9.770449,0.001016,0.003599,-0.002156,-1959.6,-1940.58,1858.32,135.5006,-4.3846,-2.3133,984.8142,55.855846,37.48426,176.4263,NaN,,0.0422,2.0,269.3348,29 / 30,,1945,2021-05-20 21:44:25:170
0.483644,0.758985,9.833286,0.390223,0.745949,9.770449,0.001016,0.003599,-0.002156,-1959.6,-1940.58,1858.32,135.5006,-4.3846,-2.3133,984.8142,55.855846,37.48426,176.4263,NaN,,0.0422,2.0,269.3348,29 / 30,,1954,2021-05-20 21:44:25:179
0.476461,0.792505,9.715967,0.393908,0.744317,9.770426,0.003459,-0.00312,-0.019261,-1960.08,-1940.5198,1858.68,135.5319,-4.3625,-2.2871,984.8169,55.855846,37.48426,176.4263,NaN,,0.0422,2.0,269.3348,29 / 30,,1964,2021-05-20 21:44:25:189
0.411815,0.732648,9.668081,0.393908,0.744317,9.770426,-0.004482,-0.004953,-0.021093,-1960.08,-1940.5198,1858.68,135.5319,-4.3625,-2.2871,984.8169,55.855846,37.48426,176.4263,NaN,,0.0422,2.0,269.3348,29 / 30,,1974,2021-05-20 21:44:25:199
0.339987,0.715888,9.72315,0.400562,0.745133,9.770093,-0.013034,0.007264,-0.014985,-1960.38,-1939.92,1859.1,135.5319,-4.3625,-2.2871,984.8169,55.855846,37.48426,176.4263,NaN,,0.0422,2.0,269.3348,29 / 30,,1984,2021-05-20 21:44:25:209
0.335198,0.732648,9.742304,0.400562,0.745133,9.770093,-0.009369,0.020703,-0.001545,-1960.38,-1939.92,1859.1,135.5319,-4.3625,-2.2871,984.8169,55.855846,37.48426,176.4263,NaN,,0.0422,2.0,269.3348,29 / 30,,1995,2021-05-20 21:44:25:220
0.335198,0.732648,9.742304,0.399666,0.742877,9.770301,-0.008147,0.015206,0.005785,-1960.14,-1939.68,1858.5,135.4875,-4.3577,-2.3477,984.8169,55.855846,37.48426,176.4263,NaN,,0.0422,2.0,269.3348,29 / 30,,2004,2021-05-20 21:44:25:229
0.411815,0.787716,9.823709,0.399666,0.742877,9.770301,-0.010591,0.012762,0.003952,-1960.14,-1939.68,1858.5,135.4875,-4.3577,-2.3477,984.8169,55.855846,37.48426,176.4263,NaN,,0.0422,2.0,269.3348,29 / 30,,2014,2021-05-20 21:44:25:239
0.390267,0.730254,9.864412,0.396916,0.742144,9.770469,-0.008758,0.018871,0.003341,-1959.6,-1939.8,1858.2,135.4875,-4.3577,-2.3477,984.8169,55.855846,37.48426,176.4263,NaN,,0.0422,2.0,269.3348,29 / 30,,2024,2021-05-20 21:44:25:249
0.375901,0.706311,10.005674,0.396916,0.742144,9.770469,-0.015477,0.017649,0.005174,-1959.6,-1939.8,1858.2,135.4875,-4.3577,-2.3477,984.8169,55.855846,37.48426,176.4263,NaN,,0.0422,2.0,269.3348,29 / 30,,2034,2021-05-20 21:44:25:259
0.36393,0.823631,10.027223,0.393474,0.739727,9.770791,-0.020364,0.028645,-0.003378,-1959.3,-1939.32,1858.38,135.4906,-4.3402,-2.3263,984.8169,55.855846,37.48426,176.4263,NaN,,0.0422,2.0,269.3348,29 / 30,,2044,2021-05-20 21:44:25:269
0.36393,0.823631,10.027223,0.393474,0.739727,9.770791,-0.013034,0.014595,-0.005822,-1959.3,-1939.32,1858.38,135.4906,-4.3402,-2.3263,984.8169,55.855846,37.48426,176.4263,NaN,,0.0422,2.0,269.3348,29 / 30,,2055,2021-05-20 21:44:25:280
0.344776,0.691945,9.921875,0.390073,0.737493,9.771096,-0.011812,0.013984,0.003341,-1958.82,-1939.38,1858.92,135.4906,-4.3402,-2.3263,984.8176,55.855846,37.48426,176.4263,NaN,,0.0422,2.0,269.3348,29 / 30,,2064,2021-05-20 21:44:25:289
0.31365,0.85715,9.802161,0.390073,0.737493,9.771096,0.004681,-0.010451,-0.006432,-1958.82,-1939.38,1858.92,135.4906,-4.3402,-2.3263,984.8176,55.855846,37.48426,176.4263,NaN,,0.0422,2.0,269.3348,29 / 30,,2074,2021-05-20 21:44:25:299
0.378295,0.754197,9.644139,0.387298,0.738932,9.771099,0.035224,-0.042827,-0.003378,-1958.88,-1939.68,1858.5,135.5132,-4.3129,-2.2861,984.8176,55.855846,37.48426,176.4263,NaN,,0.0422,2.0,269.3348,29 / 30,,2084,2021-05-20 21:44:25:309
0.457306,0.811659,9.531608,0.387298,0.738932,9.771099,0.037668,-0.029998,-0.021093,-1958.88,-1939.68,1858.5,135.5132,-4.3129,-2.2861,984.8176,55.855846,37.48426,176.4263,NaN,,0.0422,2.0,269.3348,29 / 30,,2094,2021-05-20 21:44:25:319
0.457306,0.811659,9.531608,0.39131,0.749438,9.770138,0.013844,-0.012894,-0.032089,-1959.36,-1939.08,1858.26,135.5132,-4.3129,-2.2861,984.8176,55.855846,37.48426,176.4263,NaN,,0.0422,2.0,269.3348,29 / 30,,2105,2021-05-20 21:44:25:330
0.469278,0.768562,9.450203,0.39131,0.749438,9.770138,-0.015477,5.45E-4,-0.0327,-1959.78,-1939.44,1858.8,135.5132,-4.3129,-2.2861,984.8176,55.855846,37.48426,176.4263,NaN,,0.0422,2.0,269.3348,29 / 30,,2114,2021-05-20 21:44:25:339
0.466884,0.670397,9.658504,0.395146,0.757264,9.769381,-0.033193,0.012151,-0.037587,-1959.78,-1939.44,1858.8,135.5132,-4.3129,-2.2861,984.8176,55.855846,37.48426,176.4263,NaN,,0.0422,2.0,269.3348,29 / 30,,2124,2021-05-20 21:44:25:349
0.466884,0.670397,9.658504,0.395146,0.757264,9.769381,-0.035636,0.009708,-0.035754,-1959.72,-1940.28,1858.86,135.5303,-4.4288,-2.3162,984.8176,55.855846,37.48426,176.4263,NaN,,0.0422,2.0,269.3348,29 / 30,,2135,2021-05-20 21:44:25:360
0.411815,0.699128,9.881172,0.398463,0.75308,9.769569,-0.019143,0.006654,-0.036365,-1959.72,-1940.28,1858.86,135.5303,-4.4288,-2.3162,984.8176,55.855846,37.48426,176.4263,NaN,,0.0422,2.0,269.3348,29 / 30,,2145,2021-05-20 21:44:25:370
0.332804,0.672791,9.885961,0.398463,0.75308,9.769569,0.005903,-0.013505,-0.035754,-1959.78,-1940.1,1858.32,135.5303,-4.4288,-2.3162,984.8176,55.855846,37.48426,176.4263,NaN,,0.0422,2.0,269.3348,29 / 30,,2154,2021-05-20 21:44:25:379
0.287313,0.665608,9.816526,0.400792,0.748298,9.769841,0.027894,-0.034274,-0.027813,-1959.78,-1940.1,1858.32,135.5303,-4.4288,-2.3162,984.8179,55.855846,37.48426,176.4263,NaN,,0.0422,2.0,269.3348,29 / 30,,2164,2021-05-20 21:44:25:389
0.356747,0.715888,9.900327,0.400792,0.748298,9.769841,0.027894,-0.042216,-0.021704,-1959.3,-1939.62,1858.62,135.5082,-4.3762,-2.3492,984.8179,55.855846,37.48426,176.4263,NaN,,0.0422,2.0,269.3348,29 / 30,,2175,2021-05-20 21:44:25:400
0.356747,0.715888,9.900327,0.402936,0.746775,9.76987,0.01812,-0.025111,-0.019871,-1959.3,-1939.62,1858.62,135.5082,-4.3762,-2.3492,984.8179,55.855846,37.48426,176.4263,NaN,,0.0422,2.0,269.3348,29 / 30,,2184,2021-05-20 21:44:25:409
0.450124,0.749408,9.893144,0.402936,0.746775,9.76987,0.004681,-0.00984,-0.022315,-1959.6,-1939.32,1858.8,135.5082,-4.3762,-2.3492,984.8179,55.855846,37.48426,176.4263,NaN,,0.0422,2.0,269.3348,29 / 30,,2194,2021-05-20 21:44:25:419
0.395055,0.732648,9.895537,0.402225,0.743951,9.770115,-0.003871,0.004821,-0.019261,-1959.6,-1939.32,1858.8,135.5082,-4.3762,-2.3492,984.8179,55.855846,37.48426,176.4263,NaN,,0.0422,2.0,269.3348,29 / 30,,2204,2021-05-20 21:44:25:429
0.395055,0.756591,9.814133,0.402225,0.743951,9.770115,0.001016,0.001767,-0.014374,-1959.84,-1939.86,1858.32,135.4797,-4.3507,-2.3575,984.8179,55.855846,37.48426,176.4263,NaN,,0.0422,2.0,269.3348,29 / 30,,2214,2021-05-20 21:44:25:439
0.395055,0.756591,9.814133,0.398422,0.739401,9.770616,0.00407,0.001156,-0.005822,-1959.84,-1939.86,1858.32,135.4797,-4.3507,-2.3575,984.8179,55.855846,37.48426,176.4263,NaN,,0.0422,2.0,269.3348,29 / 30,,2224,2021-05-20 21:44:25:449
0.421392,0.773351,9.80695,0.398422,0.739401,9.770616,0.006514,0.003599,8.98E-4,-1959.84,-1940.28,1858.38,135.4797,-4.3507,-2.3575,984.8179,55.855846,37.48426,176.4263,NaN,,0.0422,2.0,269.3348,29 / 30,,2234,2021-05-20 21:44:25:459
0.409421,0.826025,9.80695,0.396365,0.738276,9.770784,0.003459,0.021925,2.87E-4,-1959.84,-1940.28,1858.38,135.4797,-4.3507,-2.3575,984.8179,55.855846,37.48426,176.4263,NaN,,0.0422,2.0,269.3348,29 / 30,,2245,2021-05-20 21:44:25:470
0.41421,0.859545,9.699207,0.396365,0.738276,9.770784,0.002238,0.030477,2.87E-4,-1959.78,-1940.1,1858.62,135.4834,-4.3175,-2.323,984.8179,55.855846,37.48426,176.4263,NaN,,0.0422,2.0,269.3348,29 / 30,,2254,2021-05-20 21:44:25:479
0.395055,0.835602,9.658504,0.392627,0.742186,9.770639,0.005903,0.017038,-0.005211,-1959.78,-1940.1,1858.62,135.4834,-4.3175,-2.323,984.8181,55.855846,37.48426,176.4263,NaN,,0.0422,2.0,269.3348,29 / 30,,2264,2021-05-20 21:44:25:489
0.395055,0.835602,9.658504,0.392627,0.742186,9.770639,0.019342,-0.004953,-0.012541,-1958.88,-1940.04,1858.5,135.4834,-4.3175,-2.323,984.8181,55.855846,37.48426,176.4263,NaN,,0.0422,2.0,269.3348,29 / 30,,2274,2021-05-20 21:44:25:499
0.385478,0.84039,9.689631,0.390877,0.751527,9.769996,0.027283,-0.022668,-0.017428,-1958.88,-1940.04,1858.5,135.4834,-4.3175,-2.323,984.8181,55.855846,37.48426,176.4263,NaN,,0.0422,2.0,269.3348,29 / 30,,2284,2021-05-20 21:44:25:509
0.38069,0.842785,9.668081,0.390877,0.751527,9.769996,0.026061,-0.026944,-0.022926,-1958.5198,-1939.26,1858.5,135.5294,-4.3951,-2.2911,984.8181,55.855846,37.48426,176.4263,NaN,,0.0422,2.0,269.3348,29 / 30,,2294,2021-05-20 21:44:25:519
0.332804,0.775745,9.79019,0.394562,0.765909,9.76873,0.019953,-0.018392,-0.014985,-1958.5198,-1939.26,1858.5,135.5294,-4.3951,-2.2911,984.8181,55.855846,37.48426,176.4263,NaN,,0.0422,2.0,269.3348,29 / 30,,2304,2021-05-20 21:44:25:529
0.316044,0.756591,9.79019,0.394562,0.765909,9.76873,0.010179,-0.016559,-0.010708,-1959.0,-1939.2,1858.2,135.5294,-4.3951,-2.2911,984.8181,55.855846,37.48426,176.4263,NaN,,0.0422,2.0,269.3348,29 / 30,,2314,2021-05-20 21:44:25:539
0.316044,0.756591,9.79019,0.39515,0.775227,9.767971,0.005903,-0.011062,-0.002156,-1959.0,-1939.2,1858.2,135.5294,-4.3951,-2.2911,984.8181,55.855846,37.48426,176.4263,NaN,,0.0422,2.0,269.3348,29 / 30,,2324,2021-05-20 21:44:25:549
0.318439,0.732648,9.914692,0.39515,0.775227,9.767971,0.015677,-0.005564,0.006396,-1959.72,-1939.44,1858.5,135.5575,-4.534,-2.3166,984.8181,55.855846,37.48426,176.4263,NaN,,0.0422,2.0,269.3348,29 / 30,,2335,2021-05-20 21:44:25:560
0.318439,0.758985,9.967366,0.39043,0.776676,9.768046,0.031559,-0.001288,0.007617,-1959.72,-1939.44,1858.5,135.5575,-4.534,-2.3166,984.8181,55.855846,37.48426,176.4263,NaN,,0.0422,2.0,269.3348,29 / 30,,2344,2021-05-20 21:44:25:569
0.299284,0.754197,9.842864,0.39043,0.776676,9.768046,0.031559,-0.001288,0.007617,-1959.42,-1939.0198,1858.68,135.5575,-4.534,-2.3166,984.8181,55.855846,37.48426,176.4263,NaN,,0.0422,2.0,269.3348,29 / 30,,2354,2021-05-20 21:44:25:579
0.354353,0.790111,9.735122,0.382658,0.778857,9.768181,0.048663,-0.00984,0.011283,-1959.42,-1939.0198,1858.68,135.5575,-4.534,-2.3166,984.8242,55.855846,37.48426,176.4263,NaN,,0.0422,2.0,269.3348,29 / 30,,2364,2021-05-20 21:44:25:589
0.354353,0.790111,9.735122,0.382658,0.778857,9.768181,0.045609,-0.006785,0.008839,-1959.48,-1939.26,1858.5,135.6148,-4.5553,-2.2434,984.8242,55.855846,37.48426,176.4263,NaN,,0.0422,2.0,269.3348,29 / 30,,2375,2021-05-20 21:44:25:600
0.404632,0.818842,9.584282,0.376152,0.785326,9.767915,0.03217,-0.012894,0.002731,-1959.48,-1939.26,1858.5,135.6148,-4.5553,-2.2434,984.8242,55.855846,37.48426,176.4263,NaN,,0.0422,2.0,269.3348,29 / 30,,2384,2021-05-20 21:44:25:609
0.375901,0.806871,9.541185,0.376152,0.785326,9.767915,0.008957,-0.002509,0.003952,-1959.96,-1939.92,1858.86,135.6148,-4.5553,-2.2434,984.8242,55.855846,37.48426,176.4263,NaN,,0.0422,2.0,269.3348,29 / 30,,2394,2021-05-20 21:44:25:619
0.409421,0.842785,9.591465,0.37386,0.789181,9.767693,-2.06E-4,0.008486,0.005785,-1959.96,-1939.92,1858.86,135.6148,-4.5553,-2.2434,984.8242,55.855846,37.48426,176.4263,NaN,,0.0422,2.0,269.3348,29 / 30,,2404,2021-05-20 21:44:25:629
0.344776,0.859545,9.648928,0.37386,0.789181,9.767693,-0.005093,0.015817,0.003341,-1960.08,-1939.92,1858.8,135.6626,-4.6158,-2.1919,984.8242,55.855846,37.48426,176.4263,NaN,,0.0422,2.0,269.3348,29 / 30,,2415,2021-05-20 21:44:25:640
0.344776,0.859545,9.648928,0.370655,0.791811,9.767601,-8.17E-4,0.018871,0.002731,-1960.08,-1939.92,1858.8,135.6626,-4.6158,-2.1919,984.8242,55.855846,37.48426,176.4263,NaN,,0.0422,2.0,269.3348,29 / 30,,2424,2021-05-20 21:44:25:649
0.29689,0.74462,9.778218,0.370655,0.791811,9.767601,-2.06E-4,0.023758,0.010672,-1959.84,-1939.86,1858.5,135.6626,-4.6158,-2.1919,984.8242,55.855846,37.48426,176.4263,NaN,,0.0422,2.0,269.3348,29 / 30,,2434,2021-05-20 21:44:25:659
0.335198,0.754197,9.876384,0.364281,0.794239,9.767644,-0.014256,0.03964,0.011894,-1959.84,-1939.86,1858.5,135.6626,-4.6158,-2.1919,984.8242,55.855846,37.48426,176.4263,NaN,,0.0422,2.0,269.3348,29 / 30,,2444,2021-05-20 21:44:25:669
0.387873,0.713494,9.850046,0.364281,0.794239,9.767644,-0.04541,0.059188,0.011894,-1959.42,-1940.04,1858.26,135.7147,-4.6455,-2.1358,984.8242,55.855846,37.48426,176.4263,NaN,,0.0422,2.0,269.3348,29 / 30,,2455,2021-05-20 21:44:25:680
0.435758,0.768562,9.984126,0.353031,0.787786,9.768579,-0.057016,0.058577,0.014948,-1959.42,-1940.04,1858.26,135.7147,-4.6455,-2.1358,984.824,55.855846,37.48426,176.4263,NaN,,0.0422,2.0,269.3348,29 / 30,,2464,2021-05-20 21:44:25:689
0.490826,0.802082,9.953,0.353031,0.787786,9.768579,-0.037469,0.031699,8.98E-4,-1959.36,-1939.74,1858.32,135.7147,-4.6455,-2.1358,984.824,55.855846,37.48426,176.4263,NaN,,0.0422,2.0,269.3348,29 / 30,,2475,2021-05-20 21:44:25:700
0.490826,0.802082,9.953,0.347883,0.775542,9.769744,-0.002649,-0.009229,-0.003989,-1959.36,-1939.74,1858.32,135.7147,-4.6455,-2.1358,984.824,55.855846,37.48426,176.4263,NaN,,0.0422,2.0,269.3348,29 / 30,,2484,2021-05-20 21:44:25:709
0.459701,0.823631,9.847652,0.347883,0.775542,9.769744,0.052329,-0.064207,-0.010708,-1959.06,-1939.92,1859.04,135.7187,-4.5359,-2.0393,984.824,55.855846,37.48426,176.4263,NaN,,0.0422,2.0,269.3348,29 / 30,,2495,2021-05-20 21:44:25:720
0.464489,0.89067,9.799767,0.362254,0.77927,9.768925,0.076763,-0.072148,-0.014374,-1959.06,-1939.92,1859.04,135.7187,-4.5359,-2.0393,984.824,55.855846,37.48426,176.4263,NaN,,0.0422,2.0,269.3348,29 / 30,,2504,2021-05-20 21:44:25:729
0.426181,0.888276,9.644139,0.362254,0.77927,9.768925,0.068822,-0.033664,-0.016817,-1958.7,-1939.98,1859.1,135.7187,-4.5359,-2.0393,984.824,55.855846,37.48426,176.4263,NaN,,0.0422,2.0,269.3348,29 / 30,,2514,2021-05-20 21:44:25:739
0.426181,0.888276,9.644139,0.37351,0.793518,9.767354,0.027283,0.031088,-0.003378,-1958.7,-1939.98,1859.1,135.7187,-4.5359,-2.0393,984.824,55.855846,37.48426,176.4263,NaN,,0.0422,2.0,269.3348,29 / 30,,2525,2021-05-20 21:44:25:750
0.395055,0.921796,9.531608,0.37351,0.793518,9.767354,-0.016699,0.067129,0.002731,-1959.54,-1939.56,1858.62,135.6735,-4.6412,-2.19,984.824,55.855846,37.48426,176.4263,NaN,,0.0422,2.0,269.3348,29 / 30,,2534,2021-05-20 21:44:25:759
0.538712,0.938556,9.512454,0.367425,0.79757,9.767255,-0.050297,0.065297,8.98E-4,-1959.54,-1939.56,1858.62,135.6735,-4.6412,-2.19,984.824,55.855846,37.48426,176.4263,NaN,,0.0422,2.0,269.3348,29 / 30,,2544,2021-05-20 21:44:25:769
0.538712,0.871516,9.675264,0.367425,0.79757,9.767255,-0.06679,0.037197,-0.01193,-1960.14,-1940.22,1858.68,135.6735,-4.6412,-2.19,984.824,55.855846,37.48426,176.4263,NaN,,0.0422,2.0,269.3348,29 / 30,,2555,2021-05-20 21:44:25:780
0.462095,0.811659,9.921875,0.355235,0.787618,9.768513,-0.05274,0.004821,-0.020482,-1960.14,-1940.22,1858.68,135.6735,-4.6412,-2.19,984.822,55.855846,37.48426,176.4263,NaN,,0.0422,2.0,269.3348,29 / 30,,2564,2021-05-20 21:44:25:789
0.399844,0.849968,10.008069,0.355235,0.787618,9.768513,-0.014256,-0.015948,-0.027813,-1959.9,-1940.46,1859.04,135.7114,-4.6067,-2.0827,984.822,55.855846,37.48426,176.4263,NaN,,0.0422,2.0,269.3348,29 / 30,,2575,2021-05-20 21:44:25:800
0.399844,0.849968,10.008069,0.352545,0.777783,9.769399,0.046831,-0.040383,-0.024758,-1959.9,-1940.46,1859.04,135.7114,-4.6067,-2.0827,984.822,55.855846,37.48426,176.4263,NaN,,0.0422,2.0,269.3348,29 / 30,,2584,2021-05-20 21:44:25:809
0.311256,0.778139,9.864412,0.352545,0.777783,9.769399,0.046831,-0.040383,-0.024758,-1960.0198,-1939.98,1858.44,135.7114,-4.6067,-2.0827,984.822,55.855846,37.48426,176.4263,NaN,,0.0422,2.0,269.3348,29 / 30,,2594,2021-05-20 21:44:25:819
0.28013,0.766168,9.802161,0.35853,0.783731,9.768706,0.064546,-0.039772,-0.017428,-1960.0198,-1939.98,1858.44,135.7114,-4.6067,-2.0827,984.822,55.855846,37.48426,176.4263,NaN,,0.0422,2.0,269.3348,29 / 30,,2604,2021-05-20 21:44:25:829
0.299284,0.787716,9.797373,0.361747,0.790371,9.768052,0.055994,0.007264,-0.001545,-1959.3,-1939.62,1857.78,135.7069,-4.5839,-2.1019,984.822,55.855846,37.48426,176.4263,NaN,,0.0422,2.0,269.3348,29 / 30,,2614,2021-05-20 21:44:25:839
0.299284,0.787716,9.797373,0.361747,0.790371,9.768052,0.037668,0.05369,0.005785,-1959.3,-1939.62,1857.78,135.7069,-4.5839,-2.1019,984.822,55.855846,37.48426,176.4263,NaN,,0.0422,2.0,269.3348,29 / 30,,2624,2021-05-20 21:44:25:849
0.328016,0.778139,9.73991,0.355859,0.799542,9.767522,0.013233,0.076903,0.008839,-1959.06,-1939.38,1858.26,135.7069,-4.5839,-2.1019,984.822,55.855846,37.48426,176.4263,NaN,,0.0422,2.0,269.3348,25 / 28,,2634,2021-05-20 21:44:25:859
0.387873,0.780534,9.703996,0.355859,0.799542,9.767522,0.001016,0.072627,0.005785,-1959.06,-1939.38,1858.26,135.7069,-4.5839,-2.1019,984.822,55.855846,37.48426,176.4263,NaN,,0.0422,2.0,269.3348,25 / 28,,2645,2021-05-20 21:44:25:870
0.387873,0.780534,9.703996,0.342107,0.800012,9.767975,-0.016699,0.058577,-0.008265,-1959.78,-1940.04,1858.44,135.7363,-4.6765,-2.0865,984.822,55.855846,37.48426,176.4263,NaN,,0.0422,2.0,269.3348,25 / 28,,2656,2021-05-20 21:44:25:881
0.289707,0.768562,9.794978,0.342107,0.800012,9.767975,-0.016699,0.058577,-0.008265,-1959.78,-1940.04,1858.44,135.7363,-4.6765,-2.0865,984.822,55.855846,37.48426,176.4263,NaN,,0.0422,2.0,269.3348,25 / 28,,2664,2021-05-20 21:44:25:889
0.203513,0.763774,9.711179,0.337111,0.798479,9.768274,-0.002649,0.035364,-0.014985,-1960.0198,-1940.1,1858.38,135.7363,-4.6765,-2.0865,984.8174,55.855846,37.48426,176.4263,NaN,,0.0422,2.0,269.3348,25 / 28,,2676,2021-05-20 21:44:25:901
0.198725,0.806871,9.63935,0.337111,0.798479,9.768274,0.013233,0.01093,-0.003378,-1960.0198,-1940.1,1858.38,135.7363,-4.6765,-2.0865,984.8174,55.855846,37.48426,176.4263,NaN,,0.0422,2.0,269.3348,25 / 28,,2684,2021-05-20 21:44:25:909
0.198725,0.806871,9.63935,0.330098,0.800549,9.768344,0.012011,0.015817,0.005174,-1959.3,-1939.68,1858.74,135.8016,-4.6703,-1.9765,984.8174,55.855846,37.48426,176.4263,NaN,,0.0422,2.0,269.3348,25 / 28,,2694,2021-05-20 21:44:25:919
0.28013,0.823631,9.574705,0.330098,0.800549,9.768344,0.004681,0.016427,0.010061,-1959.3,-1939.68,1858.74,135.8016,-4.6703,-1.9765,984.8174,55.855846,37.48426,176.4263,NaN,,0.0422,2.0,269.3348,25 / 28,,2705,2021-05-20 21:44:25:930
0.378295,0.804476,9.646533,0.327011,0.802129,9.768318,-0.005093,0.006043,0.010672,-1959.0,-1939.86,1858.56,135.8016,-4.6703,-1.9765,984.8174,55.855846,37.48426,176.4263,NaN,,0.0422,2.0,269.3348,25 / 28,,2714,2021-05-20 21:44:25:939
0.450124,0.792505,9.830893,0.327011,0.802129,9.768318,-0.011812,-0.00312,-0.003378,-1959.0,-1939.86,1858.56,135.8016,-4.6703,-1.9765,984.8174,55.855846,37.48426,176.4263,NaN,,0.0422,2.0,269.3348,25 / 28,,2725,2021-05-20 21:44:25:950
0.428575,0.797294,9.890749,0.326534,0.800295,9.768484,-0.005093,-0.014727,-0.013152,-1959.48,-1940.22,1858.68,135.8385,-4.6917,-1.9174,984.8174,55.855846,37.48426,176.4263,NaN,,0.0422,2.0,269.3348,25 / 28,,2734,2021-05-20 21:44:25:959
0.366324,0.823631,9.826104,0.326534,0.800295,9.768484,0.001016,-0.019614,-0.011319,-1959.48,-1940.22,1858.68,135.8385,-4.6917,-1.9174,984.8174,55.855846,37.48426,176.4263,NaN,,0.0422,2.0,269.3348,25 / 28,,2744,2021-05-20 21:44:25:969
0.366324,0.823631,9.826104,0.329478,0.799842,9.768423,-0.016088,0.002377,-0.017428,-1959.66,-1939.68,1858.98,135.8385,-4.6917,-1.9174,984.8174,55.855846,37.48426,176.4263,NaN,,0.0422,2.0,269.3348,25 / 28,,2754,2021-05-20 21:44:25:979
0.359141,0.842785,9.814133,0.329478,0.799842,9.768423,-0.025862,0.035364,-0.017428,-1959.66,-1939.68,1858.98,135.8385,-4.6917,-1.9174,984.8181,55.855846,37.48426,176.4263,NaN,,0.0422,2.0,269.3348,25 / 28,,2764,2021-05-20 21:44:25:989
0.234639,0.821236,9.857229,0.331385,0.797539,9.768546,-0.00326,0.040862,-0.012541,-1959.48,-1939.2,1858.32,135.8119,-4.6783,-1.9318,984.8181,55.855846,37.48426,176.4263,NaN,,0.0422,2.0,269.3348,25 / 28,,2775,2021-05-20 21:44:26:000
0.253793,0.804476,9.761458,0.331385,0.797539,9.768546,0.012622,0.031088,2.87E-4,-1959.48,-1939.2,1858.32,135.8119,-4.6783,-1.9318,984.8181,55.855846,37.48426,176.4263,NaN,,0.0422,2.0,269.3348,25 / 28,,2784,2021-05-20 21:44:26:009
0.253793,0.804476,9.761458,0.323554,0.798172,9.768758,0.017509,0.013373,-3.24E-4,-1959.48,-1939.8,1858.62,135.8119,-4.6783,-1.9318,984.8181,55.855846,37.48426,176.4263,NaN,,0.0422,2.0,269.3348,25 / 28,,2794,2021-05-20 21:44:26:019
0.361536,0.871516,9.771035,0.323554,0.798172,9.768758,0.012622,-0.003731,-0.007654,-1959.48,-1939.8,1858.62,135.8119,-4.6783,-1.9318,984.8181,55.855846,37.48426,176.4263,NaN,,0.0422,2.0,269.3348,25 / 28,,2804,2021-05-20 21:44:26:029
0.356747,0.876305,9.771035,0.321901,0.804829,9.768266,-0.005704,0.002988,-0.021704,-1958.7,-1939.62,1859.28,135.8392,-4.6685,-1.897,984.8181,55.855846,37.48426,176.4263,NaN,,0.0422,2.0,269.3348,25 / 28,,2814,2021-05-20 21:44:26:039
0.292102,0.85715,9.768641,0.321901,0.804829,9.768266,-0.005704,0.002988,-0.021704,-1958.7,-1939.62,1859.28,135.8392,-4.6685,-1.897,984.8181,55.855846,37.48426,176.4263,NaN,,0.0422,2.0,269.3348,25 / 28,,2824,2021-05-20 21:44:26:049
0.292102,0.85715,9.768641,0.324413,0.809401,9.767805,-0.019754,-0.025722,-0.021093,-1958.7,-1939.98,1858.86,135.8392,-4.6685,-1.897,984.8181,55.855846,37.48426,176.4263,NaN,,0.0422,2.0,269.3348,25 / 28,,2834,2021-05-20 21:44:26:059
0.34717,0.847573,9.742304,0.324413,0.809401,9.767805,-0.021586,-0.032442,-0.020482,-1958.7,-1939.98,1858.86,135.8392,-4.6685,-1.897,984.8181,55.855846,37.48426,176.4263,NaN,,0.0422,2.0,269.3348,25 / 28,,2845,2021-05-20 21:44:26:070
0.407027,0.809265,9.900327,0.330977,0.810864,9.767464,-0.023419,-0.040994,-0.016206,-1959.18,-1939.86,1858.56,135.8624,-4.7343,-1.9022,984.8181,55.855846,37.48426,176.4263,NaN,,0.0422,2.0,269.3348,25 / 28,,2854,2021-05-20 21:44:26:079
0.34717,0.790111,10.055954,0.335892,0.810739,9.767306,-0.001428,-0.019003,-0.012541,-1959.06,-1939.44,1858.56,135.8624,-4.7343,-1.9022,984.8184,55.855846,37.48426,176.4263,NaN,,0.0422,2.0,269.3348,25 / 28,,2864,2021-05-20 21:44:26:089
0.215485,0.706311,9.878778,0.335892,0.810739,9.767306,0.044387,0.010319,-0.005211,-1959.06,-1939.44,1858.56,135.8624,-4.7343,-1.9022,984.8184,55.855846,37.48426,176.4263,NaN,,0.0422,2.0,269.3348,25 / 28,,2874,2021-05-20 21:44:26:099
0.323227,0.747014,9.75667,0.335591,0.813912,9.767053,0.063324,0.010319,0.007007,-1958.7,-1939.26,1859.58,135.8624,-4.7343,-1.9022,984.8184,55.855846,37.48426,176.4263,NaN,,0.0422,2.0,269.3348,25 / 28,,2884,2021-05-20 21:44:26:109
0.323227,0.747014,9.75667,0.335591,0.813912,9.767053,0.052939,0.012762,0.001509,-1958.7,-1939.26,1859.58,135.8624,-4.7343,-1.9022,984.8184,55.855846,37.48426,176.4263,NaN,,0.0422,2.0,269.3348,25 / 28,,2895,2021-05-20 21:44:26:120
0.416604,0.785322,9.742304,0.329327,0.818905,9.766849,0.027894,0.018871,-0.006432,-1958.4,-1939.56,1859.5198,135.8559,-4.7608,-1.9679,984.8184,55.855846,37.48426,176.4263,NaN,,0.0422,2.0,269.3348,25 / 28,,2904,2021-05-20 21:44:26:129
0.385478,0.799688,9.775824,0.329327,0.818905,9.766849,0.005903,0.028034,-0.008876,-1958.4,-1939.56,1859.5198,135.8559,-4.7608,-1.9679,984.8184,55.855846,37.48426,176.4263,NaN,,0.0422,2.0,269.3348,25 / 28,,2914,2021-05-20 21:44:26:139
0.289707,0.830813,9.735122,0.327431,0.817506,9.76703,-0.016088,0.049414,-0.01193,-1959.0,-1939.62,1859.1,135.8559,-4.7608,-1.9679,984.8184,55.855846,37.48426,176.4263,NaN,,0.0422,2.0,269.3348,25 / 28,,2925,2021-05-20 21:44:26:150
0.241822,0.883487,9.684841,0.327431,0.817506,9.76703,-0.02403,0.045138,-0.005211,-1959.0,-1939.62,1859.1,135.8559,-4.7608,-1.9679,984.8184,55.855846,37.48426,176.4263,NaN,,0.0422,2.0,269.3348,25 / 28,,2934,2021-05-20 21:44:26:159
0.241822,0.883487,9.684841,0.32136,0.811143,9.767761,-0.018532,0.035975,-3.24E-4,-1959.06,-1939.92,1859.16,135.8724,-4.7819,-1.9201,984.8184,55.855846,37.48426,176.4263,NaN,,0.0422,2.0,269.3348,25 / 28,,2944,2021-05-20 21:44:26:169
0.217879,0.921796,9.58907,0.32136,0.811143,9.767761,-0.006315,0.015206,0.005785,-1959.06,-1939.92,1859.16,135.8724,-4.7819,-1.9201,984.8184,55.855846,37.48426,176.4263,NaN,,0.0422,2.0,269.3348,25 / 28,,2955,2021-05-20 21:44:26:180
0.205908,0.900247,9.553157,0.312631,0.810797,9.768073,0.002848,-6.77E-4,0.008839,-1958.94,-1939.62,1858.8,135.8724,-4.7819,-1.9201,984.8176,55.855846,37.48426,176.4263,NaN,,0.0422,2.0,269.3348,25 / 28,,2964,2021-05-20 21:44:26:189
0.320833,0.895459,9.567522,0.312631,0.810797,9.768073,0.005903,-0.016559,0.007007,-1958.94,-1939.62,1858.8,135.8724,-4.7819,-1.9201,984.8176,55.855846,37.48426,176.4263,NaN,,0.0422,2.0,269.3348,25 / 28,,2975,2021-05-20 21:44:26:200
0.349564,0.845179,9.656111,0.307177,0.819284,9.767539,-0.002038,0.002377,-0.005822,-1959.24,-1939.74,1858.44,135.8984,-4.7425,-1.8331,984.8176,55.855846,37.48426,176.4263,NaN,,0.0422,2.0,269.3348,25 / 28,,2984,2021-05-20 21:44:26:209
0.349564,0.845179,9.656111,0.307177,0.819284,9.767539,-0.002649,0.009097,-0.006432,-1959.24,-1939.74,1858.44,135.8984,-4.7425,-1.8331,984.8176,55.855846,37.48426,176.4263,NaN,,0.0422,2.0,269.3348,25 / 28,,2994,2021-05-20 21:44:26:219
0.301679,0.768562,9.811738,0.305738,0.827277,9.766909,0.001627,0.010319,-0.005822,-1959.18,-1940.22,1858.8,135.8984,-4.7425,-1.8331,984.8176,55.855846,37.48426,176.4263,NaN,,0.0422,2.0,269.3348,25 / 28,,3004,2021-05-20 21:44:26:229
0.299284,0.778139,9.828498,0.305738,0.827277,9.766909,-0.002038,0.005432,-0.010098,-1959.18,-1940.22,1858.8,135.8984,-4.7425,-1.8331,984.8176,55.855846,37.48426,176.4263,NaN,,0.0422,2.0,269.3348,25 / 28,,3014,2021-05-20 21:44:26:239
0.287313,0.802082,9.845258,0.302768,0.829353,9.766826,-0.008147,0.017649,-0.016817,-1959.48,-1940.28,1859.28,135.9563,-4.8392,-1.793,984.8176,55.855846,37.48426,176.4263,NaN,,0.0422,2.0,269.3348,25 / 28,,3025,2021-05-20 21:44:26:250
0.210696,0.816448,9.840469,0.301069,0.828901,9.766917,-0.008147,0.018871,-0.015595,-1959.3,-1940.46,1859.34,135.9563,-4.8392,-1.793,984.8176,55.855846,37.48426,176.4263,NaN,,0.0422,2.0,269.3348,25 / 28,,3034,2021-05-20 21:44:26:259
0.210696,0.816448,9.840469,0.301069,0.828901,9.766917,-0.015477,0.021314,-0.013152,-1959.3,-1940.46,1859.34,135.9563,-4.8392,-1.793,984.8176,55.855846,37.48426,176.4263,NaN,,0.0422,2.0,269.3348,25 / 28,,3044,2021-05-20 21:44:26:269
0.189148,0.816448,9.794978,0.294006,0.825307,9.767437,-0.016699,0.009708,-0.013152,-1959.12,-1940.28,1859.46,135.9563,-4.8392,-1.793,984.8176,55.855846,37.48426,176.4263,NaN,,0.0422,2.0,269.3348,25 / 28,,3054,2021-05-20 21:44:26:279
0.220273,0.821236,9.871595,0.294006,0.825307,9.767437,-0.016699,0.009708,-0.013152,-1959.12,-1940.28,1859.46,135.9563,-4.8392,-1.793,984.8176,55.855846,37.48426,176.4263,NaN,,0.0422,2.0,269.3348,25 / 28,,3064,2021-05-20 21:44:26:289
0.272947,0.859545,9.828498,0.284604,0.821852,9.768006,0.003459,-0.004342,-0.010708,-1959.78,-1939.86,1859.28,135.9901,-4.8073,-1.6689,984.8176,55.855846,37.48426,176.4263,NaN,,0.0422,2.0,269.3348,25 / 28,,3074,2021-05-20 21:44:26:299
0.272947,0.859545,9.828498,0.284604,0.821852,9.768006,0.018731,-0.023279,-0.019871,-1959.78,-1939.86,1859.28,135.9901,-4.8073,-1.6689,984.8176,55.855846,37.48426,176.4263,NaN,,0.0422,2.0,269.3348,25 / 28,,3085,2021-05-20 21:44:26:310
0.359141,0.833208,9.778218,0.282053,0.823988,9.7679,0.030948,-0.046492,-0.02598,-1960.14,-1939.44,1858.86,135.9901,-4.8073,-1.6689,984.8176,55.855846,37.48426,176.4263,NaN,,0.0422,2.0,269.3348,25 / 28,,3094,2021-05-20 21:44:26:319
0.421392,0.816448,9.735122,0.282053,0.823988,9.7679,0.019953,-0.043437,-0.027202,-1960.14,-1939.44,1858.86,135.9901,-4.8073,-1.6689,984.8176,55.855846,37.48426,176.4263,NaN,,0.0422,2.0,269.3348,25 / 28,,3104,2021-05-20 21:44:26:329
0.435758,0.854756,9.696813,0.29027,0.827942,9.767325,0.002238,-0.015948,-0.024758,-1959.06,-1939.14,1858.68,136.0028,-4.8199,-1.654,984.8176,55.855846,37.48426,176.4263,NaN,,0.0422,2.0,269.3348,25 / 28,,3114,2021-05-20 21:44:26:339
0.395055,0.842785,9.651321,0.29027,0.827942,9.767325,-0.021586,0.017038,-0.023537,-1959.06,-1939.14,1858.68,136.0028,-4.8199,-1.654,984.8176,55.855846,37.48426,176.4263,NaN,,0.0422,2.0,269.3348,25 / 28,,3124,2021-05-20 21:44:26:349
0.28013,0.917007,9.720756,0.29697,0.826363,9.767258,-0.035025,0.031088,-0.016817,-1958.82,-1939.8,1858.44,136.0028,-4.8199,-1.654,984.8176,55.855846,37.48426,176.4263,NaN,,0.0422,2.0,269.3348,25 / 28,,3135,2021-05-20 21:44:26:360
0.28013,0.917007,9.720756,0.29697,0.826363,9.767258,-0.02403,0.026201,-0.012541,-1958.82,-1939.8,1858.44,136.0028,-4.8199,-1.654,984.8176,55.855846,37.48426,176.4263,NaN,,0.0422,2.0,269.3348,25 / 28,,3144,2021-05-20 21:44:26:369
0.222668,0.984047,9.677659,0.298699,0.824202,9.767387,0.006514,0.015206,-0.008265,-1959.12,-1940.34,1858.2,135.9786,-4.8338,-1.7415,984.8176,55.855846,37.48426,176.4263,NaN,,0.0422,2.0,269.3348,25 / 28,,3154,2021-05-20 21:44:26:379
0.174782,0.950527,9.574705,0.298699,0.824202,9.767387,0.012622,-6.6E-5,-0.009487,-1959.12,-1940.34,1858.2,135.9786,-4.8338,-1.7415,984.8201,55.855846,37.48426,176.4263,NaN,,0.0422,2.0,269.3348,25 / 28,,3164,2021-05-20 21:44:26:389
0.169994,0.893065,9.58907,0.298112,0.835674,9.766431,0.002238,-0.015338,-0.016206,-1958.94,-1940.4,1858.0198,135.9786,-4.8338,-1.7415,984.8201,55.855846,37.48426,176.4263,NaN,,0.0422,2.0,269.3348,25 / 28,,3174,2021-05-20 21:44:26:399
0.169994,0.893065,9.58907,0.298112,0.835674,9.766431,-0.028306,-0.029998,-0.014985,-1958.94,-1940.4,1858.0198,135.9786,-4.8338,-1.7415,984.8201,55.855846,37.48426,176.4263,NaN,,0.0422,2.0,269.3348,25 / 28,,3184,2021-05-20 21:44:26:409
0.198725,0.833208,9.809344,0.295322,0.846906,9.765548,-0.04541,-0.03794,-0.019871,-1959.06,-1940.04,1858.62,135.9972,-4.8884,-1.7484,984.8201,55.855846,37.48426,176.4263,NaN,,0.0422,2.0,269.3348,25 / 28,,3194,2021-05-20 21:44:26:419
0.205908,0.775745,10.020041,0.295322,0.846906,9.765548,-0.037469,-0.036107,-0.015595,-1959.06,-1940.04,1858.62,135.9972,-4.8884,-1.7484,984.8201,55.855846,37.48426,176.4263,NaN,,0.0422,2.0,269.3348,25 / 28,,3204,2021-05-20 21:44:26:429
0.172388,0.778139,10.051166,0.291347,0.845205,9.765815,-0.013645,-0.028166,-0.008876,-1958.88,-1939.98,1858.98,135.9972,-4.8884,-1.7484,984.8201,55.855846,37.48426,176.4263,NaN,,0.0422,2.0,269.3348,25 / 28,,3214,2021-05-20 21:44:26:439
0.210696,0.763774,9.953,0.291347,0.845205,9.765815,0.00407,-0.022057,-0.005822,-1958.88,-1939.98,1858.98,135.9972,-4.8884,-1.7484,984.8201,55.855846,37.48426,176.4263,NaN,,0.0422,2.0,269.3348,25 / 28,,3224,2021-05-20 21:44:26:449
0.294496,0.823631,9.890749,0.283295,0.842356,9.766297,0.00407,-0.006785,0.005785,-1959.18,-1939.92,1858.14,136.0375,-4.9443,-1.7088,984.8201,55.855846,37.48426,176.4263,NaN,,0.0422,2.0,269.3348,25 / 28,,3234,2021-05-20 21:44:26:459
0.294496,0.823631,9.890749,0.283295,0.842356,9.766297,0.002848,0.021314,0.005785,-1959.18,-1939.92,1858.14,136.0375,-4.9443,-1.7088,984.8201,55.855846,37.48426,176.4263,NaN,,0.0422,2.0,269.3348,25 / 28,,3244,2021-05-20 21:44:26:469
0.368718,0.821236,9.802161,0.273445,0.840093,9.766773,-0.004482,0.02559,0.011283,-1959.72,-1939.14,1858.5,136.0375,-4.9443,-1.7088,984.8201,55.855846,37.48426,176.4263,NaN,,0.0422,2.0,269.3348,25 / 28,,3254,2021-05-20 21:44:26:479
0.38069,0.845179,9.80695,0.273445,0.840093,9.766773,-0.005093,0.017649,0.006396,-1959.72,-1939.14,1858.5,136.0375,-4.9443,-1.7088,984.8149,55.855846,37.48426,176.4263,NaN,,0.0422,2.0,269.3348,25 / 28,,3264,2021-05-20 21:44:26:489
0.39745,0.869122,9.878778,0.268744,0.836401,9.76722,-2.06E-4,-0.001899,-0.008265,-1959.36,-1939.26,1859.1,136.0643,-4.9143,-1.6037,984.8149,55.855846,37.48426,176.4263,NaN,,0.0422,2.0,269.3348,25 / 28,,3274,2021-05-20 21:44:26:499
0.33041,0.861939,9.845258,0.268744,0.836401,9.76722,0.021785,-0.008618,-0.014374,-1959.36,-1939.26,1859.1,136.0643,-4.9143,-1.6037,984.8149,55.855846,37.48426,176.4263,NaN,,0.0422,2.0,269.3348,25 / 28,,3284,2021-05-20 21:44:26:509
0.33041,0.861939,9.845258,0.275952,0.83739,9.766934,0.032781,-0.006175,-0.013152,-1959.24,-1940.16,1858.44,136.0643,-4.9143,-1.6037,984.8149,55.855846,37.48426,176.4263,NaN,,0.0422,2.0,269.3348,25 / 28,,3294,2021-05-20 21:44:26:519
0.282524,0.84039,9.751882,0.275952,0.83739,9.766934,0.034613,-0.004342,-0.005211,-1959.24,-1940.16,1858.44,136.0643,-4.9143,-1.6037,984.8149,55.855846,37.48426,176.4263,NaN,,0.0422,2.0,269.3348,25 / 28,,3305,2021-05-20 21:44:26:530
0.306467,0.87391,9.668081,0.283924,0.843496,9.766181,0.026672,0.012762,-0.006432,-1959.3,-1940.22,1858.8,136.0646,-4.8985,-1.6184,984.8149,55.855846,37.48426,176.4263,NaN,,0.0422,2.0,269.3348,25 / 28,,3314,2021-05-20 21:44:26:539
0.328016,0.864333,9.613013,0.283924,0.843496,9.766181,0.007735,0.020703,-3.24E-4,-1959.3,-1940.22,1858.8,136.0646,-4.8985,-1.6184,984.8149,55.855846,37.48426,176.4263,NaN,,0.0422,2.0,269.3348,25 / 28,,3324,2021-05-20 21:44:26:549
0.328016,0.864333,9.613013,0.286487,0.848131,9.765705,-0.011812,0.021925,-0.002767,-1959.06,-1940.4,1859.5198,136.0646,-4.8985,-1.6184,984.8149,55.855846,37.48426,176.4263,NaN,,0.0422,2.0,269.3348,25 / 28,,3334,2021-05-20 21:44:26:559
0.385478,0.826025,9.668081,0.286487,0.848131,9.765705,-0.014256,0.003599,-0.007043,-1959.06,-1940.4,1859.5198,136.0646,-4.8985,-1.6184,984.8149,55.855846,37.48426,176.4263,NaN,,0.0422,2.0,269.3348,25 / 28,,3344,2021-05-20 21:44:26:569
0.387873,0.799688,9.77343,0.289961,0.846875,9.765711,-0.005093,-0.012283,-0.01865,-1959.12,-1940.28,1858.86,136.0589,-4.9614,-1.6803,984.8149,55.855846,37.48426,176.4263,NaN,,0.0422,2.0,269.3348,25 / 28,,3354,2021-05-20 21:44:26:579
0.311256,0.723071,9.888355,0.289961,0.846875,9.765711,0.00407,-0.014727,-0.017428,-1959.12,-1940.28,1858.86,136.0589,-4.9614,-1.6803,984.8149,55.855846,37.48426,176.4263,NaN,,0.0422,2.0,269.3348,25 / 28,,3364,2021-05-20 21:44:26:589
0.282524,0.763774,9.859624,0.299743,0.843271,9.765728,0.015677,-0.002509,-0.01193,-1959.18,-1939.44,1858.8,136.0589,-4.9614,-1.6803,984.8149,55.855846,37.48426,176.4263,NaN,,0.0422,2.0,269.3348,25 / 28,,3374,2021-05-20 21:44:26:599
0.282524,0.763774,9.859624,0.299743,0.843271,9.765728,0.014455,0.013373,-0.002156,-1959.18,-1939.44,1858.8,136.0589,-4.9614,-1.6803,984.8149,55.855846,37.48426,176.4263,NaN,,0.0422,2.0,269.3348,25 / 28,,3384,2021-05-20 21:44:26:609
0.270553,0.818842,9.814133,0.304073,0.838394,9.766013,0.018731,0.016427,0.005174,-1959.42,-1939.32,1859.28,135.9962,-4.9329,-1.7581,984.8149,55.855846,37.48426,176.4263,NaN,,0.0422,2.0,269.3348,25 / 28,,3394,2021-05-20 21:44:26:619
0.268159,0.837996,9.737515,0.304073,0.838394,9.766013,0.015066,0.012762,0.013726,-1959.42,-1939.32,1859.28,135.9962,-4.9329,-1.7581,984.8149,55.855846,37.48426,176.4263,NaN,,0.0422,2.0,269.3348,25 / 28,,3404,2021-05-20 21:44:26:629
0.323227,0.888276,9.73991,0.302246,0.834759,9.766381,0.008346,0.01154,0.013115,-1959.12,-1939.74,1858.98,135.9962,-4.9329,-1.7581,984.8149,55.855846,37.48426,176.4263,NaN,,0.0422,2.0,269.3348,25 / 28,,3414,2021-05-20 21:44:26:639
0.339987,0.914613,9.742304,0.302246,0.834759,9.766381,0.013233,0.002377,0.005785,-1959.12,-1939.74,1858.98,135.9962,-4.9329,-1.7581,984.8149,55.855846,37.48426,176.4263,NaN,,0.0422,2.0,269.3348,25 / 28,,3424,2021-05-20 21:44:26:649
0.339987,0.914613,9.742304,0.301157,0.834209,9.766462,0.017509,-0.022668,2.87E-4,-1958.46,-1940.04,1858.26,135.9969,-4.883,-1.7726,984.8149,55.855846,37.48426,176.4263,NaN,,0.0422,2.0,269.3348,25 / 28,,3434,2021-05-20 21:44:26:659
0.335198,0.912219,9.718362,0.301157,0.834209,9.766462,0.018731,-0.033664,-0.007654,-1958.46,-1940.04,1858.26,135.9969,-4.883,-1.7726,984.8149,55.855846,37.48426,176.4263,NaN,,0.0422,2.0,269.3348,25 / 28,,3445,2021-05-20 21:44:26:670
0.292102,0.876305,9.708784,0.306269,0.839827,9.765821,0.008957,-0.013505,-0.007654,-1958.58,-1940.4,1858.86,135.9969,-4.883,-1.7726,984.8149,55.855846,37.48426,176.4263,NaN,,0.0422,2.0,269.3348,25 / 28,,3455,2021-05-20 21:44:26:680
0.234639,0.852362,9.687236,0.306269,0.839827,9.765821,0.008957,0.003599,-0.0046,-1958.58,-1940.4,1858.86,135.9969,-4.883,-1.7726,984.8125,55.855846,37.48426,176.4263,NaN,,0.0422,2.0,269.3348,25 / 28,,3464,2021-05-20 21:44:26:689
0.253793,0.864333,9.747093,0.308756,0.845312,9.76527,-0.011201,0.003599,-0.0046,-1958.7,-1940.4,1859.64,135.9841,-4.9127,-1.7963,984.8125,55.855846,37.48426,176.4263,NaN,,0.0422,2.0,269.3348,25 / 28,,3474,2021-05-20 21:44:26:699
0.253793,0.864333,9.747093,0.308756,0.845312,9.76527,-0.010591,0.020703,-0.003989,-1958.7,-1940.4,1859.64,135.9841,-4.9127,-1.7963,984.8125,55.855846,37.48426,176.4263,NaN,,0.0422,2.0,269.3348,25 / 28,,3485,2021-05-20 21:44:26:710
0.301679,0.861939,9.761458,0.30195,0.846536,9.765377,-0.005093,0.019482,-0.01193,-1958.88,-1940.1,1858.92,135.9841,-4.9127,-1.7963,984.8125,55.855846,37.48426,176.4263,NaN,,0.0422,2.0,269.3348,25 / 28,,3495,2021-05-20 21:44:26:720
0.354353,0.89067,9.80695,0.30195,0.846536,9.765377,0.00407,0.01154,-0.017428,-1958.88,-1940.1,1858.92,135.9841,-4.9127,-1.7963,984.8125,55.855846,37.48426,176.4263,NaN,,0.0422,2.0,269.3348,25 / 28,,3504,2021-05-20 21:44:26:729
0.36393,0.845179,9.785401,0.296204,0.849549,9.765291,0.008957,0.006043,-0.021704,-1958.7,-1939.74,1859.04,136.011,-4.9521,-1.771,984.8125,55.855846,37.48426,176.4263,NaN,,0.0422,2.0,269.3348,25 / 28,,3514,2021-05-20 21:44:26:739
0.356747,0.87391,9.821315,0.296204,0.849549,9.765291,0.003459,-0.003731,-0.022315,-1958.7,-1939.74,1859.04,136.011,-4.9521,-1.771,984.8125,55.855846,37.48426,176.4263,NaN,,0.0422,2.0,269.3348,25 / 28,,3524,2021-05-20 21:44:26:749
0.356747,0.87391,9.821315,0.298542,0.853521,9.764874,-0.002038,-0.006175,-0.028424,-1958.64,-1940.1,1858.86,136.011,-4.9521,-1.771,984.8125,55.855846,37.48426,176.4263,NaN,,0.0422,2.0,269.3348,25 / 28,,3534,2021-05-20 21:44:26:759
0.320833,0.821236,9.771035,0.298542,0.853521,9.764874,-0.00326,-0.012283,-0.019871,-1958.64,-1940.1,1858.86,136.011,-4.9521,-1.771,984.8125,55.855846,37.48426,176.4263,NaN,,0.0422,2.0,269.3348,25 / 28,,3544,2021-05-20 21:44:26:769
0.33041,0.837996,9.809344,0.30368,0.854908,9.764594,0.002848,-0.024501,-0.01865,-1959.48,-1940.7,1857.72,136.0495,-4.993,-1.7512,984.8125,55.855846,37.48426,176.4263,NaN,,0.0422,2.0,269.3348,25 / 28,,3554,2021-05-20 21:44:26:779
0.318439,0.823631,9.821315,0.30368,0.854908,9.764594,0.023007,-0.03122,-0.021704,-1959.48,-1940.7,1857.72,136.0495,-4.993,-1.7512,984.8137,55.855846,37.48426,176.4263,NaN,,0.0422,2.0,269.3348,25 / 28,,3564,2021-05-20 21:44:26:789
0.318439,0.823631,9.821315,0.310953,0.855394,9.764322,0.048663,-0.043437,-0.027202,-1959.84,-1939.86,1858.38,136.0495,-4.993,-1.7512,984.8137,55.855846,37.48426,176.4263,NaN,,0.0422,2.0,269.3348,25 / 28,,3574,2021-05-20 21:44:26:799
0.299284,0.816448,9.747093,0.310953,0.855394,9.764322,0.06027,-0.053211,-0.030256,-1959.84,-1939.86,1858.38,136.0495,-4.993,-1.7512,984.8137,55.855846,37.48426,176.4263,NaN,,0.0422,2.0,269.3348,25 / 28,,3584,2021-05-20 21:44:26:809
0.301679,0.797294,9.715967,0.318942,0.861941,9.763489,0.054161,-0.041605,-0.027202,-1959.24,-1939.5,1859.4,135.9917,-5.004,-1.824,984.8137,55.855846,37.48426,176.4263,NaN,,0.0422,2.0,269.3348,25 / 28,,3595,2021-05-20 21:44:26:820
0.284919,0.811659,9.732727,0.321794,0.863731,9.763237,0.041333,-0.032442,-0.017428,-1959.12,-1939.86,1858.98,135.9917,-5.004,-1.824,984.8137,55.855846,37.48426,176.4263,NaN,,0.0422,2.0,269.3348,25 / 28,,3604,2021-05-20 21:44:26:829
0.284919,0.811659,9.732727,0.321794,0.863731,9.763237,0.007125,-0.015948,-0.007654,-1959.12,-1939.86,1858.98,135.9917,-5.004,-1.824,984.8137,55.855846,37.48426,176.4263,NaN,,0.0422,2.0,269.3348,25 / 28,,3614,2021-05-20 21:44:26:839
0.34717,0.842785,9.766247,0.321794,0.863731,9.763237,0.003459,-0.010451,-0.003378,-1959.12,-1939.86,1858.98,135.9917,-5.004,-1.824,984.8137,55.855846,37.48426,176.4263,NaN,,0.0422,2.0,269.3348,25 / 28,,3625,2021-05-20 21:44:26:850
0.34717,0.842785,9.766247,0.323313,0.862307,9.763313,0.003459,-0.010451,-0.003378,-1958.76,-1939.98,1858.8,135.9932,-5.0529,-1.8878,984.8137,55.855846,37.48426,176.4108,NaN,,0.0181,2.0,269.3348,26 / 27,,3635,2021-05-20 21:44:26:860
0.328016,0.852362,9.857229,0.322233,0.854419,9.764042,-0.010591,0.004821,0.00212,-1958.88,-1940.1,1858.68,135.9932,-5.0529,-1.8878,984.8137,55.855846,37.48426,176.4108,NaN,,0.0181,2.0,269.3348,26 / 27,,3644,2021-05-20 21:44:26:869
0.316044,0.830813,9.871595,0.322233,0.854419,9.764042,0.001627,0.006654,0.003952,-1958.88,-1940.1,1858.68,135.9932,-5.0529,-1.8878,984.8137,55.855846,37.48426,176.4108,NaN,,0.0181,2.0,269.3348,26 / 27,,3654,2021-05-20 21:44:26:879
0.337593,0.881093,9.826104,0.320412,0.848421,9.764626,0.012622,5.45E-4,0.008839,-1959.12,-1940.76,1858.5,135.9932,-5.0529,-1.8878,984.8137,55.855846,37.48426,176.4108,NaN,,0.0181,2.0,269.3348,26 / 27,,3665,2021-05-20 21:44:26:890
0.337593,0.881093,9.826104,0.320412,0.848421,9.764626,0.024229,-0.002509,0.006396,-1959.12,-1940.76,1858.5,135.9932,-5.0529,-1.8878,984.8137,55.855846,37.48426,176.4108,NaN,,0.0181,2.0,269.3348,26 / 27,,3674,2021-05-20 21:44:26:899
0.320833,0.90743,9.677659,0.320729,0.848842,9.764579,0.024229,5.45E-4,0.005785,-1959.3,-1940.4,1858.5,135.9625,-4.9631,-1.8794,984.8137,55.855846,37.48426,176.4108,NaN,,0.0181,2.0,269.3348,26 / 27,,3684,2021-05-20 21:44:26:909
0.320833,0.893065,9.557945,0.320729,0.848842,9.764579,0.008957,-0.001899,-0.001545,-1959.3,-1940.4,1858.5,135.9625,-4.9631,-1.8794,984.8137,55.855846,37.48426,176.4108,NaN,,0.0181,2.0,269.3348,26 / 27,,3695,2021-05-20 21:44:26:920
0.361536,0.883487,9.658504,0.320959,0.852644,9.764239,-0.003871,-0.012894,-0.01193,-1959.0,-1939.62,1858.62,135.9625,-4.9631,-1.8794,984.8137,55.855846,37.48426,176.4108,NaN,,0.0181,2.0,269.3348,26 / 27,,3704,2021-05-20 21:44:26:929
0.359141,0.852362,9.768641,0.320959,0.852644,9.764239,-0.006925,-0.013505,-0.019871,-1959.0,-1939.62,1858.62,135.9625,-4.9631,-1.8794,984.8137,55.855846,37.48426,176.4108,NaN,,0.0181,2.0,269.3348,26 / 27,,3714,2021-05-20 21:44:26:939
0.316044,0.852362,9.735122,0.32589,0.853267,9.764022,0.005903,-0.015948,-0.019871,-1959.48,-1939.2,1858.5,135.9569,-4.9879,-1.8827,984.8137,55.855846,37.48426,176.4108,NaN,,0.0181,2.0,269.3348,26 / 27,,3725,2021-05-20 21:44:26:950
0.316044,0.852362,9.735122,0.328294,0.853997,9.763877,0.010179,-0.019003,-0.014374,-1959.72,-1939.26,1858.74,135.9569,-4.9879,-1.8827,984.8137,55.855846,37.48426,176.4108,NaN,,0.0181,2.0,269.3348,26 / 27,,3734,2021-05-20 21:44:26:959
0.349564,0.87391,9.720756,0.328294,0.853997,9.763877,0.001627,-0.008618,-0.008876,-1959.72,-1939.26,1858.74,135.9569,-4.9879,-1.8827,984.8137,55.855846,37.48426,176.4108,NaN,,0.0181,2.0,269.3348,26 / 27,,3744,2021-05-20 21:44:26:969
0.270553,0.809265,9.821315,0.332098,0.856911,9.763494,-0.014256,0.012151,0.00212,-1959.48,-1939.5,1858.86,135.9569,-4.9879,-1.8827,984.8137,55.855846,37.48426,176.4108,NaN,,0.0181,2.0,269.3348,26 / 27,,3754,2021-05-20 21:44:26:979
0.299284,0.811659,9.90272,0.332098,0.856911,9.763494,-0.020364,0.02559,0.007617,-1959.48,-1939.5,1858.86,135.9569,-4.9879,-1.8827,984.8193,55.855846,37.48426,176.4108,NaN,,0.0181,2.0,269.3348,26 / 27,,3764,2021-05-20 21:44:26:989
0.320833,0.809265,9.991309,0.32869,0.854512,9.763819,-0.013645,0.020093,0.008839,-1959.24,-1940.04,1859.16,135.9484,-5.0129,-1.9481,984.8193,55.855846,37.48426,176.4108,NaN,,0.0181,2.0,269.3348,26 / 27,,3774,2021-05-20 21:44:26:999
0.320833,0.809265,9.991309,0.32869,0.854512,9.763819,0.007125,0.007875,8.98E-4,-1959.24,-1940.04,1859.16,135.9484,-5.0129,-1.9481,984.8193,55.855846,37.48426,176.4108,NaN,,0.0181,2.0,269.3348,26 / 27,,3784,2021-05-20 21:44:27:009
0.33041,0.852362,9.962578,0.324399,0.851035,9.764266,0.030337,-0.005564,-0.0046,-1959.12,-1940.1,1859.64,135.9484,-5.0129,-1.9481,984.8193,55.855846,37.48426,176.4108,NaN,,0.0181,2.0,269.3348,26 / 27,,3794,2021-05-20 21:44:27:019
0.292102,0.861939,9.838076,0.324399,0.851035,9.764266,0.044998,-0.008618,-0.003378,-1959.12,-1940.1,1859.64,135.9484,-5.0129,-1.9481,984.8193,55.855846,37.48426,176.4108,NaN,,0.0181,2.0,269.3348,26 / 27,,3804,2021-05-20 21:44:27:029
0.395055,0.85715,9.70639,0.323849,0.854117,9.764015,0.035835,-0.004953,-0.002767,-1959.6,-1939.92,1859.1,135.9429,-4.9785,-1.9028,984.8193,55.855846,37.48426,176.4108,NaN,,0.0181,2.0,269.3348,26 / 27,,3814,2021-05-20 21:44:27:039
0.438152,0.864333,9.651321,0.323849,0.854117,9.764015,0.021785,5.45E-4,-0.008265,-1959.6,-1939.92,1859.1,135.9429,-4.9785,-1.9028,984.8193,55.855846,37.48426,176.4108,NaN,,0.0181,2.0,269.3348,26 / 27,,3824,2021-05-20 21:44:27:049
0.438152,0.864333,9.651321,0.325182,0.858448,9.763591,0.011401,0.002377,-0.011319,-1959.66,-1940.22,1858.86,135.9429,-4.9785,-1.9028,984.8193,55.855846,37.48426,176.4108,NaN,,0.0181,2.0,269.3348,26 / 27,,3834,2021-05-20 21:44:27:059
0.457306,0.905036,9.727939,0.325182,0.858448,9.763591,0.009568,0.005432,-0.018039,-1959.66,-1940.22,1858.86,135.9429,-4.9785,-1.9028,984.8193,55.855846,37.48426,176.4108,NaN,,0.0181,2.0,269.3348,26 / 27,,3845,2021-05-20 21:44:27:070
0.450124,0.943344,9.75667,0.331279,0.861012,9.76316,0.01079,0.005432,-0.024148,-1959.06,-1940.34,1858.92,135.9716,-5.022,-1.9076,984.8193,55.855846,37.48426,176.4108,NaN,,0.0181,2.0,269.3348,26 / 27,,3855,2021-05-20 21:44:27:080
0.361536,0.955316,9.725544,0.331279,0.861012,9.76316,0.019342,0.003599,-0.0327,-1959.06,-1940.34,1858.92,135.9716,-5.022,-1.9076,984.8201,55.855846,37.48426,176.4108,NaN,,0.0181,2.0,269.3348,26 / 27,,3864,2021-05-20 21:44:27:089
0.361536,0.955316,9.725544,0.340064,0.866513,9.762371,0.019342,0.003599,-0.0327,-1959.06,-1940.16,1858.56,135.9716,-5.022,-1.9076,984.8201,55.855846,37.48426,176.4108,NaN,,0.0181,2.0,269.3348,26 / 27,,3874,2021-05-20 21:44:27:099
0.222668,0.952921,9.656111,0.340064,0.866513,9.762371,0.031559,0.007875,-0.026591,-1959.06,-1940.16,1858.56,135.9716,-5.022,-1.9076,984.8201,55.855846,37.48426,176.4108,NaN,,0.0181,2.0,269.3348,26 / 27,,3885,2021-05-20 21:44:27:110
0.201119,0.912219,9.682447,0.342109,0.877839,9.761289,0.017509,0.015206,-0.01865,-1958.7,-1939.92,1858.32,135.9467,-5.0693,-1.995,984.8201,55.855846,37.48426,176.4108,NaN,,0.0181,2.0,269.3348,26 / 27,,3894,2021-05-20 21:44:27:119
0.275342,0.881093,9.818921,0.342109,0.877839,9.761289,0.006514,0.019482,-0.008876,-1958.7,-1939.92,1858.32,135.9467,-5.0693,-1.995,984.8201,55.855846,37.48426,176.4108,NaN,,0.0181,2.0,269.3348,26 / 27,,3904,2021-05-20 21:44:27:129
0.311256,0.885882,9.881172,0.334363,0.885523,9.760862,-0.003871,0.021925,-0.01193,-1957.8,-1940.16,1858.56,135.9467,-5.0693,-1.995,984.8201,55.855846,37.48426,176.4108,NaN,,0.0181,2.0,269.3348,26 / 27,,3914,2021-05-20 21:44:27:139
0.311256,0.885882,9.881172,0.334363,0.885523,9.760862,0.006514,0.002377,-0.01865,-1957.8,-1940.16,1858.56,135.9467,-5.0693,-1.995,984.8201,55.855846,37.48426,176.4108,NaN,,0.0181,2.0,269.3348,26 / 27,,3924,2021-05-20 21:44:27:149
0.390267,0.849968,9.835681,0.327271,0.887895,9.760887,0.012011,-0.029388,-0.029034,-1958.46,-1940.16,1858.86,136.0206,-5.1808,-1.9619,984.8201,55.855846,37.48426,176.4108,NaN,,0.0181,2.0,269.3348,26 / 27,,3934,2021-05-20 21:44:27:159
0.351958,0.866728,9.775824,0.327271,0.887895,9.760887,0.017509,-0.04527,-0.0327,-1958.46,-1940.16,1858.86,136.0206,-5.1808,-1.9619,984.8201,55.855846,37.48426,176.4108,NaN,,0.0181,2.0,269.3348,26 / 27,,3944,2021-05-20 21:44:27:169
0.342381,0.881093,9.653716,0.333619,0.889856,9.760494,0.021174,-0.050157,-0.031478,-1959.36,-1939.8,1858.8,136.0206,-5.1808,-1.9619,984.8201,55.855846,37.48426,176.4108,NaN,,0.0181,2.0,269.3348,26 / 27,,3955,2021-05-20 21:44:27:180
0.344776,0.912219,9.653716,0.333619,0.889856,9.760494,0.024229,-0.036107,-0.030867,-1959.36,-1939.8,1858.8,136.0206,-5.1808,-1.9619,984.8201,55.855846,37.48426,176.4108,NaN,,0.0181,2.0,269.3348,26 / 27,,3965,2021-05-20 21:44:27:190
0.344776,0.912219,9.653716,0.341466,0.892362,9.759994,0.028505,-0.011672,-0.02598,-1960.0198,-1940.34,1859.34,136.004,-5.2062,-1.9576,984.8201,55.855846,37.48426,176.4108,NaN,,0.0181,2.0,269.3348,26 / 27,,3974,2021-05-20 21:44:27:199
0.337593,0.945739,9.627379,0.341466,0.892362,9.759994,0.023007,0.006043,-0.026591,-1960.0198,-1940.34,1859.34,136.004,-5.2062,-1.9576,984.8201,55.855846,37.48426,176.4108,NaN,,0.0181,2.0,269.3348,26 / 27,,3984,2021-05-20 21:44:27:209
0.371113,0.936161,9.603436,0.341983,0.898101,9.759449,0.013233,0.010319,-0.022315,-1960.14,-1940.22,1859.1,136.004,-5.2062,-1.9576,984.8201,55.855846,37.48426,176.4108,NaN,,0.0181,2.0,269.3348,26 / 27,,3994,2021-05-20 21:44:27:219
0.445335,0.931373,9.660899,0.341983,0.898101,9.759449,-0.005093,0.022536,-0.024758,-1960.14,-1940.22,1859.1,136.004,-5.2062,-1.9576,984.8201,55.855846,37.48426,176.4108,NaN,,0.0181,2.0,269.3348,26 / 27,,4004,2021-05-20 21:44:27:229
0.459701,0.92419,9.703996,0.34101,0.902244,9.759101,-0.022808,0.013373,-0.025369,-1959.54,-1939.56,1859.1,135.9986,-5.2546,-2.0069,984.8201,55.855846,37.48426,176.4108,NaN,,0.0181,2.0,269.3348,26 / 27,,4014,2021-05-20 21:44:27:239
0.459701,0.92419,9.703996,0.34101,0.902244,9.759101,-0.027695,-6.77E-4,-0.026591,-1959.54,-1939.56,1859.1,135.9986,-5.2546,-2.0069,984.8201,55.855846,37.48426,176.4108,NaN,,0.0181,2.0,269.3348,26 / 27,,4024,2021-05-20 21:44:27:249
0.373507,0.876305,9.871595,0.345393,0.901803,9.758987,-0.008147,0.014595,-0.023537,-1959.3,-1940.04,1859.64,135.9986,-5.2546,-2.0069,984.8201,55.855846,37.48426,176.4108,NaN,,0.0181,2.0,269.3348,26 / 27,,4034,2021-05-20 21:44:27:259
0.21309,0.861939,9.799767,0.345393,0.901803,9.758987,0.028505,0.016427,-0.015595,-1959.3,-1940.04,1859.64,135.9986,-5.2546,-2.0069,984.8201,55.855846,37.48426,176.4108,NaN,,0.0181,2.0,269.3348,26 / 27,,4044,2021-05-20 21:44:27:269
0.136474,0.876305,9.529214,0.347628,0.901682,9.75892,0.037668,0.02498,-0.0046,-1959.72,-1940.58,1859.34,136.0107,-5.2763,-2.027,984.8201,55.855846,37.48426,176.4108,NaN,,0.0181,2.0,269.3348,26 / 27,,4054,2021-05-20 21:44:27:279
0.150839,0.99123,9.359221,0.347628,0.901682,9.75892,0.013233,0.032921,-0.001545,-1959.72,-1940.58,1859.34,136.0107,-5.2763,-2.027,984.8181,55.855846,37.48426,176.4108,NaN,,0.0181,2.0,269.3348,26 / 27,,4064,2021-05-20 21:44:27:289
0.150839,0.99123,9.359221,0.338169,0.907873,9.758677,-0.036858,0.043916,-0.009487,-1959.54,-1939.74,1859.4,136.0107,-5.2763,-2.027,984.8181,55.855846,37.48426,176.4108,NaN,,0.0181,2.0,269.3348,26 / 27,,4074,2021-05-20 21:44:27:299
0.150839,1.075029,9.320911,0.328822,0.909719,9.758825,-0.082062,0.029866,-0.023537,-1959.54,-1939.74,1859.4,136.0107,-5.2763,-2.027,984.8181,55.855846,37.48426,176.4108,NaN,,0.0181,2.0,269.3348,26 / 27,,4085,2021-05-20 21:44:27:310
0.225062,1.075029,9.529214,0.328822,0.909719,9.758825,-0.10222,-0.006175,-0.035754,-1958.88,-1939.98,1858.92,136.0764,-5.3227,-1.9298,984.8181,55.855846,37.48426,176.4108,NaN,,0.0181,2.0,269.3348,26 / 27,,4094,2021-05-20 21:44:27:319
0.249005,1.065452,9.70639,0.309746,0.908915,9.759524,-0.095501,-0.045881,-0.04736,-1958.88,-1939.98,1858.92,136.0764,-5.3227,-1.9298,984.8181,55.855846,37.48426,176.4108,NaN,,0.0181,2.0,269.3348,26 / 27,,4105,2021-05-20 21:44:27:330
0.249005,1.065452,9.70639,0.309746,0.908915,9.759524,-0.078397,-0.075202,-0.048582,-1959.36,-1940.58,1858.38,136.0764,-5.3227,-1.9298,984.8181,55.855846,37.48426,176.4108,NaN,,0.0181,2.0,269.3348,26 / 27,,4114,2021-05-20 21:44:27:339
0.196331,1.019961,9.823709,0.317136,0.890579,9.760978,-0.054573,-0.077035,-0.032089,-1959.36,-1940.58,1858.38,136.0764,-5.3227,-1.9298,984.8181,55.855846,37.48426,176.4108,NaN,,0.0181,2.0,269.3348,26 / 27,,4124,2021-05-20 21:44:27:349
0.22985,0.984047,9.871595,0.317136,0.890579,9.760978,-0.044799,-0.047103,-0.014985,-1959.6,-1940.22,1858.56,136.0528,-5.2104,-1.8609,984.8181,55.855846,37.48426,176.4108,NaN,,0.0181,2.0,269.3348,26 / 27,,4134,2021-05-20 21:44:27:359
0.275342,0.955316,9.797373,0.33121,0.879457,9.761518,-0.047242,-0.024501,0.008228,-1959.6,-1940.22,1858.56,136.0528,-5.2104,-1.8609,984.8181,55.855846,37.48426,176.4108,NaN,,0.0181,2.0,269.3348,26 / 27,,4145,2021-05-20 21:44:27:370
0.275342,0.955316,9.797373,0.33121,0.879457,9.761518,-0.047242,-0.024501,0.008228,-1958.94,-1939.8,1858.26,136.0528,-5.2104,-1.8609,984.8181,55.855846,37.48426,176.4108,NaN,,0.0181,2.0,269.3348,26 / 27,,4154,2021-05-20 21:44:27:379
0.409421,0.914613,9.847652,0.336854,0.870313,9.762145,-0.058238,-0.015338,0.007007,-1958.94,-1939.8,1858.26,136.0528,-5.2104,-1.8609,984.8201,55.855846,37.48426,176.4108,NaN,,0.0181,2.0,269.3348,26 / 27,,4164,2021-05-20 21:44:27:389
0.500403,0.952921,9.964972,0.336854,0.870313,9.762145,-0.051519,-0.03122,-0.008265,-1958.88,-1939.74,1858.92,135.9651,-5.0915,-1.9763,984.8201,55.855846,37.48426,176.4108,NaN,,0.0181,2.0,269.3348,26 / 27,,4174,2021-05-20 21:44:27:399
0.466884,0.94095,9.931452,0.339615,0.859184,9.763035,-0.043577,-0.058098,-0.021093,-1959.18,-1939.74,1859.1,135.9651,-5.0915,-1.9763,984.8201,55.855846,37.48426,176.4108,NaN,,0.0181,2.0,269.3348,26 / 27,,4184,2021-05-20 21:44:27:409
0.399844,0.99123,9.859624,0.339615,0.859184,9.763035,-0.043577,-0.058098,-0.021093,-1959.18,-1939.74,1859.1,135.9651,-5.0915,-1.9763,984.8201,55.855846,37.48426,176.4108,NaN,,0.0181,2.0,269.3348,26 / 27,,4195,2021-05-20 21:44:27:420
0.349564,0.933767,9.828498,0.348982,0.850491,9.763466,-0.036858,-0.062374,-0.038197,-1959.84,-1939.2,1859.58,135.9651,-5.0915,-1.9763,984.8201,55.855846,37.48426,176.4108,NaN,,0.0181,2.0,269.3348,26 / 27,,4204,2021-05-20 21:44:27:429
0.349564,0.933767,9.828498,0.348982,0.850491,9.763466,-0.025862,-0.044659,-0.040641,-1959.84,-1939.2,1859.58,135.9651,-5.0915,-1.9763,984.8201,55.855846,37.48426,176.4108,NaN,,0.0181,2.0,269.3348,26 / 27,,4214,2021-05-20 21:44:27:439
0.325621,0.936161,9.727939,0.358329,0.844943,9.763609,-0.020975,-0.018392,-0.037587,-1959.9,-1939.38,1859.22,135.8581,-4.9753,-2.0471,984.8201,55.855846,37.48426,176.4108,NaN,,0.0181,2.0,269.3348,26 / 27,,4224,2021-05-20 21:44:27:449
0.469278,0.950527,9.629773,0.358329,0.844943,9.763609,-0.030749,0.002377,-0.041863,-1959.9,-1939.38,1859.22,135.8581,-4.9753,-2.0471,984.8201,55.855846,37.48426,176.4108,NaN,,0.0181,2.0,269.3348,26 / 27,,4235,2021-05-20 21:44:27:460
0.548289,0.881093,9.682447,0.360056,0.840596,9.763921,-0.042356,-6.6E-5,-0.051026,-1959.84,-1939.62,1858.44,135.8581,-4.9753,-2.0471,984.8201,55.855846,37.48426,176.4108,NaN,,0.0181,2.0,269.3348,26 / 27,,4244,2021-05-20 21:44:27:469
0.600963,0.842785,9.787795,0.360056,0.840596,9.763921,-0.048464,-0.013505,-0.065075,-1959.84,-1939.62,1858.44,135.8581,-4.9753,-2.0471,984.8201,55.855846,37.48426,176.4108,NaN,,0.0181,2.0,269.3348,26 / 27,,4254,2021-05-20 21:44:27:479
0.600963,0.842785,9.787795,0.359663,0.832813,9.764602,-0.046632,-0.027555,-0.076071,-1959.78,-1939.62,1858.38,135.8175,-4.9173,-2.1119,984.8201,55.855846,37.48426,176.4108,NaN,,0.0181,2.0,269.3348,26 / 27,,4265,2021-05-20 21:44:27:490
0.598569,0.754197,9.912297,0.359663,0.832813,9.764602,-0.042356,-0.040994,-0.080347,-1959.78,-1939.62,1858.38,135.8175,-4.9173,-2.1119,984.8201,55.855846,37.48426,176.4108,NaN,,0.0181,2.0,269.3348,26 / 27,,4274,2021-05-20 21:44:27:499
0.572232,0.74462,9.897932,0.375199,0.831184,9.764156,-0.03808,-0.035496,-0.086456,-1959.54,-1939.56,1858.62,135.8175,-4.9173,-2.1119,984.8201,55.855846,37.48426,176.4108,NaN,,0.0181,2.0,269.3348,26 / 27,,4284,2021-05-20 21:44:27:509
0.469278,0.715888,9.850046,0.375199,0.831184,9.764156,-0.03136,-0.019614,-0.082791,-1959.54,-1939.56,1858.62,135.8175,-4.9173,-2.1119,984.8201,55.855846,37.48426,176.4108,NaN,,0.0181,2.0,269.3348,26 / 27,,4295,2021-05-20 21:44:27:520
0.440547,0.723071,9.797373,0.402453,0.829604,9.763205,-0.028917,-0.009229,-0.079125,-1959.6,-1939.98,1859.34,135.7541,-4.8621,-2.2006,984.8201,55.855846,37.48426,176.4108,NaN,,0.0181,2.0,269.3348,26 / 27,,4304,2021-05-20 21:44:27:529
0.440547,0.723071,9.797373,0.402453,0.829604,9.763205,-0.035636,0.006654,-0.078515,-1959.6,-1939.98,1859.34,135.7541,-4.8621,-2.2006,984.8201,55.855846,37.48426,176.4108,NaN,,0.0181,2.0,269.3348,26 / 27,,4314,2021-05-20 21:44:27:539
0.407027,0.725465,9.651321,0.402607,0.823842,9.763687,-0.050297,0.002377,-0.08218,-1959.48,-1940.34,1859.1,135.7541,-4.8621,-2.2006,984.8201,55.855846,37.48426,176.4108,NaN,,0.0181,2.0,269.3348,26 / 27,,4324,2021-05-20 21:44:27:549
0.373507,0.742225,9.629773,0.402607,0.823842,9.763687,-0.057627,-0.005564,-0.093175,-1959.48,-1940.34,1859.1,135.7541,-4.8621,-2.2006,984.8201,55.855846,37.48426,176.4108,NaN,,0.0181,2.0,269.3348,26 / 27,,4334,2021-05-20 21:44:27:559
0.39745,0.763774,9.699207,0.401031,0.814433,9.764541,-0.054573,-0.004342,-0.102949,-1960.0198,-1939.8,1858.8,135.6606,-4.819,-2.3613,984.8201,55.855846,37.48426,176.4108,NaN,,0.0181,2.0,269.3348,26 / 27,,4345,2021-05-20 21:44:27:570
0.390267,0.785322,9.720756,0.401031,0.814433,9.764541,-0.049686,-0.00312,-0.115166,-1960.0198,-1939.8,1858.8,135.6606,-4.819,-2.3613,984.8201,55.855846,37.48426,176.4108,NaN,,0.0181,2.0,269.3348,26 / 27,,4354,2021-05-20 21:44:27:579
0.390267,0.785322,9.720756,0.400633,0.804321,9.765395,-0.049686,0.013373,-0.128605,-1959.72,-1939.8,1858.92,135.6606,-4.819,-2.3613,984.8157,55.855846,37.48426,176.4108,NaN,,0.0181,2.0,269.3348,26 / 27,,4364,2021-05-20 21:44:27:589
0.323227,0.806871,9.713573,0.400633,0.804321,9.765395,-0.050297,0.021314,-0.138379,-1959.72,-1939.8,1858.92,135.6606,-4.819,-2.3613,984.8157,55.855846,37.48426,176.4108,NaN,,0.0181,2.0,269.3348,26 / 27,,4374,2021-05-20 21:44:27:599
0.253793,0.816448,9.718362,0.398131,0.794928,9.766267,-0.050297,0.021314,-0.138379,-1959.36,-1939.92,1859.1,135.6361,-4.7046,-2.3493,984.8157,55.855846,37.48426,176.4108,NaN,,0.0181,2.0,269.3348,26 / 27,,4384,2021-05-20 21:44:27:609
0.208302,0.790111,9.677659,0.398131,0.794928,9.766267,-0.051519,0.018871,-0.139601,-1959.36,-1939.92,1859.1,135.6361,-4.7046,-2.3493,984.8157,55.855846,37.48426,176.4108,NaN,,0.0181,2.0,269.3348,26 / 27,,4394,2021-05-20 21:44:27:619
0.253793,0.703917,9.778218,0.39137,0.786707,9.767205,-0.053351,0.009097,-0.136547,-1959.6,-1939.5,1859.7,135.6361,-4.7046,-2.3493,984.8157,55.855846,37.48426,176.4108,NaN,,0.0181,2.0,269.3348,26 / 27,,4405,2021-05-20 21:44:27:630
0.253793,0.703917,9.778218,0.39137,0.786707,9.767205,-0.074121,-0.00984,-0.123719,-1959.6,-1939.5,1859.7,135.6361,-4.7046,-2.3493,984.8157,55.855846,37.48426,176.4108,NaN,,0.0181,2.0,269.3348,26 / 27,,4414,2021-05-20 21:44:27:639
0.325621,0.778139,9.926663,0.384072,0.775127,9.768421,-0.074731,-0.001288,-0.134103,-1959.48,-1939.44,1859.82,135.6089,-4.6013,-2.2946,984.8157,55.855846,37.48426,176.4108,NaN,,0.0181,2.0,269.3348,26 / 27,,4424,2021-05-20 21:44:27:649
0.217879,0.675186,10.063137,0.384072,0.775127,9.768421,-0.056405,-0.021446,-0.11761,-1959.48,-1939.44,1859.82,135.6089,-4.6013,-2.2946,984.8157,55.855846,37.48426,176.4108,NaN,,0.0181,2.0,269.3348,26 / 27,,4434,2021-05-20 21:44:27:659
0.299284,0.730254,9.914692,0.371649,0.763274,9.769835,-0.026473,-0.030609,-0.110279,-1959.3,-1939.44,1859.34,135.6089,-4.6013,-2.2946,984.8157,55.855846,37.48426,176.4108,NaN,,0.0181,2.0,269.3348,26 / 27,,4444,2021-05-20 21:44:27:669
0.316044,0.735042,9.857229,0.36638,0.75868,9.770392,-0.018532,-0.03855,-0.107836,-1959.42,-1939.68,1858.98,135.6089,-4.6013,-2.2946,984.8157,55.855846,37.48426,176.4108,NaN,,0.0181,2.0,269.3348,26 / 27,,4455,2021-05-20 21:44:27:680
0.316044,0.735042,9.857229,0.36638,0.75868,9.770392,-0.020364,-0.026333,-0.104171,-1959.42,-1939.68,1858.98,135.6089,-4.6013,-2.2946,984.8184,55.855846,37.48426,176.4108,NaN,,0.0181,2.0,269.3348,26 / 27,,4464,2021-05-20 21:44:27:689
0.306467,0.751802,9.811738,0.359055,0.753433,9.77107,-0.033193,-0.006785,-0.101727,-1959.6,-1939.98,1858.68,135.6139,-4.4371,-2.1475,984.8184,55.855846,37.48426,176.4108,NaN,,0.0181,2.0,269.3348,26 / 27,,4474,2021-05-20 21:44:27:699
0.316044,0.768562,9.823709,0.359055,0.753433,9.77107,-0.042356,0.012762,-0.101117,-1959.6,-1939.98,1858.68,135.6139,-4.4371,-2.1475,984.8184,55.855846,37.48426,176.4108,NaN,,0.0181,2.0,269.3348,26 / 27,,4484,2021-05-20 21:44:27:709
0.29689,0.74462,9.909904,0.348432,0.74716,9.771936,-0.03869,0.028645,-0.110279,-1959.96,-1939.5,1858.98,135.6139,-4.4371,-2.1475,984.8184,55.855846,37.48426,176.4108,NaN,,0.0181,2.0,269.3348,26 / 27,,4494,2021-05-20 21:44:27:719
0.272947,0.72786,9.984126,0.348432,0.74716,9.771936,-0.030138,0.029866,-0.109058,-1959.96,-1939.5,1858.98,135.6139,-4.4371,-2.1475,984.8184,55.855846,37.48426,176.4108,NaN,,0.0181,2.0,269.3348,26 / 27,,4505,2021-05-20 21:44:27:730
0.272947,0.72786,9.984126,0.334786,0.741146,9.772871,-0.014256,0.028034,-0.113945,-1959.78,-1939.62,1858.8,135.6377,-4.3695,-2.0421,984.8184,55.855846,37.48426,176.4108,NaN,,0.0181,2.0,269.3348,26 / 27,,4514,2021-05-20 21:44:27:739
0.323227,0.687157,9.984126,0.334786,0.741146,9.772871,-0.002038,0.020093,-0.106003,-1959.78,-1939.62,1858.8,135.6377,-4.3695,-2.0421,984.8184,55.855846,37.48426,176.4108,NaN,,0.0181,2.0,269.3348,26 / 27,,4524,2021-05-20 21:44:27:749
0.361536,0.699128,10.008069,0.322577,0.737922,9.773526,-8.17E-4,0.015206,-0.104782,-1959.06,-1939.62,1858.38,135.6377,-4.3695,-2.0421,984.8184,55.855846,37.48426,176.4108,NaN,,0.0181,2.0,269.3348,26 / 27,,4534,2021-05-20 21:44:27:759
0.256187,0.691945,9.924269,0.322577,0.737922,9.773526,-8.17E-4,0.01154,-0.091343,-1959.06,-1939.62,1858.38,135.6377,-4.3695,-2.0421,984.8184,55.855846,37.48426,176.4108,NaN,,0.0181,2.0,269.3348,26 / 27,,4544,2021-05-20 21:44:27:769
0.189148,0.656031,9.945818,0.315534,0.733901,9.774058,-0.005704,0.002988,-0.076071,-1958.7,-1938.78,1858.68,135.6895,-4.3154,-1.8904,984.8184,55.855846,37.48426,176.4108,NaN,,0.0181,2.0,269.3348,26 / 27,,4554,2021-05-20 21:44:27:779
0.189148,0.656031,9.945818,0.315534,0.733901,9.774058,4.05E-4,0.01093,-0.062632,-1958.7,-1938.78,1858.68,135.6895,-4.3154,-1.8904,984.8184,55.855846,37.48426,176.4108,NaN,,0.0181,2.0,269.3348,26 / 27,,4564,2021-05-20 21:44:27:789
0.186753,0.718282,9.914692,0.307715,0.727239,9.774805,0.033392,0.007264,-0.050415,-1959.24,-1938.9,1858.92,135.6895,-4.3154,-1.8904,984.8184,55.855846,37.48426,176.4108,NaN,,0.0181,2.0,269.3348,26 / 27,,4575,2021-05-20 21:44:27:800
0.198725,0.665608,9.653716,0.307715,0.727239,9.774805,0.03889,-0.002509,-0.042473,-1959.24,-1938.9,1858.92,135.6895,-4.3154,-1.8904,984.8184,55.855846,37.48426,176.4108,NaN,,0.0181,2.0,269.3348,26 / 27,,4584,2021-05-20 21:44:27:809
0.220273,0.720677,9.469357,0.296116,0.72665,9.775208,0.037668,5.45E-4,-0.042473,-1959.54,-1939.08,1858.56,135.6923,-4.2528,-1.8031,984.8184,55.855846,37.48426,176.4108,NaN,,0.0181,2.0,269.3348,26 / 27,,4594,2021-05-20 21:44:27:819
0.222668,0.689551,9.421472,0.296116,0.72665,9.775208,0.024229,0.001156,-0.044306,-1959.54,-1939.08,1858.56,135.6923,-4.2528,-1.8031,984.8184,55.855846,37.48426,176.4108,NaN,,0.0181,2.0,269.3348,26 / 27,,4605,2021-05-20 21:44:27:830
0.222668,0.689551,9.421472,0.290221,0.731016,9.775059,0.009568,0.009097,-0.048582,-1959.9,-1939.08,1858.44,135.6923,-4.2528,-1.8031,984.8184,55.855846,37.48426,176.4108,NaN,,0.0181,2.0,269.3348,26 / 27,,4614,2021-05-20 21:44:27:839
0.155628,0.758985,9.454991,0.290221,0.731016,9.775059,-0.014256,0.035975,-0.043695,-1959.9,-1939.08,1858.44,135.6923,-4.2528,-1.8031,984.8184,55.855846,37.48426,176.4108,NaN,,0.0181,2.0,269.3348,24 / 27,,4625,2021-05-20 21:44:27:850
0.112531,0.701523,9.433443,0.275912,0.729221,9.775607,-0.040523,0.024369,-0.043084,-1959.66,-1939.2,1859.1,135.7506,-4.275,-1.7006,984.8184,55.855846,37.48426,176.4108,NaN,,0.0181,2.0,269.3348,24 / 27,,4634,2021-05-20 21:44:27:859
0.158022,0.701523,9.569917,0.275912,0.729221,9.775607,-0.05946,0.02498,-0.051026,-1959.66,-1939.2,1859.1,135.7506,-4.275,-1.7006,984.8184,55.855846,37.48426,176.4108,NaN,,0.0181,2.0,269.3348,24 / 27,,4644,2021-05-20 21:44:27:869
0.210696,0.641666,9.696813,0.256832,0.722204,9.776648,-0.072899,0.004821,-0.055912,-1958.64,-1939.38,1858.98,135.7506,-4.275,-1.7006,984.8184,55.855846,37.48426,176.4108,NaN,,0.0181,2.0,269.3348,24 / 27,,4654,2021-05-20 21:44:27:879
0.210696,0.641666,9.696813,0.256832,0.722204,9.776648,-0.068012,-0.02389,-0.057134,-1958.64,-1939.38,1858.98,135.7506,-4.275,-1.7006,984.8232,55.855846,37.48426,176.4108,NaN,,0.0181,2.0,269.3348,24 / 27,,4665,2021-05-20 21:44:27:890
0.275342,0.668003,9.854836,0.243268,0.708648,9.777987,-0.042356,-0.045881,-0.056523,-1959.0,-1939.08,1858.8,135.839,-4.2233,-1.5048,984.8232,55.855846,37.48426,176.4108,NaN,,0.0181,2.0,269.3348,24 / 27,,4674,2021-05-20 21:44:27:899
0.265765,0.67758,9.90272,0.243268,0.708648,9.777987,-0.042356,-0.045881,-0.056523,-1959.0,-1939.08,1858.8,135.839,-4.2233,-1.5048,984.8232,55.855846,37.48426,176.4108,NaN,,0.0181,2.0,269.3348,24 / 27,,4684,2021-05-20 21:44:27:909
0.265765,0.67758,9.90272,0.250381,0.699378,9.778475,-0.007536,-0.067872,-0.050415,-1959.0,-1938.84,1858.44,135.839,-4.2233,-1.5048,984.8232,55.855846,37.48426,176.4108,NaN,,0.0181,2.0,269.3348,24 / 27,,4694,2021-05-20 21:44:27:919
0.29689,0.699128,9.780613,0.250381,0.699378,9.778475,0.010179,-0.067872,-0.033921,-1959.0,-1938.84,1858.44,135.839,-4.2233,-1.5048,984.8232,55.855846,37.48426,176.4108,NaN,,0.0181,2.0,269.3348,24 / 27,,4704,2021-05-20 21:44:27:929
0.344776,0.799688,9.627379,0.263396,0.700189,9.778075,0.010179,-0.04527,-0.022315,-1958.94,-1939.2,1858.5,135.8037,-4.0896,-1.4668,984.8232,55.855846,37.48426,176.4108,NaN,,0.0181,2.0,269.3348,24 / 27,,4714,2021-05-20 21:44:27:939
0.387873,0.802082,9.557945,0.263396,0.700189,9.778075,-0.01731,-0.015338,-0.017428,-1958.94,-1939.2,1858.5,135.8037,-4.0896,-1.4668,984.8232,55.855846,37.48426,176.4108,NaN,,0.0181,2.0,269.3348,24 / 27,,4724,2021-05-20 21:44:27:949
0.392661,0.809265,9.670476,0.269041,0.699648,9.77796,-0.04541,-6.6E-5,-0.01865,-1959.12,-1938.78,1859.1,135.8037,-4.0896,-1.4668,984.8232,55.855846,37.48426,176.4108,NaN,,0.0181,2.0,269.3348,24 / 27,,4734,2021-05-20 21:44:27:959
0.339987,0.715888,9.967366,0.269041,0.699648,9.77796,-0.061292,0.012762,-0.028424,-1959.12,-1938.78,1859.1,135.8037,-4.0896,-1.4668,984.8232,55.855846,37.48426,176.4108,NaN,,0.0181,2.0,269.3348,24 / 27,,4745,2021-05-20 21:44:27:970
0.339987,0.715888,9.967366,0.267544,0.689444,9.778726,-0.047853,5.45E-4,-0.03331,-1958.82,-1938.72,1859.16,135.7513,-4.0912,-1.5761,984.8232,55.855846,37.48426,176.4108,NaN,,0.0181,2.0,269.3348,24 / 27,,4754,2021-05-20 21:44:27:979
0.366324,0.69434,10.00328,0.267544,0.689444,9.778726,-0.025862,-0.022057,-0.047971,-1958.82,-1938.72,1859.16,135.7513,-4.0912,-1.5761,984.8108,55.855846,37.48426,176.4108,NaN,,0.0181,2.0,269.3348,24 / 27,,4764,2021-05-20 21:44:27:989
0.354353,0.632089,9.988914,0.269024,0.682254,9.779189,-0.010591,-0.025111,-0.050415,-1959.06,-1938.12,1858.74,135.7513,-4.0912,-1.5761,984.8108,55.855846,37.48426,176.4108,NaN,,0.0181,2.0,269.3348,24 / 27,,4774,2021-05-20 21:44:27:999
0.392661,0.629694,10.015251,0.269024,0.682254,9.779189,-0.004482,-0.022668,-0.04675,-1959.06,-1938.12,1858.74,135.7513,-4.0912,-1.5761,984.8108,55.855846,37.48426,176.4108,NaN,,0.0181,2.0,269.3348,24 / 27,,4784,2021-05-20 21:44:28:009
0.359141,0.656031,9.950606,0.273072,0.680202,9.77922,0.003459,-0.00984,-0.043084,-1959.42,-1938.42,1858.44,135.696,-3.9893,-1.5758,984.8108,55.855846,37.48426,176.4108,NaN,,0.0181,2.0,269.3348,24 / 27,,4795,2021-05-20 21:44:28:020
0.349564,0.665608,9.797373,0.273072,0.680202,9.77922,0.01079,0.004821,-0.030867,-1959.42,-1938.42,1858.44,135.696,-3.9893,-1.5758,984.8108,55.855846,37.48426,176.4108,NaN,,0.0181,2.0,269.3348,24 / 27,,4804,2021-05-20 21:44:28:029
0.349564,0.665608,9.797373,0.285382,0.681657,9.778768,-0.002649,0.01826,-0.025369,-1959.12,-1939.32,1858.56,135.696,-3.9893,-1.5758,984.8108,55.855846,37.48426,176.4108,NaN,,0.0181,2.0,269.3348,24 / 27,,4815,2021-05-20 21:44:28:040
0.337593,0.699128,9.713573,0.285382,0.681657,9.778768,-0.006925,0.015206,-0.021093,-1959.12,-1939.32,1858.56,135.696,-3.9893,-1.5758,984.8108,55.855846,37.48426,176.4108,NaN,,0.0181,2.0,269.3348,24 / 27,,4824,2021-05-20 21:44:28:049
0.308861,0.703917,9.711179,0.292703,0.680897,9.778605,-0.006925,5.45E-4,-0.022926,-1958.46,-1938.54,1858.5,135.6771,-3.9858,-1.6716,984.8108,55.855846,37.48426,176.4108,NaN,,0.0181,2.0,269.3348,24 / 27,,4834,2021-05-20 21:44:28:059
0.193936,0.775745,9.701602,0.292703,0.680897,9.778605,0.003459,-0.023279,-0.021093,-1958.46,-1938.54,1858.5,135.6771,-3.9858,-1.6716,984.8108,55.855846,37.48426,176.4108,NaN,,0.0181,2.0,269.3348,24 / 27,,4845,2021-05-20 21:44:28:070
0.193936,0.775745,9.701602,0.300939,0.682197,9.778263,0.023618,-0.041605,-0.014985,-1958.58,-1938.42,1858.56,135.6771,-3.9858,-1.6716,984.8108,55.855846,37.48426,176.4108,NaN,,0.0181,2.0,269.3348,24 / 27,,4854,2021-05-20 21:44:28:079
0.225062,0.725465,9.632168,0.300939,0.682197,9.778263,0.019953,-0.048324,-0.008876,-1958.58,-1938.42,1858.56,135.6771,-3.9858,-1.6716,984.8066,55.855846,37.48426,176.4108,NaN,,0.0181,2.0,269.3348,24 / 27,,4865,2021-05-20 21:44:28:090
0.272947,0.713494,9.660899,0.306682,0.690628,9.777493,0.002238,-0.044659,0.00212,-1958.76,-1938.96,1858.26,135.6197,-3.989,-1.7628,984.8066,55.855846,37.48426,176.4108,NaN,,0.0181,2.0,269.3348,24 / 27,,4874,2021-05-20 21:44:28:099
0.268159,0.723071,9.658504,0.306682,0.690628,9.777493,-0.021586,-0.028166,0.004563,-1958.76,-1938.96,1858.26,135.6197,-3.989,-1.7628,984.8066,55.855846,37.48426,176.4108,NaN,,0.0181,2.0,269.3348,24 / 27,,4885,2021-05-20 21:44:28:110
0.268159,0.723071,9.658504,0.310238,0.696628,9.776955,-0.021586,-0.028166,0.004563,-1958.94,-1938.6,1857.96,135.6197,-3.989,-1.7628,984.8066,55.855846,37.48426,176.4108,NaN,,0.0181,2.0,269.3348,24 / 27,,4894,2021-05-20 21:44:28:119
0.375901,0.754197,9.670476,0.310238,0.696628,9.776955,-0.041134,-0.022668,0.001509,-1958.94,-1938.6,1857.96,135.6197,-3.989,-1.7628,984.8066,55.855846,37.48426,176.4108,NaN,,0.0181,2.0,269.3348,24 / 27,,4904,2021-05-20 21:44:28:129
0.423787,0.668003,9.873989,0.311823,0.695463,9.776987,-0.03808,-0.03122,-0.009487,-1959.0,-1938.54,1858.08,135.6274,-4.0735,-1.8175,984.8066,55.855846,37.48426,176.4108,NaN,,0.0181,2.0,269.3348,24 / 27,,4914,2021-05-20 21:44:28:139
0.41421,0.689551,9.917087,0.311823,0.695463,9.776987,-0.030138,-0.033664,-0.021704,-1959.0,-1938.54,1858.08,135.6274,-4.0735,-1.8175,984.8066,55.855846,37.48426,176.4108,NaN,,0.0181,2.0,269.3348,24 / 27,,4924,2021-05-20 21:44:28:149
0.404632,0.672791,9.912297,0.321034,0.692512,9.776898,-0.012423,-0.034274,-0.02598,-1958.94,-1938.72,1858.44,135.6274,-4.0735,-1.8175,984.8066,55.855846,37.48426,176.4108,NaN,,0.0181,2.0,269.3348,24 / 27,,4934,2021-05-20 21:44:28:159
0.421392,0.687157,9.830893,0.321034,0.692512,9.776898,-2.06E-4,-0.024501,-0.025369,-1958.94,-1938.72,1858.44,135.6274,-4.0735,-1.8175,984.8066,55.855846,37.48426,176.4108,NaN,,0.0181,2.0,269.3348,24 / 27,,4944,2021-05-20 21:44:28:169
0.421392,0.687157,9.830893,0.332074,0.692488,9.776531,-2.06E-4,-0.015338,-0.022315,-1958.94,-1939.26,1858.8,135.588,-4.0494,-1.8807,984.8066,55.855846,37.48426,176.4108,NaN,,0.0181,2.0,269.3348,24 / 27,,4955,2021-05-20 21:44:28:180
0.39745,0.699128,9.859624,0.332074,0.692488,9.776531,0.001016,-0.00312,-0.021704,-1958.94,-1939.26,1858.8,135.588,-4.0494,-1.8807,984.7993,55.855846,37.48426,176.4108,NaN,,0.0181,2.0,269.3348,24 / 27,,4964,2021-05-20 21:44:28:189
0.332804,0.679974,9.785401,0.340572,0.693119,9.776195,-2.06E-4,-0.001899,-0.01193,-1959.42,-1939.56,1859.16,135.588,-4.0494,-1.8807,984.7993,55.855846,37.48426,176.4108,NaN,,0.0181,2.0,269.3348,24 / 27,,4975,2021-05-20 21:44:28:200
0.366324,0.69434,9.778218,0.340572,0.693119,9.776195,4.05E-4,-0.010451,-0.007654,-1959.42,-1939.56,1859.16,135.588,-4.0494,-1.8807,984.7993,55.855846,37.48426,176.4108,NaN,,0.0181,2.0,269.3348,24 / 27,,4984,2021-05-20 21:44:28:209
0.366324,0.69434,9.778218,0.345582,0.692587,9.776057,0.002238,-0.020835,-0.002767,-1959.72,-1938.9,1859.22,135.5205,-4.053,-1.9952,984.7993,55.855846,37.48426,176.4108,NaN,,0.0181,2.0,269.3348,24 / 27,,4995,2021-05-20 21:44:28:220
0.292102,0.706311,9.785401,0.345582,0.692587,9.776057,0.013233,-0.026944,-0.002767,-1959.72,-1938.9,1859.22,135.5205,-4.053,-1.9952,984.7993,55.855846,37.48426,176.4108,NaN,,0.0181,2.0,269.3348,24 / 27,,5004,2021-05-20 21:44:28:229
0.232245,0.701523,9.648928,0.349812,0.693961,9.775809,0.020564,-0.041605,0.003341,-1959.24,-1939.08,1858.92,135.5205,-4.053,-1.9952,984.7993,55.855846,37.48426,176.4108,NaN,,0.0181,2.0,269.3348,24 / 27,,5014,2021-05-20 21:44:28:239
0.215485,0.778139,9.483723,0.349812,0.693961,9.775809,0.013844,-0.041605,0.012504,-1959.24,-1939.08,1858.92,135.5205,-4.053,-1.9952,984.7993,55.855846,37.48426,176.4108,NaN,,0.0181,2.0,269.3348,24 / 27,,5024,2021-05-20 21:44:28:249
0.275342,0.787716,9.543579,0.350305,0.69886,9.775442,-0.006925,-0.043437,0.011283,-1959.18,-1939.26,1858.86,135.5109,-4.0579,-2.0494,984.7993,55.855846,37.48426,176.4108,NaN,,0.0181,2.0,269.3348,24 / 27,,5034,2021-05-20 21:44:28:259
0.320833,0.713494,9.641745,0.350305,0.69886,9.775442,-0.020364,-0.026944,0.017391,-1959.18,-1939.26,1858.86,135.5109,-4.0579,-2.0494,984.7993,55.855846,37.48426,176.4108,NaN,,0.0181,2.0,269.3348,24 / 27,,5045,2021-05-20 21:44:28:270
0.320833,0.713494,9.641745,0.346332,0.702677,9.775311,-0.035025,-0.02389,0.017391,-1959.18,-1939.26,1858.32,135.5109,-4.0579,-2.0494,984.7993,55.855846,37.48426,176.4108,NaN,,0.0181,2.0,269.3348,24 / 27,,5054,2021-05-20 21:44:28:279
0.34717,0.624906,9.912297,0.346332,0.702677,9.775311,-0.03808,-0.019614,0.014337,-1959.18,-1939.26,1858.32,135.5109,-4.0579,-2.0494,984.8049,55.855846,37.48426,176.4108,NaN,,0.0181,2.0,269.3348,24 / 27,,5064,2021-05-20 21:44:28:289
0.38069,0.59378,9.996098,0.342548,0.69959,9.775664,-0.030138,-0.014727,0.013115,-1959.18,-1939.2,1858.08,135.5404,-4.1089,-2.0291,984.8049,55.855846,37.48426,176.4108,NaN,,0.0181,2.0,269.3348,24 / 27,,5074,2021-05-20 21:44:28:299
0.371113,0.600963,9.953,0.342548,0.69959,9.775664,-0.008147,-0.015338,0.014337,-1959.18,-1939.2,1858.08,135.5404,-4.1089,-2.0291,984.8049,55.855846,37.48426,176.4108,NaN,,0.0181,2.0,269.3348,24 / 27,,5085,2021-05-20 21:44:28:310
0.416604,0.622511,9.852441,0.341358,0.692869,9.776185,0.015677,-0.014727,0.00945,-1959.6,-1938.66,1858.92,135.5404,-4.1089,-2.0291,984.8049,55.855846,37.48426,176.4108,NaN,,0.0181,2.0,269.3348,24 / 27,,5094,2021-05-20 21:44:28:319
0.416604,0.622511,9.852441,0.341358,0.692869,9.776185,0.016288,-0.00984,0.011283,-1959.6,-1938.66,1858.92,135.5404,-4.1089,-2.0291,984.8049,55.855846,37.48426,176.4108,NaN,,0.0181,2.0,269.3348,24 / 27,,5104,2021-05-20 21:44:28:329
0.447729,0.675186,9.72315,0.344311,0.688611,9.776382,-0.002649,0.00421,0.005785,-1959.6,-1938.48,1858.74,135.5039,-4.0515,-1.9998,984.8049,55.855846,37.48426,176.4108,NaN,,0.0181,2.0,269.3348,24 / 27,,5114,2021-05-20 21:44:28:339
0.416604,0.747014,9.634562,0.344311,0.688611,9.776382,-0.02403,0.020703,0.005785,-1959.6,-1938.48,1858.74,135.5039,-4.0515,-1.9998,984.8049,55.855846,37.48426,176.4108,NaN,,0.0181,2.0,269.3348,24 / 27,,5125,2021-05-20 21:44:28:350
0.433364,0.747014,9.646533,0.347316,0.682251,9.776722,-0.03869,0.01826,0.003952,-1959.48,-1938.66,1858.44,135.5039,-4.0515,-1.9998,984.8049,55.855846,37.48426,176.4108,NaN,,0.0181,2.0,269.3348,24 / 27,,5137,2021-05-20 21:44:28:362
0.411815,0.708705,9.634562,0.347316,0.682251,9.776722,-0.03136,0.009708,-3.24E-4,-1959.48,-1938.66,1858.44,135.5039,-4.0515,-1.9998,984.8049,55.855846,37.48426,176.4108,NaN,,0.0181,2.0,269.3348,24 / 27,,5144,2021-05-20 21:44:28:369
0.411815,0.708705,9.634562,0.351871,0.677591,9.776883,-0.023419,-0.006785,-0.002767,-1959.96,-1938.24,1858.74,135.4624,-3.9893,-2.0346,984.8049,55.855846,37.48426,176.4108,NaN,,0.0181,2.0,269.3348,24 / 27,,5154,2021-05-20 21:44:28:379
0.450124,0.658426,9.708784,0.351871,0.677591,9.776883,-0.023419,-0.011062,-0.003989,-1959.96,-1938.24,1858.74,135.4624,-3.9893,-2.0346,984.7971,55.855846,37.48426,176.4108,NaN,,0.0181,2.0,269.3348,24 / 27,,5165,2021-05-20 21:44:28:390
