ACCELEROMETER X (m/s²),ACCELEROMETER Y (m/s²),ACCELEROMETER Z (m/s²),GRAVITY X (m/s²),GRAVITY Y (m/s²),GRAVITY Z (m/s²),GYROSCOPE X (rad/s),GYROSCOPE Y (rad/s),GYROSCOPE Z (rad/s),MAGNETIC FIELD X (μT),MAGNETIC FIELD Y (μT),MAGNETIC FIELD Z (μT),ORIENTATION Z (azimuth °),ORIENTATION X (pitch °),ORIENTATION Y (roll °),ATMOSPHERIC PRESSURE (hPa),LOCATION Latitude : ,LOCATION Longitude : ,LOCATION Altitude ( m),LOCATION Altitude-google ( m),LOCATION Altitude-atmospheric pressure ( m),LOCATION Speed ( m/s),LOCATION Accuracy ( m),LOCATION ORIENTATION (°),Satellites in range,GPS NMEA,Time since start in ms ,YYYY-MO-DD HH-MI-SS_SSS
-0.861939,-2.47568,9.024022,0.486116,-0.85821,9.756924,-0.084505,-0.516858,-0.274602,-1958.7,-1930.8,1858.14,131.2071,4.6409,-2.362,984.9932,55.855835,37.485283,177.0575,NaN,,0.0,8.0,275.5635,23 / 23,,21,2021-05-20 21:42:20:479
-0.33041,-2.16203,9.670476,0.529446,-0.864352,9.754126,-0.044188,-0.245023,-0.29415,-1958.64,-1930.92,1857.78,131.2071,4.6409,-2.362,984.9932,55.855835,37.485283,177.0575,NaN,,0.0,8.0,275.5635,23 / 23,,32,2021-05-20 21:42:20:490
-0.33041,-2.16203,9.670476,0.529446,-0.864352,9.754126,-0.00998,0.064686,-0.278878,-1958.64,-1930.92,1857.78,131.2071,4.6409,-2.362,984.9961,55.855835,37.485283,177.0575,NaN,,0.0,8.0,275.5635,23 / 23,,42,2021-05-20 21:42:20:500
-0.002394,-1.654444,10.118205,0.533815,-0.866508,9.753696,0.026672,0.395164,-0.225122,-1959.06,-1930.38,1857.42,130.689,5.0566,-3.1069,984.9961,55.855835,37.485283,177.0575,NaN,,0.0,8.0,275.5635,23 / 23,,52,2021-05-20 21:42:20:510
0.184359,-1.101366,10.192428,0.494067,-0.863245,9.75608,0.058437,0.556432,-0.185416,-1959.24,-1930.5,1857.42,130.689,5.0566,-3.1069,984.9961,55.855835,37.485283,177.0575,NaN,,0.0,8.0,275.5635,23 / 23,,62,2021-05-20 21:42:20:520
0.299284,-0.6273,10.38397,0.494067,-0.863245,9.75608,0.098754,0.616297,-0.173809,-1959.24,-1930.5,1857.42,130.689,5.0566,-3.1069,984.9961,55.855835,37.485283,177.0575,NaN,,0.0,8.0,275.5635,23 / 23,,72,2021-05-20 21:42:20:530
0.05028,-0.160416,10.515655,0.380885,-0.846644,9.762608,0.15251,0.582089,-0.169533,-1959.6,-1930.62,1857.96,130.689,5.0566,-3.1069,984.9961,55.855835,37.485283,177.0575,NaN,,0.0,8.0,275.5635,23 / 23,,81,2021-05-20 21:42:20:539
-0.189148,-0.01676,10.59706,0.380885,-0.846644,9.762608,0.280181,0.574758,-0.171366,-1959.6,-1930.62,1857.96,130.689,5.0566,-3.1069,984.9961,55.855835,37.485283,177.0575,NaN,,0.0,8.0,275.5635,23 / 23,,92,2021-05-20 21:42:20:550
-0.189148,-0.01676,10.59706,0.271571,-0.801537,9.770065,0.37792,0.635234,-0.196411,-1958.94,-1930.74,1858.32,131.0882,4.9527,-2.2342,984.9961,55.855835,37.485283,177.0575,NaN,,0.0,8.0,275.5635,23 / 23,,101,2021-05-20 21:42:20:559
0.095771,-0.445335,10.374393,0.271571,-0.801537,9.770065,0.471382,0.613854,-0.277046,-1958.94,-1930.74,1858.32,131.0882,4.9527,-2.2342,984.9961,55.855835,37.485283,177.0575,NaN,,0.0,8.0,275.5635,23 / 23,,112,2021-05-20 21:42:20:570
0.299284,-1.465296,10.000886,0.152782,-0.717713,9.779158,0.584392,0.44892,-0.397386,-1957.8,-1930.68,1857.84,131.0882,4.9527,-2.2342,984.9961,55.855835,37.485283,177.0575,NaN,,0.0,8.0,275.5635,23 / 23,,122,2021-05-20 21:42:20:580
0.035914,-1.901054,9.921875,0.152782,-0.717713,9.779158,0.685185,0.290095,-0.457862,-1957.8,-1930.68,1857.84,131.0882,4.9527,-2.2342,984.9961,55.855835,37.485283,177.0575,NaN,,0.0,8.0,275.5635,23 / 23,,131,2021-05-20 21:42:20:589
0.035914,-1.901054,9.921875,0.078189,-0.597972,9.78809,0.796973,0.169144,-0.467025,-1957.44,-1930.98,1857.42,132.0664,4.197,-0.8951,984.9905,55.855835,37.485283,177.0575,NaN,,0.0,8.0,275.5635,23 / 23,,141,2021-05-20 21:42:20:599
-0.452518,-2.092596,10.166091,0.078189,-0.597972,9.78809,0.94969,0.057966,-0.376006,-1957.44,-1930.98,1857.42,132.0664,4.197,-0.8951,984.9905,55.855835,37.485283,177.0575,NaN,,0.0,8.0,275.5635,23 / 23,,151,2021-05-20 21:42:20:609
-0.993624,-2.006402,10.348056,0.054799,-0.436622,9.796772,1.067587,0.058577,-0.226955,-1957.26,-1931.16,1857.9,132.0664,4.197,-0.8951,984.9905,55.855835,37.485283,177.0575,NaN,,0.0,8.0,275.5635,23 / 23,,162,2021-05-20 21:42:20:620
-1.168406,-1.747821,10.046377,0.054799,-0.436622,9.796772,1.067587,0.058577,-0.226955,-1957.26,-1931.16,1857.9,132.0664,4.197,-0.8951,984.9905,55.855835,37.485283,177.0575,NaN,,0.0,8.0,275.5635,23 / 23,,172,2021-05-20 21:42:20:630
-0.418998,-0.007183,10.00328,0.042015,-0.227009,9.803932,1.190371,0.133103,-0.038197,-1957.74,-1931.7,1858.0198,133.1912,2.5518,-0.3205,984.9905,55.855835,37.485283,177.0575,NaN,,0.0,8.0,275.5635,23 / 23,,181,2021-05-20 21:42:20:639
-0.418998,-0.007183,10.00328,0.042015,-0.227009,9.803932,1.280779,0.207628,-0.032089,-1957.74,-1931.7,1858.0198,133.1912,2.5518,-0.3205,984.9905,55.855835,37.485283,177.0575,NaN,,0.0,8.0,275.5635,23 / 23,,191,2021-05-20 21:42:20:649
-0.181965,0.119714,10.08708,0.001927,0.018626,9.806632,1.311933,0.34996,-0.129827,-1957.26,-1933.14,1858.2,133.1912,2.5518,-0.3205,984.9905,55.855835,37.485283,177.0575,NaN,,0.0,8.0,275.5635,23 / 23,,201,2021-05-20 21:42:20:659
0.031126,-0.284919,8.976136,-0.040236,0.145529,9.805488,1.269783,0.503898,-0.24467,-1957.08,-1933.62,1858.2,133.1912,2.5518,-0.3205,984.9905,55.855835,37.485283,177.0575,NaN,,0.0,8.0,275.5635,23 / 23,,211,2021-05-20 21:42:20:669
0.031126,-0.284919,8.976136,-0.040236,0.145529,9.805488,1.157384,0.488626,-0.353404,-1957.08,-1933.62,1858.2,133.1912,2.5518,-0.3205,984.9905,55.855835,37.485283,177.0575,NaN,,0.0,8.0,275.5635,23 / 23,,221,2021-05-20 21:42:20:679
-0.5435,-0.162811,8.906702,-0.140105,0.370633,9.798642,0.857449,0.542993,-0.419988,-1956.72,-1934.82,1858.38,135.1922,-0.8503,0.2351,984.9905,55.855835,37.485283,177.0575,NaN,,0.0,8.0,275.5635,23 / 23,,231,2021-05-20 21:42:20:689
-1.297697,-0.019154,8.734315,-0.140105,0.370633,9.798642,0.463441,0.571704,-0.390667,-1956.72,-1934.82,1858.38,135.1922,-0.8503,0.2351,984.9939,55.855835,37.485283,177.0575,NaN,,0.0,8.0,275.5635,23 / 23,,241,2021-05-20 21:42:20:699
-1.884294,0.088588,8.564321,-0.255741,0.488579,9.791132,0.193438,0.386001,-0.286209,-1955.58,-1935.96,1858.92,135.1922,-0.8503,0.2351,984.9939,55.855835,37.485283,177.0575,NaN,,0.0,8.0,275.5635,23 / 23,,251,2021-05-20 21:42:20:709
-2.267378,0.131685,8.571504,-0.255741,0.488579,9.791132,0.019342,0.188081,-0.148764,-1955.58,-1935.96,1858.92,135.1922,-0.8503,0.2351,984.9939,55.855835,37.485283,177.0575,NaN,,0.0,8.0,275.5635,23 / 23,,261,2021-05-20 21:42:20:719
-2.116539,0.086194,8.806143,-0.315361,0.506348,9.78849,-0.05946,0.007875,-0.020482,-1955.04,-1936.74,1859.46,136.8037,-2.8557,1.4962,984.9939,55.855835,37.485283,177.0575,NaN,,0.0,8.0,275.5635,23 / 23,,272,2021-05-20 21:42:20:730
-2.116539,0.086194,8.806143,-0.315361,0.506348,9.78849,-0.075953,-0.108189,0.061985,-1955.04,-1936.74,1859.46,136.8037,-2.8557,1.4962,984.9939,55.855835,37.485283,177.0575,NaN,,0.0,8.0,275.5635,23 / 23,,281,2021-05-20 21:42:20:739
-1.640078,0.21309,9.454991,-0.307362,0.491704,9.789492,-0.050908,-0.111854,0.062595,-1954.8,-1936.56,1859.58,136.8037,-2.8557,1.4962,984.9939,55.855835,37.485283,177.0575,NaN,,0.0,8.0,275.5635,23 / 23,,291,2021-05-20 21:42:20:749
-0.94095,0.550683,10.058349,-0.307362,0.491704,9.789492,-0.014867,-0.027555,-0.013152,-1954.8,-1936.56,1859.58,136.8037,-2.8557,1.4962,984.9939,55.855835,37.485283,177.0575,NaN,,0.0,8.0,275.5635,23 / 23,,301,2021-05-20 21:42:20:759
-0.191542,0.641666,10.182851,-0.291949,0.483069,9.790393,-8.17E-4,0.087288,-0.145099,-1955.04,-1936.32,1859.28,136.9566,-2.874,1.7983,984.9939,55.855835,37.485283,177.0575,NaN,,0.0,8.0,275.5635,23 / 23,,311,2021-05-20 21:42:20:769
-0.191542,0.641666,10.182851,-0.291949,0.483069,9.790393,-0.06679,0.182583,-0.258109,-1955.04,-1936.32,1859.28,136.9566,-2.874,1.7983,984.9939,55.855835,37.485283,177.0575,NaN,,0.0,8.0,275.5635,23 / 23,,321,2021-05-20 21:42:20:779
-0.055068,0.114925,9.62259,-0.318249,0.478144,9.789815,-0.173692,0.158759,-0.292928,-1956.0,-1936.68,1858.86,136.9566,-2.874,1.7983,984.9939,55.855835,37.485283,177.0575,NaN,,0.0,8.0,275.5635,23 / 23,,331,2021-05-20 21:42:20:789
-0.294496,-0.253793,9.273026,-0.318249,0.478144,9.789815,-0.302584,0.072627,-0.262996,-1956.0,-1936.68,1858.86,136.9566,-2.874,1.7983,984.988,55.855835,37.485283,177.0575,NaN,,0.0,8.0,275.5635,23 / 23,,341,2021-05-20 21:42:20:799
-0.663214,-0.390267,9.483723,-0.349455,0.437958,9.790631,-0.415594,0.026201,-0.190914,-1956.36,-1936.44,1858.92,136.9396,-2.7947,1.8619,984.988,55.855835,37.48528,176.9591,NaN,,0.0,8.0,275.5635,22 / 23,,351,2021-05-20 21:42:20:809
-0.804476,-0.387873,9.845258,-0.349455,0.437958,9.790631,-0.473626,0.01093,-0.098673,-1956.36,-1936.44,1858.92,136.9396,-2.7947,1.8619,984.988,55.855835,37.48528,176.9591,NaN,,0.0,8.0,275.5635,22 / 23,,362,2021-05-20 21:42:20:820
-0.804476,-0.387873,9.845258,-0.356707,0.353619,9.793778,-0.473626,0.01093,-0.098673,-1955.46,-1936.0198,1859.04,136.9396,-2.7947,1.8619,984.988,55.855835,37.48528,176.9591,NaN,,0.0,8.0,275.5635,22 / 23,,371,2021-05-20 21:42:20:829
-0.912219,-0.203513,10.067925,-0.356707,0.353619,9.793778,-0.443694,0.035364,0.007617,-1955.46,-1936.0198,1859.04,136.9396,-2.7947,1.8619,984.988,55.855835,37.48528,176.9591,NaN,,0.0,8.0,275.5635,22 / 23,,381,2021-05-20 21:42:20:839
-0.972076,-0.009577,9.972155,-0.36495,0.266089,9.796244,-0.34168,0.08912,0.077867,-1954.92,-1935.42,1859.4,136.7268,-2.0665,2.0859,984.988,55.855835,37.48528,176.9591,NaN,,0.0,8.0,275.5635,22 / 23,,392,2021-05-20 21:42:20:850
-0.984047,0.06704,9.682447,-0.36495,0.266089,9.796244,-0.203013,0.145931,0.144451,-1954.92,-1935.42,1859.4,136.7268,-2.0665,2.0859,984.988,55.855835,37.48528,176.9591,NaN,,0.0,8.0,275.5635,22 / 23,,401,2021-05-20 21:42:20:859
-0.984047,0.06704,9.682447,-0.392692,0.226946,9.796156,-0.019754,0.165479,0.23547,-1955.1,-1934.88,1859.76,136.7268,-2.0665,2.0859,984.988,55.855835,37.48528,176.9591,NaN,,0.0,8.0,275.5635,22 / 23,,411,2021-05-20 21:42:20:869
-0.89067,0.265765,9.512454,-0.392692,0.226946,9.796156,0.111582,0.133103,0.28495,-1955.1,-1934.88,1859.76,136.7268,-2.0665,2.0859,984.988,55.855835,37.48528,176.9591,NaN,,0.0,8.0,275.5635,22 / 23,,421,2021-05-20 21:42:20:879
-0.653637,0.581809,9.579494,-0.419817,0.243588,9.794632,0.231923,0.042084,0.288616,-1954.62,-1934.88,1859.76,136.4902,-1.3261,2.2955,984.988,55.855835,37.48528,176.9591,NaN,,0.0,8.0,275.5635,22 / 23,,431,2021-05-20 21:42:20:889
-0.474066,0.794899,9.500483,-0.419817,0.243588,9.794632,0.299729,-0.026944,0.234248,-1954.62,-1934.88,1859.76,136.4902,-1.3261,2.2955,984.9878,55.855835,37.48528,176.9591,NaN,,0.0,8.0,275.5635,22 / 23,,441,2021-05-20 21:42:20:899
-0.474066,0.794899,9.500483,-0.420652,0.297611,9.793102,0.339435,-0.10147,0.148727,-1954.5,-1935.48,1859.64,136.4902,-1.3261,2.2955,984.9878,55.855835,37.48528,176.9591,NaN,,0.0,8.0,275.5635,22 / 23,,451,2021-05-20 21:42:20:909
-0.375901,0.806871,9.490906,-0.420652,0.297611,9.793102,0.33577,-0.19371,0.025333,-1954.5,-1935.48,1859.64,136.4902,-1.3261,2.2955,984.9878,55.855835,37.48528,176.9591,NaN,,0.0,8.0,275.5635,22 / 23,,461,2021-05-20 21:42:20:919
-0.354353,0.574626,9.641745,-0.392321,0.364926,9.792002,0.33577,-0.19371,0.025333,-1954.98,-1936.0198,1859.82,136.7872,-1.7391,2.4596,984.9878,55.855835,37.48528,176.9591,NaN,,0.0,8.0,275.5635,22 / 23,,471,2021-05-20 21:42:20:929
-0.318439,0.282524,9.914692,-0.392321,0.364926,9.792002,0.297286,-0.252353,-0.071184,-1954.98,-1936.0198,1859.82,136.7872,-1.7391,2.4596,984.9878,55.855835,37.48528,176.9591,NaN,,0.0,8.0,275.5635,22 / 23,,481,2021-05-20 21:42:20:939
-0.318439,0.282524,9.914692,-0.345122,0.42358,9.791417,0.273462,-0.264571,-0.106003,-1954.98,-1936.14,1859.58,136.7872,-1.7391,2.4596,984.9878,55.855835,37.48528,176.9591,NaN,,0.0,8.0,275.5635,22 / 23,,491,2021-05-20 21:42:20:949
-0.146051,0.10056,10.218765,-0.320436,0.449065,9.791121,0.253303,-0.229751,-0.119442,-1955.82,-1936.14,1859.16,136.7872,-1.7391,2.4596,984.9878,55.855835,37.48528,176.9591,NaN,,0.0,8.0,275.5635,22 / 23,,501,2021-05-20 21:42:20:959
-0.181965,0.009577,10.134965,-0.320436,0.449065,9.791121,0.269186,-0.164389,-0.123108,-1955.82,-1936.14,1859.16,136.7872,-1.7391,2.4596,984.9878,55.855835,37.48528,176.9591,NaN,,0.0,8.0,275.5635,22 / 23,,511,2021-05-20 21:42:20:969
-0.411815,0.138868,9.914692,-0.285671,0.499186,9.78977,0.313168,-0.114909,-0.116388,-1955.88,-1935.9,1858.92,136.8697,-2.6246,1.8745,984.9878,55.855835,37.48528,176.9591,NaN,,0.0,8.0,275.5635,22 / 23,,521,2021-05-20 21:42:20:979
-0.411815,0.138868,9.914692,-0.285671,0.499186,9.78977,0.368146,-0.061763,-0.107225,-1955.88,-1935.9,1858.92,136.8697,-2.6246,1.8745,984.9878,55.855835,37.48528,176.9591,NaN,,0.0,8.0,275.5635,22 / 23,,532,2021-05-20 21:42:20:990
-0.579414,0.31365,9.708784,-0.270337,0.565296,9.786611,0.40663,-0.029388,-0.098673,-1955.88,-1935.9,1859.64,136.8697,-2.6246,1.8745,984.9761,55.855835,37.48528,176.9591,NaN,,0.0,8.0,275.5635,22 / 23,,541,2021-05-20 21:42:20:999
-0.646454,0.438152,9.514848,-0.270337,0.565296,9.786611,0.411517,-0.013505,-0.078515,-1955.88,-1935.9,1859.64,136.8697,-2.6246,1.8745,984.9761,55.855835,37.48528,176.9591,NaN,,0.0,8.0,275.5635,22 / 23,,551,2021-05-20 21:42:21:009
-0.514769,0.421392,9.196409,-0.266898,0.643934,9.781845,0.386472,0.002988,-0.052858,-1955.58,-1936.56,1859.16,137.0323,-3.3046,1.5823,984.9761,55.855835,37.48528,176.9591,NaN,,0.0,8.0,275.5635,22 / 23,,561,2021-05-20 21:42:21:019
-0.462095,0.409421,8.961771,-0.266898,0.643934,9.781845,0.302172,-0.001288,-0.018039,-1955.58,-1936.56,1859.16,137.0323,-3.3046,1.5823,984.9761,55.855835,37.48528,176.9591,NaN,,0.0,8.0,275.5635,22 / 23,,571,2021-05-20 21:42:21:029
-0.462095,0.409421,8.961771,-0.268488,0.713548,9.776971,0.21543,-0.031831,0.004563,-1955.16,-1936.56,1858.92,137.0323,-3.3046,1.5823,984.9761,55.855835,37.48528,176.9591,NaN,,0.0,8.0,275.5635,22 / 23,,582,2021-05-20 21:42:21:040
-0.462095,0.500403,8.875577,-0.268488,0.713548,9.776971,0.116469,-0.071537,0.024111,-1955.16,-1936.56,1858.92,137.0323,-3.3046,1.5823,984.9761,55.855835,37.48528,176.9591,NaN,,0.0,8.0,275.5635,22 / 23,,591,2021-05-20 21:42:21:049
-0.442941,0.665608,8.894731,-0.26136,0.752287,9.77426,0.016288,-0.102691,0.039993,-1955.28,-1936.68,1859.34,137.417,-4.1726,1.573,984.9761,55.855835,37.48528,176.9591,NaN,,0.0,8.0,275.5635,22 / 23,,601,2021-05-20 21:42:21:059
-0.509981,0.842785,9.052753,-0.26136,0.752287,9.77426,-0.039912,-0.105746,0.045491,-1955.28,-1936.68,1859.34,137.417,-4.1726,1.573,984.9761,55.855835,37.48528,176.9591,NaN,,0.0,8.0,275.5635,22 / 23,,612,2021-05-20 21:42:21:070
-0.641666,0.725465,9.115005,-0.241875,0.75518,9.774538,-0.039912,-0.105746,0.045491,-1955.22,-1937.1,1859.1,137.417,-4.1726,1.573,984.9761,55.855835,37.48528,176.9591,NaN,,0.0,8.0,275.5635,22 / 23,,621,2021-05-20 21:42:21:079
-0.641666,0.725465,9.115005,-0.241875,0.75518,9.774538,-0.111994,-0.08742,0.074813,-1955.22,-1937.1,1859.1,137.417,-4.1726,1.573,984.9761,55.855835,37.48528,176.9591,NaN,,0.0,8.0,275.5635,22 / 23,,631,2021-05-20 21:42:21:089
-0.718282,0.591386,9.203592,-0.223931,0.733378,9.776625,-0.152922,-0.090474,0.114519,-1955.04,-1937.16,1859.4,137.4371,-4.4165,1.4175,984.981,55.855835,37.48528,176.9591,NaN,,0.0,8.0,275.5635,22 / 23,,641,2021-05-20 21:42:21:099
-0.634483,0.605752,9.387952,-0.223931,0.733378,9.776625,-0.170637,-0.097804,0.154225,-1955.04,-1937.16,1859.4,137.4371,-4.4165,1.4175,984.981,55.855835,37.48528,176.9591,NaN,,0.0,8.0,275.5635,22 / 23,,651,2021-05-20 21:42:21:109
-0.466884,0.696734,9.663293,-0.20381,0.700809,9.779454,-0.171248,-0.086809,0.189655,-1954.98,-1937.64,1859.4,137.4371,-4.4165,1.4175,984.981,55.855835,37.48528,176.9591,NaN,,0.0,8.0,275.5635,22 / 23,,662,2021-05-20 21:42:21:120
-0.29689,0.778139,9.888355,-0.20381,0.700809,9.779454,-0.140094,-0.097194,0.195153,-1954.98,-1937.64,1859.4,137.4371,-4.4165,1.4175,984.981,55.855835,37.48528,176.9591,NaN,,0.0,8.0,275.5635,22 / 23,,671,2021-05-20 21:42:21:129
-0.29689,0.778139,9.888355,-0.183988,0.671745,9.781886,-0.103442,-0.106357,0.176216,-1955.28,-1937.58,1858.62,137.198,-4.098,1.1939,984.981,55.855835,37.48528,176.9591,NaN,,0.0,8.0,275.5635,22 / 23,,682,2021-05-20 21:42:21:140
-0.287313,0.823631,10.113417,-0.183988,0.671745,9.781886,-0.041745,-0.138122,0.145062,-1955.28,-1937.58,1858.62,137.198,-4.098,1.1939,984.981,55.855835,37.48528,176.9591,NaN,,0.0,8.0,275.5635,22 / 23,,691,2021-05-20 21:42:21:149
-0.260976,0.785322,10.242707,-0.158546,0.658145,9.783256,0.027283,-0.166221,0.123682,-1955.64,-1937.34,1858.32,137.198,-4.098,1.1939,984.981,55.855835,37.48528,176.9591,NaN,,0.0,8.0,275.5635,22 / 23,,702,2021-05-20 21:42:21:160
-0.141262,0.732648,10.328901,-0.158546,0.658145,9.783256,0.089591,-0.199819,0.107799,-1955.64,-1937.34,1858.32,137.198,-4.098,1.1939,984.981,55.855835,37.48528,176.9591,NaN,,0.0,8.0,275.5635,22 / 23,,711,2021-05-20 21:42:21:169
0.038308,0.691945,10.369604,-0.12173,0.669939,9.782983,0.140293,-0.205928,0.081532,-1955.5198,-1937.7,1858.98,136.938,-3.8481,0.9284,984.981,55.855835,37.48528,176.9591,NaN,,0.0,8.0,275.5635,22 / 23,,721,2021-05-20 21:42:21:179
0.038308,0.691945,10.369604,-0.12173,0.669939,9.782983,0.150067,-0.154004,0.047324,-1955.5198,-1937.7,1858.98,136.938,-3.8481,0.9284,984.981,55.855835,37.48528,176.9591,NaN,,0.0,8.0,275.5635,22 / 23,,731,2021-05-20 21:42:21:189
-0.035914,0.596174,10.355239,-0.086037,0.698475,9.781366,0.103641,-0.050768,0.03022,-1955.82,-1937.64,1858.68,136.938,-3.8481,0.9284,984.9785,55.855835,37.48528,176.9591,NaN,,0.0,8.0,275.5635,22 / 23,,741,2021-05-20 21:42:21:199
-0.184359,0.59378,10.225947,-0.086037,0.698475,9.781366,0.058437,0.007875,0.043048,-1955.82,-1937.64,1858.68,136.938,-3.8481,0.9284,984.9785,55.855835,37.48528,176.9591,NaN,,0.0,8.0,275.5635,22 / 23,,752,2021-05-20 21:42:21:210
-0.342381,0.672791,10.012857,-0.079539,0.715561,9.780186,-0.049686,0.082401,0.078478,-1955.58,-1937.88,1857.9,136.8164,-4.0843,0.504,984.9785,55.855835,37.48528,176.9591,NaN,,0.0,8.0,275.5635,22 / 23,,761,2021-05-20 21:42:21:219
-0.057463,1.063058,9.62259,-0.079539,0.715561,9.780186,-0.11627,0.114777,0.01617,-1955.58,-1937.88,1857.9,136.8164,-4.0843,0.504,984.9785,55.855835,37.48528,176.9591,NaN,,0.0,8.0,275.5635,22 / 23,,771,2021-05-20 21:42:21:229
-0.057463,1.063058,9.62259,-0.097978,0.701639,9.781027,-0.111994,-0.022057,0.03022,-1955.58,-1938.06,1858.32,136.8164,-4.0843,0.504,984.9785,55.855835,37.48528,176.9591,NaN,,0.0,8.0,275.5635,22 / 23,,781,2021-05-20 21:42:21:239
-0.507586,0.696734,9.70639,-0.097978,0.701639,9.781027,-0.064958,-0.053822,0.024111,-1955.58,-1938.06,1858.32,136.8164,-4.0843,0.504,984.9785,55.855835,37.48528,176.9591,NaN,,0.0,8.0,275.5635,22 / 23,,791,2021-05-20 21:42:21:249
-0.174782,0.411815,9.955395,-0.089759,0.684103,9.782348,-0.070455,-0.006785,0.033274,-1956.36,-1938.0,1859.04,136.8615,-4.1029,0.5739,984.9785,55.855835,37.48528,176.9591,NaN,,0.0,8.0,275.5635,22 / 23,,801,2021-05-20 21:42:21:259
-0.210696,0.155628,10.146936,-0.089759,0.684103,9.782348,-0.101609,0.041473,0.116352,-1956.36,-1938.0,1859.04,136.8615,-4.1029,0.5739,984.9785,55.855835,37.48528,176.9591,NaN,,0.0,8.0,275.5635,22 / 23,,811,2021-05-20 21:42:21:269
-0.598569,0.634483,10.132571,-0.09158,0.668173,9.783432,-0.046021,-0.012894,0.160334,-1956.48,-1938.12,1858.74,136.8615,-4.1029,0.5739,984.9785,55.855835,37.48528,176.9591,NaN,,0.0,8.0,275.5635,22 / 23,,822,2021-05-20 21:42:21:280
-0.598569,0.634483,10.132571,-0.09158,0.668173,9.783432,0.066378,0.004821,0.198207,-1956.48,-1938.12,1858.74,136.8615,-4.1029,0.5739,984.9785,55.855835,37.48528,176.9591,NaN,,0.0,8.0,275.5635,22 / 23,,832,2021-05-20 21:42:21:290
-0.055068,0.854756,10.30017,-0.088792,0.670313,9.783312,0.150678,0.052468,0.163999,-1956.36,-1937.82,1858.2,136.7586,-3.9069,0.5363,984.9685,55.855835,37.48528,176.9591,NaN,,0.0,8.0,275.5635,22 / 23,,842,2021-05-20 21:42:21:300
0.026337,0.758985,10.072714,-0.088792,0.670313,9.783312,0.148234,0.07507,0.094971,-1956.36,-1937.82,1858.2,136.7586,-3.9069,0.5363,984.9685,55.855835,37.48528,176.9591,NaN,,0.0,8.0,275.5635,22 / 23,,852,2021-05-20 21:42:21:310
-0.081405,0.720677,9.60583,-0.098299,0.699727,9.781161,0.109139,0.026201,0.076645,-1956.48,-1937.34,1858.5,136.7586,-3.9069,0.5363,984.9685,55.855835,37.48528,176.9591,NaN,,0.0,8.0,275.5635,22 / 23,,862,2021-05-20 21:42:21:320
-0.186753,0.737437,9.447808,-0.098299,0.699727,9.781161,0.071265,-0.033664,0.10108,-1956.48,-1937.34,1858.5,136.7586,-3.9069,0.5363,984.9685,55.855835,37.48528,176.9591,NaN,,0.0,8.0,275.5635,22 / 23,,871,2021-05-20 21:42:21:329
-0.186753,0.737437,9.447808,-0.100472,0.720774,9.779611,0.049274,-0.061763,0.123682,-1956.66,-1937.1,1858.5,136.8292,-4.0917,0.5758,984.9685,55.855835,37.48528,176.9591,NaN,,0.0,8.0,275.5635,22 / 23,,881,2021-05-20 21:42:21:339
-0.138868,0.811659,9.541185,-0.100472,0.720774,9.779611,0.049274,-0.061763,0.123682,-1956.66,-1937.1,1858.5,136.8292,-4.0917,0.5758,984.9685,55.855835,37.48528,176.9591,NaN,,0.0,8.0,275.5635,22 / 23,,892,2021-05-20 21:42:21:350
0.014366,0.87391,9.799767,-0.086419,0.730724,9.779006,0.041333,-0.077035,0.105967,-1956.3,-1937.94,1858.0198,136.8292,-4.0917,0.5758,984.9685,55.855835,37.48528,176.9591,NaN,,0.0,8.0,275.5635,22 / 23,,901,2021-05-20 21:42:21:359
0.038308,0.864333,9.988914,-0.086419,0.730724,9.779006,0.043166,-0.0526,0.072369,-1956.3,-1937.94,1858.0198,136.8292,-4.0917,0.5758,984.9685,55.855835,37.48528,176.9591,NaN,,0.0,8.0,275.5635,22 / 23,,912,2021-05-20 21:42:21:370
-0.023943,0.802082,9.929058,-0.075209,0.739605,9.778431,0.043776,0.015206,0.03022,-1955.88,-1938.24,1858.0198,136.8964,-4.2732,0.5063,984.9685,55.855835,37.48528,176.9591,NaN,,0.0,8.0,275.5635,22 / 23,,922,2021-05-20 21:42:21:380
-0.023943,0.802082,9.929058,-0.07773,0.743568,9.778111,0.033392,0.051247,0.019835,-1955.82,-1937.64,1858.62,136.8964,-4.2732,0.5063,984.9685,55.855835,37.48528,176.9591,NaN,,0.0,8.0,275.5635,22 / 23,,931,2021-05-20 21:42:21:389
-0.10056,0.730254,9.778218,-0.07773,0.743568,9.778111,-0.013034,0.068962,0.036939,-1955.82,-1937.64,1858.62,136.8964,-4.2732,0.5063,984.967,55.855835,37.48528,176.9591,NaN,,0.0,8.0,275.5635,22 / 23,,942,2021-05-20 21:42:21:400
-0.019154,0.756591,9.620196,-0.088835,0.74747,9.777719,-0.013034,0.068962,0.036939,-1956.18,-1937.5198,1858.98,136.8964,-4.2732,0.5063,984.967,55.855835,37.48528,176.9591,NaN,,0.0,8.0,275.5635,22 / 23,,951,2021-05-20 21:42:21:409
-0.045491,0.782928,9.569917,-0.088835,0.74747,9.777719,-0.090003,0.078125,0.039993,-1956.18,-1937.5198,1858.98,136.8964,-4.2732,0.5063,984.967,55.855835,37.48528,176.9591,NaN,,0.0,8.0,275.5635,22 / 23,,961,2021-05-20 21:42:21:419
-0.045491,0.782928,9.569917,-0.103557,0.731694,9.778767,-0.140705,0.086677,0.042437,-1956.24,-1938.0,1858.68,136.9457,-4.3714,0.5205,984.967,55.855835,37.48528,176.9591,NaN,,0.0,8.0,275.5635,22 / 23,,971,2021-05-20 21:42:21:429
-0.047885,0.770957,9.514848,-0.103557,0.731694,9.778767,-0.162085,0.064075,0.041826,-1956.24,-1938.0,1858.68,136.9457,-4.3714,0.5205,984.967,55.855835,37.48528,176.9591,NaN,,0.0,8.0,275.5635,22 / 23,,981,2021-05-20 21:42:21:439
-0.009577,0.735042,9.615408,-0.115004,0.700928,9.780892,-0.153533,0.021314,0.032663,-1956.3,-1938.0,1858.08,136.9457,-4.3714,0.5205,984.967,55.855835,37.48528,176.9591,NaN,,0.0,8.0,275.5635,22 / 23,,992,2021-05-20 21:42:21:450
0.01676,0.708705,9.816526,-0.115004,0.700928,9.780892,-0.113216,-0.022668,0.013726,-1956.3,-1938.0,1858.08,136.9457,-4.3714,0.5205,984.967,55.855835,37.48528,176.9591,NaN,,0.0,8.0,275.5635,22 / 23,,1001,2021-05-20 21:42:21:459
-0.05028,0.725465,10.146936,-0.111435,0.679157,9.78247,-0.049686,-0.054433,-0.012541,-1956.36,-1937.5198,1858.0198,136.9102,-4.0987,0.6737,984.967,55.855835,37.48528,176.9591,NaN,,0.0,8.0,275.5635,22 / 23,,1011,2021-05-20 21:42:21:469
-0.05028,0.725465,10.146936,-0.111435,0.679157,9.78247,0.03889,-0.05199,-0.036365,-1956.36,-1937.5198,1858.0198,136.9102,-4.0987,0.6737,984.967,55.855835,37.48528,176.9591,NaN,,0.0,8.0,275.5635,22 / 23,,1021,2021-05-20 21:42:21:479
-0.181965,0.732648,10.278622,-0.101806,0.684711,9.782187,0.127465,-0.028166,-0.046139,-1955.76,-1937.64,1858.08,136.9102,-4.0987,0.6737,984.967,55.855835,37.48528,176.9591,NaN,,0.0,8.0,275.5635,22 / 23,,1031,2021-05-20 21:42:21:489
-0.179571,0.691945,10.115811,-0.101806,0.684711,9.782187,0.212986,-0.031831,-0.03331,-1955.76,-1937.64,1858.08,136.9102,-4.0987,0.6737,984.967,55.855835,37.48528,176.9591,NaN,,0.0,8.0,275.5635,22 / 23,,1041,2021-05-20 21:42:21:499
-0.095771,0.69434,9.842864,-0.096349,0.719517,9.779744,0.248416,-0.034274,-0.025369,-1955.76,-1937.76,1858.5,136.8314,-4.0037,0.5963,984.967,55.855835,37.48528,176.9591,NaN,,0.0,8.0,275.5635,22 / 23,,1051,2021-05-20 21:42:21:509
-0.095771,0.69434,9.842864,-0.096349,0.719517,9.779744,0.255136,-0.047713,-0.019261,-1955.76,-1937.76,1858.5,136.8314,-4.0037,0.5963,984.967,55.855835,37.48528,176.9591,NaN,,0.0,8.0,275.5635,22 / 23,,1062,2021-05-20 21:42:21:520
0.040703,0.770957,9.641745,-0.088653,0.768624,9.77608,0.241086,-0.0807,-0.022315,-1956.12,-1938.18,1858.68,136.8314,-4.0037,0.5963,984.967,55.855835,37.48528,176.9591,NaN,,0.0,8.0,275.5635,22 / 23,,1071,2021-05-20 21:42:21:529
0.06704,0.909824,9.58907,-0.088653,0.768624,9.77608,0.217873,-0.117352,-0.041252,-1956.12,-1938.18,1858.68,136.8314,-4.0037,0.5963,984.967,55.855835,37.48528,176.9591,NaN,,0.0,8.0,275.5635,22 / 23,,1081,2021-05-20 21:42:21:539
0.06704,0.909824,9.58907,-0.069752,0.813324,9.772616,0.195271,-0.132013,-0.074849,-1956.18,-1938.42,1858.56,136.9964,-4.4953,0.5196,984.967,55.855835,37.48528,176.9591,NaN,,0.0,8.0,275.5635,22 / 23,,1092,2021-05-20 21:42:21:550
0.059857,0.936161,9.651321,-0.069752,0.813324,9.772616,0.174502,-0.097194,-0.09684,-1956.18,-1938.42,1858.56,136.9964,-4.4953,0.5196,984.967,55.855835,37.48528,176.9591,NaN,,0.0,8.0,275.5635,22 / 23,,1102,2021-05-20 21:42:21:560
-0.021548,0.919402,9.708784,-0.046613,0.850432,9.769595,0.174502,-0.097194,-0.09684,-1956.24,-1937.82,1858.44,136.9964,-4.4953,0.5196,984.967,55.855835,37.48528,176.9591,NaN,,0.0,8.0,275.5635,22 / 23,,1111,2021-05-20 21:42:21:569
-0.167599,0.950527,9.632168,-0.046613,0.850432,9.769595,0.140293,-0.040383,-0.109669,-1956.24,-1937.82,1858.44,136.9964,-4.4953,0.5196,984.967,55.855835,37.48528,176.9591,NaN,,0.0,8.0,275.5635,22 / 23,,1121,2021-05-20 21:42:21:579
-0.344776,0.967287,9.47654,-0.042075,0.876551,9.767306,0.084704,0.015817,-0.11089,-1956.66,-1938.18,1859.1,137.0496,-4.9749,0.2734,984.967,55.855835,37.48528,176.9591,NaN,,0.0,8.0,275.5635,22 / 23,,1131,2021-05-20 21:42:21:589
-0.344776,0.967287,9.47654,-0.042075,0.876551,9.767306,0.03889,0.023758,-0.104171,-1956.66,-1938.18,1859.1,137.0496,-4.9749,0.2734,984.9753,55.855835,37.48528,176.9591,NaN,,0.0,8.0,275.5635,22 / 23,,1141,2021-05-20 21:42:21:599
-0.450124,0.914613,9.474146,-0.048046,0.885193,9.7665,-0.013034,-0.028777,-0.08951,-1956.72,-1939.0198,1858.86,137.0496,-4.9749,0.2734,984.9753,55.855835,37.48528,176.9591,NaN,,0.0,8.0,275.5635,22 / 23,,1151,2021-05-20 21:42:21:609
-0.423787,0.866728,9.634562,-0.048046,0.885193,9.7665,-0.035025,-0.091696,-0.071795,-1956.72,-1939.0198,1858.86,137.0496,-4.9749,0.2734,984.9753,55.855835,37.48528,176.9591,NaN,,0.0,8.0,275.5635,22 / 23,,1161,2021-05-20 21:42:21:619
-0.337593,0.806871,9.794978,-0.036682,0.879977,9.76702,-0.019143,-0.117963,-0.060799,-1956.6,-1938.54,1858.5,137.1495,-5.1788,0.2819,984.9753,55.855835,37.48528,176.9591,NaN,,0.0,8.0,275.5635,22 / 23,,1171,2021-05-20 21:42:21:629
-0.277736,0.718282,9.869201,-0.025923,0.878092,9.767224,0.013844,-0.136289,-0.06141,-1956.54,-1938.3,1858.8,137.1495,-5.1788,0.2819,984.9753,55.855835,37.48528,176.9591,NaN,,0.0,8.0,275.5635,22 / 23,,1182,2021-05-20 21:42:21:640
-0.277736,0.718282,9.869201,-0.025923,0.878092,9.767224,0.074931,-0.143008,-0.048582,-1956.54,-1938.3,1858.8,137.1495,-5.1788,0.2819,984.9753,55.855835,37.48528,176.9591,NaN,,0.0,8.0,275.5635,22 / 23,,1191,2021-05-20 21:42:21:649
-0.225062,0.790111,10.060742,4.35E-4,0.885188,9.766618,0.110972,-0.093528,-0.037587,-1956.18,-1937.7,1858.92,137.1495,-5.1788,0.2819,984.9753,55.855835,37.48528,176.9591,NaN,,0.0,8.0,275.5635,22 / 23,,1201,2021-05-20 21:42:21:659
-0.198725,0.960104,9.979338,4.35E-4,0.885188,9.766618,0.110972,-0.093528,-0.037587,-1956.18,-1937.7,1858.92,137.1495,-5.1788,0.2819,984.9753,55.855835,37.48528,176.9591,NaN,,0.0,8.0,275.5635,22 / 23,,1211,2021-05-20 21:42:21:669
-0.215485,1.048692,9.620196,0.015421,0.907272,9.764579,0.122578,0.035975,-0.014985,-1956.42,-1937.82,1858.74,137.0033,-5.1788,-0.0025,984.9753,55.855835,37.48528,176.9591,NaN,,0.0,8.0,275.5635,22 / 23,,1221,2021-05-20 21:42:21:679
-0.215485,1.048692,9.620196,0.015421,0.907272,9.764579,0.083483,0.035364,-0.011319,-1956.42,-1937.82,1858.74,137.0033,-5.1788,-0.0025,984.9753,55.855835,37.48528,176.9591,NaN,,0.0,8.0,275.5635,22 / 23,,1231,2021-05-20 21:42:21:689
-0.208302,1.060664,9.239507,0.008733,0.929966,9.762452,0.015677,-0.00984,-0.014985,-1956.72,-1938.3,1858.74,137.0033,-5.1788,-0.0025,984.9675,55.855835,37.48528,176.9591,NaN,,0.0,8.0,275.5635,22 / 23,,1241,2021-05-20 21:42:21:699
-0.189148,1.039115,9.189227,0.008733,0.929966,9.762452,0.015677,-0.00984,-0.014985,-1956.72,-1938.3,1858.74,137.0033,-5.1788,-0.0025,984.9675,55.855835,37.48528,176.9591,NaN,,0.0,8.0,275.5635,22 / 23,,1251,2021-05-20 21:42:21:709
-0.189148,1.039115,9.189227,0.011176,0.930854,9.762365,-0.081451,-0.064818,-0.009487,-1956.54,-1938.24,1858.62,137.0677,-5.4415,-0.0513,984.9675,55.855835,37.48528,176.9591,NaN,,0.0,8.0,275.5635,22 / 23,,1261,2021-05-20 21:42:21:719
-0.177176,0.97447,9.364009,0.011176,0.930854,9.762365,-0.133985,-0.091085,0.003341,-1956.54,-1938.24,1858.62,137.0677,-5.4415,-0.0513,984.9675,55.855835,37.48528,176.9591,NaN,,0.0,8.0,275.5635,22 / 23,,1271,2021-05-20 21:42:21:729
-0.071828,0.950527,9.749487,0.027958,0.904802,9.76478,-0.184076,-0.10208,0.021667,-1956.54,-1938.3,1858.86,137.0677,-5.4415,-0.0513,984.9675,55.855835,37.48528,176.9591,NaN,,0.0,8.0,275.5635,22 / 23,,1282,2021-05-20 21:42:21:740
-0.007183,0.95771,10.024829,0.027958,0.904802,9.76478,-0.20057,-0.085587,0.018613,-1956.54,-1938.3,1858.86,137.0677,-5.4415,-0.0513,984.9675,55.855835,37.48528,176.9591,NaN,,0.0,8.0,275.5635,22 / 23,,1292,2021-05-20 21:42:21:750
0.011971,0.95771,10.118205,0.045222,0.866442,9.768194,-0.190185,-0.040994,0.013115,-1956.66,-1938.42,1858.74,136.9512,-5.2939,-0.164,984.9675,55.855835,37.48528,176.9591,NaN,,0.0,8.0,275.5635,22 / 23,,1301,2021-05-20 21:42:21:759
0.011971,0.95771,10.118205,0.045222,0.866442,9.768194,-0.163307,-0.001288,0.007007,-1956.66,-1938.42,1858.74,136.9512,-5.2939,-0.164,984.9675,55.855835,37.48528,176.9591,NaN,,0.0,8.0,275.5635,22 / 23,,1311,2021-05-20 21:42:21:769
-0.01676,0.955316,10.218765,0.048537,0.832433,9.771135,-0.122379,0.016427,0.008228,-1956.66,-1938.24,1858.56,136.9512,-5.2939,-0.164,984.9675,55.855835,37.48528,176.9591,NaN,,0.0,8.0,275.5635,22 / 23,,1321,2021-05-20 21:42:21:779
-0.093377,0.948133,10.206794,0.048537,0.832433,9.771135,-0.075953,0.02498,0.007617,-1956.66,-1938.24,1858.56,136.9512,-5.2939,-0.164,984.9675,55.855835,37.48528,176.9591,NaN,,0.0,8.0,275.5635,22 / 23,,1331,2021-05-20 21:42:21:789
-0.110137,0.943344,10.111023,0.044641,0.812621,9.772821,-0.013034,0.038419,0.013115,-1957.38,-1937.88,1858.5,136.7204,-4.8694,-0.2846,984.9675,55.855835,37.48528,176.9591,NaN,,0.0,8.0,275.5635,22 / 23,,1341,2021-05-20 21:42:21:799
-0.105348,0.928979,9.862018,0.044641,0.812621,9.772821,0.030337,0.03231,0.007617,-1957.38,-1937.88,1858.5,136.7204,-4.8694,-0.2846,984.9675,55.855835,37.48528,176.9591,NaN,,0.0,8.0,275.5635,22 / 23,,1351,2021-05-20 21:42:21:809
-0.086194,0.996018,9.720756,0.037129,0.811505,9.772946,0.061492,0.016427,-0.005822,-1957.68,-1938.06,1858.86,136.7204,-4.8694,-0.2846,984.9675,55.855835,37.48528,176.9591,NaN,,0.0,8.0,275.5635,22 / 23,,1361,2021-05-20 21:42:21:819
-0.086194,0.996018,9.720756,0.037129,0.811505,9.772946,0.066378,0.01093,-0.013763,-1957.68,-1938.06,1858.86,136.7204,-4.8694,-0.2846,984.9675,55.855835,37.48528,176.9591,NaN,,0.0,8.0,275.5635,22 / 23,,1371,2021-05-20 21:42:21:829
-0.079011,1.084607,9.596253,0.033488,0.823434,9.77196,0.060881,0.004821,-0.030867,-1956.9,-1938.42,1858.8,136.7051,-4.7467,-0.2177,984.9675,55.855835,37.48528,176.9591,NaN,,0.0,8.0,275.5635,22 / 23,,1381,2021-05-20 21:42:21:839
-0.081405,1.132492,9.526819,0.033488,0.823434,9.77196,0.060881,0.004821,-0.030867,-1956.9,-1938.42,1858.8,136.7051,-4.7467,-0.2177,984.9675,55.855835,37.48528,176.9591,NaN,,0.0,8.0,275.5635,22 / 23,,1391,2021-05-20 21:42:21:849
-0.057463,1.113338,9.565128,0.032005,0.835316,9.770958,0.027283,-0.014116,-0.058967,-1956.24,-1938.3,1857.72,136.7051,-4.7467,-0.2177,984.9675,55.855835,37.48528,176.9591,NaN,,0.0,8.0,275.5635,22 / 23,,1401,2021-05-20 21:42:21:859
-0.134079,0.984047,9.75667,0.032005,0.835316,9.770958,-0.015477,-0.026333,-0.081569,-1956.24,-1938.3,1857.72,136.7051,-4.7467,-0.2177,984.9675,55.855835,37.48528,176.9591,NaN,,0.0,8.0,275.5635,22 / 23,,1411,2021-05-20 21:42:21:869
-0.184359,0.826025,9.885961,0.034623,0.83355,9.771099,-0.056405,-0.014727,-0.091343,-1956.84,-1938.18,1858.44,136.7755,-4.8863,-0.1877,984.9675,55.855835,37.48528,176.9591,NaN,,0.0,8.0,275.5635,22 / 23,,1421,2021-05-20 21:42:21:879
-0.184359,0.826025,9.885961,0.034623,0.83355,9.771099,-0.090614,0.002988,-0.073628,-1956.84,-1938.18,1858.44,136.7755,-4.8863,-0.1877,984.9675,55.855835,37.48528,176.9591,NaN,,0.0,8.0,275.5635,22 / 23,,1431,2021-05-20 21:42:21:889
-0.191542,0.679974,9.998491,0.034105,0.818187,9.7724,-0.089392,-6.6E-5,-0.051636,-1957.44,-1938.06,1858.62,136.7755,-4.8863,-0.1877,984.9626,55.855835,37.48528,176.9591,NaN,,0.0,8.0,275.5635,22 / 23,,1442,2021-05-20 21:42:21:900
-0.174782,0.668003,10.125388,0.034105,0.818187,9.7724,-0.062514,0.010319,-0.033921,-1957.44,-1938.06,1858.62,136.7755,-4.8863,-0.1877,984.9626,55.855835,37.48528,176.9591,NaN,,0.0,8.0,275.5635,22 / 23,,1451,2021-05-20 21:42:21:909
-0.136474,0.715888,10.166091,0.031529,0.804108,9.773577,0.003459,0.046971,-0.030256,-1956.9,-1938.06,1857.9,136.7288,-4.7859,-0.2,984.9626,55.855835,37.48528,176.9591,NaN,,0.0,8.0,275.5635,22 / 23,,1462,2021-05-20 21:42:21:920
-0.136474,0.715888,10.166091,0.031529,0.804108,9.773577,0.054772,0.069573,-0.035754,-1956.9,-1938.06,1857.9,136.7288,-4.7859,-0.2,984.9626,55.855835,37.48528,176.9591,NaN,,0.0,8.0,275.5635,22 / 23,,1471,2021-05-20 21:42:21:929
-0.10056,0.742225,10.010463,0.019293,0.809845,9.773135,0.08898,0.070794,-0.049804,-1955.94,-1938.24,1857.6,136.7288,-4.7859,-0.2,984.9626,55.855835,37.48528,176.9591,NaN,,0.0,8.0,275.5635,22 / 23,,1481,2021-05-20 21:42:21:939
-0.122108,0.770957,9.859624,0.019293,0.809845,9.773135,0.101198,0.070794,-0.062632,-1955.94,-1938.24,1857.6,136.7288,-4.7859,-0.2,984.9626,55.855835,37.48528,176.9591,NaN,,0.0,8.0,275.5635,22 / 23,,1491,2021-05-20 21:42:21:949
-0.158022,0.821236,9.660899,0.004261,0.828392,9.771598,0.082261,0.061631,-0.071184,-1956.18,-1938.54,1858.38,136.7817,-4.737,-0.1131,984.9626,55.855835,37.48528,176.9591,NaN,,0.0,8.0,275.5635,22 / 23,,1501,2021-05-20 21:42:21:959
-0.28013,0.778139,9.517242,0.004261,0.828392,9.771598,0.051718,0.042695,-0.070573,-1956.18,-1938.54,1858.38,136.7817,-4.737,-0.1131,984.9626,55.855835,37.48528,176.9591,NaN,,0.0,8.0,275.5635,22 / 23,,1512,2021-05-20 21:42:21:970
-0.28013,0.778139,9.517242,-0.007381,0.841431,9.770482,0.015677,0.009708,-0.068741,-1956.18,-1939.2,1858.68,136.7817,-4.737,-0.1131,984.9626,55.855835,37.48528,176.9591,NaN,,0.0,8.0,275.5635,22 / 23,,1521,2021-05-20 21:42:21:979
-0.304073,0.713494,9.47654,-0.007381,0.841431,9.770482,-0.012423,-0.035496,-0.066908,-1956.18,-1939.2,1858.68,136.7817,-4.737,-0.1131,984.9626,55.855835,37.48528,176.9591,NaN,,0.0,8.0,275.5635,22 / 23,,1531,2021-05-20 21:42:21:989
-0.349564,0.598569,9.57231,-0.006381,0.841625,9.770467,-0.025862,-0.067261,-0.053469,-1956.06,-1939.14,1858.08,136.9365,-4.9221,0.0433,984.97,55.855835,37.48528,176.9591,NaN,,0.0,8.0,275.5635,22 / 23,,1542,2021-05-20 21:42:22:000
-0.342381,0.529135,9.787795,-0.006381,0.841625,9.770467,-0.019754,-0.067872,-0.038197,-1956.06,-1939.14,1858.08,136.9365,-4.9221,0.0433,984.97,55.855835,37.48528,176.9591,NaN,,0.0,8.0,275.5635,22 / 23,,1551,2021-05-20 21:42:22:009
-0.308861,0.519558,10.041589,0.005439,0.836796,9.770882,0.016288,-0.029998,-0.003378,-1956.6,-1938.54,1857.72,136.9365,-4.9221,0.0433,984.97,55.855835,37.48528,176.9591,NaN,,0.0,8.0,275.5635,22 / 23,,1561,2021-05-20 21:42:22:019
-0.308861,0.519558,10.041589,0.005439,0.836796,9.770882,0.016288,-0.029998,-0.003378,-1956.6,-1938.54,1857.72,136.9365,-4.9221,0.0433,984.97,55.855835,37.48528,176.9591,NaN,,0.0,8.0,275.5635,22 / 23,,1571,2021-05-20 21:42:22:029
-0.272947,0.605752,10.07032,0.008702,0.840723,9.770542,0.059659,0.042695,0.027776,-1956.3,-1938.42,1857.9,136.8733,-4.895,-0.0319,984.97,55.855835,37.48528,176.9591,NaN,,0.0,8.0,275.5635,22 / 23,,1582,2021-05-20 21:42:22:040
-0.265764,0.756591,9.792584,0.008702,0.840723,9.770542,0.08165,0.092175,0.041215,-1956.3,-1938.42,1857.9,136.8733,-4.895,-0.0319,984.97,55.855835,37.48528,176.9591,NaN,,0.0,8.0,275.5635,22 / 23,,1591,2021-05-20 21:42:22:049
-0.28013,0.814053,9.512454,-0.00769,0.855589,9.769253,0.085315,0.109279,0.04488,-1956.48,-1938.12,1858.74,136.8733,-4.895,-0.0319,984.97,55.855835,37.48528,176.9591,NaN,,0.0,8.0,275.5635,22 / 23,,1601,2021-05-20 21:42:22:059
-0.28013,0.814053,9.512454,-0.00769,0.855589,9.769253,0.057215,0.080568,0.054043,-1956.48,-1938.12,1858.74,136.8733,-4.895,-0.0319,984.97,55.855835,37.48528,176.9591,NaN,,0.0,8.0,275.5635,22 / 23,,1611,2021-05-20 21:42:22:069
-0.256187,0.84039,9.349643,-0.025802,0.868844,9.768051,0.024229,0.046971,0.048545,-1956.9,-1937.88,1858.26,136.9426,-5.0052,0.0451,984.97,55.855835,37.48528,176.9591,NaN,,0.0,8.0,275.5635,22 / 23,,1621,2021-05-20 21:42:22:079
-0.277736,0.818842,9.490906,-0.025802,0.868844,9.768051,-0.016699,0.031699,0.038161,-1956.9,-1937.88,1858.26,136.9426,-5.0052,0.0451,984.97,55.855835,37.48528,176.9591,NaN,,0.0,8.0,275.5635,22 / 23,,1631,2021-05-20 21:42:22:089
-0.270553,0.828419,9.732727,-0.033221,0.869385,9.767981,-0.057016,0.014595,0.035717,-1956.6,-1937.7,1858.44,136.9426,-5.0052,0.0451,984.97,55.855835,37.48528,176.9591,NaN,,0.0,8.0,275.5635,22 / 23,,1641,2021-05-20 21:42:22:099
-0.270553,0.828419,9.732727,-0.033221,0.869385,9.767981,-0.09489,0.006043,0.040604,-1956.6,-1937.7,1858.44,136.9426,-5.0052,0.0451,984.97,55.855835,37.48528,176.9591,NaN,,0.0,8.0,275.5635,22 / 23,,1651,2021-05-20 21:42:22:109
-0.342381,0.787716,9.976943,-0.035041,0.854385,9.769298,-0.115049,0.018871,0.048545,-1956.72,-1938.0,1859.4,137.0536,-5.0861,0.1949,984.97,55.855835,37.48528,176.9591,NaN,,0.0,8.0,275.5635,22 / 23,,1661,2021-05-20 21:42:22:119
-0.328016,0.735042,10.008069,-0.035041,0.854385,9.769298,-0.113216,0.031088,0.071758,-1956.72,-1938.0,1859.4,137.0536,-5.0861,0.1949,984.97,55.855835,37.48528,176.9591,NaN,,0.0,8.0,275.5635,22 / 23,,1671,2021-05-20 21:42:22:129
-0.198725,0.706311,9.852441,-0.039411,0.831995,9.771214,-0.100999,0.030477,0.069926,-1956.84,-1937.76,1859.34,137.0536,-5.0861,0.1949,984.97,55.855835,37.48528,176.9591,NaN,,0.0,8.0,275.5635,22 / 23,,1682,2021-05-20 21:42:22:140
-0.110137,0.72786,9.703996,-0.039411,0.831995,9.771214,-0.086949,0.020703,0.05893,-1956.84,-1937.76,1859.34,137.0536,-5.0861,0.1949,984.97,55.855835,37.48528,176.9591,NaN,,0.0,8.0,275.5635,22 / 23,,1692,2021-05-20 21:42:22:150
-0.110137,0.72786,9.703996,-0.044336,0.813123,9.772781,-0.068623,-0.006175,0.046713,-1956.66,-1937.5198,1858.8,136.984,-4.8668,0.2311,984.97,55.855835,37.48528,176.9591,NaN,,0.0,8.0,275.5635,22 / 23,,1701,2021-05-20 21:42:22:159
-0.045491,0.775745,9.694419,-0.044336,0.813123,9.772781,-0.044188,-0.039161,0.019224,-1956.66,-1937.5198,1858.8,136.984,-4.8668,0.2311,984.97,55.855835,37.48528,176.9591,NaN,,0.0,8.0,275.5635,22 / 23,,1711,2021-05-20 21:42:22:169
-0.031126,0.814053,9.794978,-0.039737,0.801607,9.773752,-0.005704,-0.044048,-0.014374,-1956.72,-1938.3,1858.62,136.984,-4.8668,0.2311,984.97,55.855835,37.48528,176.9591,NaN,,0.0,8.0,275.5635,22 / 23,,1721,2021-05-20 21:42:22:179
-0.162811,0.828419,9.921875,-0.039737,0.801607,9.773752,0.027283,-0.029998,-0.035754,-1956.72,-1938.3,1858.62,136.984,-4.8668,0.2311,984.97,55.855835,37.48528,176.9591,NaN,,0.0,8.0,275.5635,22 / 23,,1731,2021-05-20 21:42:22:189
-0.301679,0.814053,9.897932,-0.032454,0.802266,9.773726,0.057826,-0.006175,-0.042473,-1956.48,-1938.18,1858.62,136.9273,-4.6887,0.2329,984.9758,55.855835,37.48528,176.9591,NaN,,0.0,8.0,275.5635,22 / 23,,1742,2021-05-20 21:42:22:200
-0.395055,0.761379,9.775824,-0.031474,0.807104,9.77333,0.065157,0.015206,-0.035143,-1956.66,-1938.06,1858.5,136.9273,-4.6887,0.2329,984.9758,55.855835,37.48528,176.9591,NaN,,0.0,8.0,275.5635,22 / 23,,1751,2021-05-20 21:42:22:209
-0.395055,0.761379,9.775824,-0.031474,0.807104,9.77333,0.051718,0.015817,-0.027202,-1956.66,-1938.06,1858.5,136.9273,-4.6887,0.2329,984.9758,55.855835,37.48528,176.9591,NaN,,0.0,8.0,275.5635,22 / 23,,1761,2021-05-20 21:42:22:219
-0.371113,0.67758,9.641745,-0.034862,0.819492,9.772288,0.051718,0.015817,-0.027202,-1956.9,-1937.82,1857.96,136.9273,-4.6887,0.2329,984.9758,55.855835,37.48528,176.9591,NaN,,0.0,8.0,275.5635,22 / 23,,1771,2021-05-20 21:42:22:229
-0.366324,0.586597,9.591465,-0.034862,0.819492,9.772288,0.01812,0.006043,-0.015595,-1956.9,-1937.82,1857.96,136.9273,-4.6887,0.2329,984.9758,55.855835,37.48528,176.9591,NaN,,0.0,8.0,275.5635,22 / 23,,1781,2021-05-20 21:42:22:239
-0.294496,0.565049,9.670476,-0.036669,0.822623,9.772017,-0.031971,-0.015338,-0.009487,-1956.54,-1937.88,1858.5,136.9405,-4.7935,0.2044,984.9758,55.855835,37.48528,176.9591,NaN,,0.0,8.0,275.5635,22 / 23,,1792,2021-05-20 21:42:22:250
-0.26337,0.641666,9.823709,-0.036669,0.822623,9.772017,-0.074121,-0.036718,0.008228,-1956.54,-1937.88,1858.5,136.9405,-4.7935,0.2044,984.9758,55.855835,37.48528,176.9591,NaN,,0.0,8.0,275.5635,22 / 23,,1801,2021-05-20 21:42:22:259
-0.26337,0.641666,9.823709,-0.030674,0.808925,9.773182,-0.097944,-0.040383,0.019224,-1956.54,-1937.94,1858.92,136.9405,-4.7935,0.2044,984.9758,55.855835,37.48528,176.9591,NaN,,0.0,8.0,275.5635,22 / 23,,1811,2021-05-20 21:42:22:269
-0.244216,0.72786,9.948212,-0.030674,0.808925,9.773182,-0.092447,-0.034885,0.018613,-1956.54,-1937.94,1858.92,136.9405,-4.7935,0.2044,984.9758,55.855835,37.48528,176.9591,NaN,,0.0,8.0,275.5635,22 / 23,,1822,2021-05-20 21:42:22:280
-0.148445,0.780534,10.010463,-0.023214,0.790952,9.774673,-0.049686,-0.050768,-0.0046,-1956.6,-1938.18,1858.5,136.9027,-4.7316,0.1798,984.9758,55.855835,37.48528,176.9591,NaN,,0.0,8.0,275.5635,22 / 23,,1832,2021-05-20 21:42:22:290
-0.208302,0.756591,10.118205,-0.023214,0.790952,9.774673,-0.005093,-0.064818,-0.027813,-1956.6,-1938.18,1858.5,136.9027,-4.7316,0.1798,984.9758,55.855835,37.48528,176.9591,NaN,,0.0,8.0,275.5635,22 / 23,,1841,2021-05-20 21:42:22:299
-0.208302,0.756591,10.118205,-0.012382,0.787101,9.775004,0.043776,-0.062985,-0.035754,-1956.78,-1938.6,1858.44,136.9027,-4.7316,0.1798,984.9758,55.855835,37.48528,176.9591,NaN,,0.0,8.0,275.5635,22 / 23,,1851,2021-05-20 21:42:22:309
-0.294496,0.706311,10.130177,-0.012382,0.787101,9.775004,0.090813,-0.036107,-0.030867,-1956.78,-1938.6,1858.44,136.9027,-4.7316,0.1798,984.9758,55.855835,37.48528,176.9591,NaN,,0.0,8.0,275.5635,22 / 23,,1861,2021-05-20 21:42:22:319
-0.301679,0.629694,9.974549,-0.004972,0.802773,9.773736,0.1238,-0.005564,-0.008876,-1956.12,-1938.18,1858.68,136.8101,-4.6036,0.0726,984.9758,55.855835,37.48528,176.9591,NaN,,0.0,8.0,275.5635,22 / 23,,1872,2021-05-20 21:42:22:330
-0.21309,0.612934,9.70639,-0.004972,0.802773,9.773736,0.125632,0.002377,0.008228,-1956.12,-1938.18,1858.68,136.8101,-4.6036,0.0726,984.9758,55.855835,37.48528,176.9591,NaN,,0.0,8.0,275.5635,22 / 23,,1882,2021-05-20 21:42:22:340
-0.079011,0.735042,9.677659,-0.005015,0.826624,9.771748,0.093867,-0.001288,0.01617,-1955.82,-1938.06,1859.22,136.8101,-4.6036,0.0726,984.9758,55.855835,37.48528,176.9591,NaN,,0.0,8.0,275.5635,22 / 23,,1891,2021-05-20 21:42:22:349
-0.079011,0.735042,9.677659,-0.005015,0.826624,9.771748,0.057826,-0.009229,0.011894,-1955.82,-1938.06,1859.22,136.8101,-4.6036,0.0726,984.9758,55.855835,37.48528,176.9591,NaN,,0.0,8.0,275.5635,22 / 23,,1901,2021-05-20 21:42:22:359
-0.10056,0.837996,9.665688,-0.004168,0.84115,9.770509,0.021785,-0.01717,-0.006432,-1956.84,-1938.12,1859.22,136.8673,-4.8353,0.0294,984.9758,55.855835,37.48528,176.9591,NaN,,0.0,8.0,275.5635,22 / 23,,1912,2021-05-20 21:42:22:370
-0.136474,0.876305,9.670476,-0.004168,0.84115,9.770509,0.001627,-0.036718,-0.02598,-1956.84,-1938.12,1859.22,136.8673,-4.8353,0.0294,984.9758,55.855835,37.48528,176.9591,NaN,,0.0,8.0,275.5635,22 / 23,,1921,2021-05-20 21:42:22:379
-0.167599,0.842785,9.73991,5.9E-5,0.844171,9.770249,-0.007536,-0.029388,-0.038808,-1956.48,-1938.12,1858.8,136.8673,-4.8353,0.0294,984.9758,55.855835,37.48528,176.9591,NaN,,0.0,8.0,275.5635,22 / 23,,1931,2021-05-20 21:42:22:389
-0.268159,0.826025,9.747093,5.9E-5,0.844171,9.770249,-0.007536,-0.029388,-0.038808,-1956.48,-1938.12,1858.8,136.8673,-4.8353,0.0294,984.9758,55.855835,37.48528,176.9591,NaN,,0.0,8.0,275.5635,22 / 23,,1941,2021-05-20 21:42:22:399
-0.304073,0.782928,9.668081,0.00468,0.842616,9.770382,-0.003871,-0.005564,-0.039419,-1956.3,-1938.42,1858.5,136.9081,-4.9382,-3.0E-4,984.9758,55.855835,37.48528,176.9591,NaN,,0.0,8.0,275.5635,22 / 23,,1951,2021-05-20 21:42:22:409
-0.304073,0.782928,9.668081,0.00468,0.842616,9.770382,0.002238,-0.001288,-0.032089,-1956.3,-1938.42,1858.5,136.9081,-4.9382,-3.0E-4,984.9758,55.855835,37.48528,176.9591,NaN,,0.0,8.0,275.5635,22 / 23,,1961,2021-05-20 21:42:22:419
-0.292102,0.737437,9.526819,0.004258,0.842454,9.770396,-8.17E-4,-0.013505,-0.022926,-1957.08,-1938.78,1858.26,136.9081,-4.9382,-3.0E-4,984.9758,55.855835,37.48528,176.9591,NaN,,0.0,8.0,275.5635,22 / 23,,1972,2021-05-20 21:42:22:430
-0.203513,0.701523,9.553157,0.004258,0.842454,9.770396,-0.019754,-0.055655,-0.018039,-1957.08,-1938.78,1858.26,136.9081,-4.9382,-3.0E-4,984.9758,55.855835,37.48528,176.9591,NaN,,0.0,8.0,275.5635,22 / 23,,1981,2021-05-20 21:42:22:439
-0.150839,0.689551,9.689631,0.01141,0.839648,9.770632,-0.03869,-0.095361,-0.013152,-1957.2,-1938.48,1857.9,136.8756,-4.9281,-0.025,984.9758,55.855835,37.48528,176.9591,NaN,,0.0,8.0,275.5635,22 / 23,,1991,2021-05-20 21:42:22:449
-0.011971,0.682368,9.917087,0.02093,0.835922,9.770936,-0.046021,-0.11552,-0.007654,-1957.2,-1938.48,1857.9,136.8756,-4.9281,-0.025,984.9758,55.855835,37.48528,176.9591,NaN,,0.0,8.0,275.5635,22 / 23,,2001,2021-05-20 21:42:22:459
-0.011971,0.682368,9.917087,0.02093,0.835922,9.770936,-0.044799,-0.110633,-0.008876,-1957.14,-1938.0,1858.08,136.8756,-4.9281,-0.025,984.9758,55.855835,37.48528,176.9591,NaN,,0.0,8.0,275.5635,22 / 23,,2012,2021-05-20 21:42:22:470
0.026337,0.679974,10.139753,0.042006,0.827096,9.771619,-0.029527,-0.077646,-0.010708,-1957.14,-1938.0,1858.08,136.8756,-4.9281,-0.025,984.9758,55.855835,37.48528,176.9591,NaN,,0.0,8.0,275.5635,22 / 23,,2022,2021-05-20 21:42:22:480
0.045491,0.715888,10.144543,0.042006,0.827096,9.771619,0.008957,-0.036107,-0.017428,-1956.84,-1938.0,1858.38,136.7262,-4.8381,-0.2463,984.9758,55.855835,37.48528,176.9591,NaN,,0.0,8.0,275.5635,22 / 23,,2032,2021-05-20 21:42:22:490
-0.023943,0.761379,9.926663,0.051862,0.825311,9.771723,0.035835,0.003599,-0.024758,-1956.84,-1938.0,1858.38,136.7262,-4.8381,-0.2463,984.9814,55.855835,37.48528,176.9591,NaN,,0.0,8.0,275.5635,22 / 23,,2042,2021-05-20 21:42:22:500
-0.023943,0.761379,9.926663,0.051183,0.828711,9.771439,0.06027,0.013984,-0.022315,-1955.94,-1938.12,1857.72,136.7262,-4.8381,-0.2463,984.9814,55.855835,37.48528,176.9591,NaN,,0.0,8.0,275.5635,22 / 23,,2051,2021-05-20 21:42:22:509
-0.143656,0.787716,9.749487,0.051183,0.828711,9.771439,0.068211,-0.004342,-0.016817,-1955.94,-1938.12,1857.72,136.7262,-4.8381,-0.2463,984.9814,55.855835,37.48528,176.9591,NaN,,0.0,8.0,275.5635,22 / 23,,2061,2021-05-20 21:42:22:519
-0.227456,0.804476,9.577099,0.048835,0.84101,9.770399,0.049274,-0.028166,-0.008876,-1956.0,-1938.48,1858.26,136.7172,-4.8476,-0.3001,984.9814,55.855835,37.48528,176.9591,NaN,,0.0,8.0,275.5635,22 / 23,,2071,2021-05-20 21:42:22:529
-0.189148,0.818842,9.512454,0.048835,0.84101,9.770399,0.012011,-0.045881,-0.003378,-1956.0,-1938.48,1858.26,136.7172,-4.8476,-0.3001,984.9814,55.855835,37.48528,176.9591,NaN,,0.0,8.0,275.5635,22 / 23,,2082,2021-05-20 21:42:22:540
-0.167599,0.866728,9.658504,0.053972,0.849144,9.76967,0.012011,-0.045881,-0.003378,-1956.66,-1938.66,1859.16,136.7172,-4.8476,-0.3001,984.9814,55.855835,37.48528,176.9591,NaN,,0.0,8.0,275.5635,22 / 23,,2091,2021-05-20 21:42:22:549
-0.167599,0.866728,9.658504,0.053972,0.849144,9.76967,-0.032582,-0.044048,0.007617,-1956.66,-1938.66,1859.16,136.7172,-4.8476,-0.3001,984.9814,55.855835,37.48528,176.9591,NaN,,0.0,8.0,275.5635,22 / 23,,2101,2021-05-20 21:42:22:559
-0.167599,0.849968,9.811738,0.061974,0.843669,9.770095,-0.047242,-0.025722,0.010672,-1957.2,-1938.36,1858.98,136.7433,-4.9674,-0.3165,984.9814,55.855835,37.48528,176.9591,NaN,,0.0,8.0,275.5635,22 / 23,,2111,2021-05-20 21:42:22:569
-0.177176,0.828419,9.80695,0.063568,0.83865,9.770517,-0.055184,-0.011062,0.005785,-1957.44,-1938.48,1858.98,136.7433,-4.9674,-0.3165,984.9814,55.855835,37.48528,176.9591,NaN,,0.0,8.0,275.5635,22 / 23,,2121,2021-05-20 21:42:22:579
-0.227456,0.770957,9.792584,0.063568,0.83865,9.770517,-0.049686,-0.025111,0.001509,-1957.44,-1938.48,1858.98,136.7433,-4.9674,-0.3165,984.9814,55.855835,37.48528,176.9591,NaN,,0.0,8.0,275.5635,22 / 23,,2131,2021-05-20 21:42:22:589
-0.160416,0.773351,9.941029,0.06791,0.82901,9.771311,-0.02403,-0.054433,0.007617,-1957.56,-1938.78,1858.2,136.7433,-4.9674,-0.3165,984.9841,55.855835,37.48528,176.9591,NaN,,0.0,8.0,275.5635,22 / 23,,2141,2021-05-20 21:42:22:599
-0.160416,0.773351,9.941029,0.073107,0.826607,9.771477,0.001627,-0.050157,0.013115,-1957.5,-1938.54,1858.32,136.6672,-4.8493,-0.3982,984.9841,55.855835,37.48528,176.9591,NaN,,0.0,8.0,275.5635,22 / 23,,2151,2021-05-20 21:42:22:609
-0.093377,0.799688,9.981731,0.073107,0.826607,9.771477,0.028505,-0.026944,0.005174,-1957.5,-1938.54,1858.32,136.6672,-4.8493,-0.3982,984.9841,55.855835,37.48528,176.9591,NaN,,0.0,8.0,275.5635,22 / 23,,2161,2021-05-20 21:42:22:619
-0.102954,0.782928,9.864412,0.079817,0.829813,9.771152,0.03217,-0.021446,-0.006432,-1957.62,-1937.58,1858.98,136.6672,-4.8493,-0.3982,984.9841,55.855835,37.48528,176.9591,NaN,,0.0,8.0,275.5635,22 / 23,,2171,2021-05-20 21:42:22:629
-0.201119,0.775745,9.804555,0.079817,0.829813,9.771152,0.012011,-0.029388,-0.003378,-1957.62,-1937.58,1858.98,136.6672,-4.8493,-0.3982,984.9841,55.855835,37.48528,176.9591,NaN,,0.0,8.0,275.5635,22 / 23,,2182,2021-05-20 21:42:22:640
-0.249005,0.72786,9.878778,0.083927,0.834526,9.770718,-0.003871,-0.023279,0.01617,-1957.08,-1937.64,1858.92,136.6211,-4.854,-0.468,984.9841,55.855835,37.48528,176.9591,NaN,,0.0,8.0,275.5635,22 / 23,,2191,2021-05-20 21:42:22:649
-0.177176,0.754197,9.876384,0.083927,0.834526,9.770718,-0.012423,-0.002509,0.035717,-1957.08,-1937.64,1858.92,136.6211,-4.854,-0.468,984.9841,55.855835,37.48528,176.9591,NaN,,0.0,8.0,275.5635,22 / 23,,2204,2021-05-20 21:42:22:662
-0.177176,0.754197,9.876384,0.086753,0.833175,9.770807,-0.017921,0.023147,0.0516,-1957.14,-1938.12,1858.62,136.6211,-4.854,-0.468,984.9841,55.855835,37.48528,176.9591,NaN,,0.0,8.0,275.5635,22 / 23,,2211,2021-05-20 21:42:22:669
-0.052674,0.811659,9.840469,0.086753,0.833175,9.770807,-0.022197,0.034142,0.050989,-1957.14,-1938.12,1858.62,136.6211,-4.854,-0.468,984.9841,55.855835,37.48528,176.9591,NaN,,0.0,8.0,275.5635,22 / 23,,2222,2021-05-20 21:42:22:680
-0.014366,0.897853,9.830893,0.081897,0.829528,9.77116,-0.026473,0.043916,0.046102,-1956.96,-1938.18,1858.92,136.6084,-4.8737,-0.5087,984.9841,55.855835,37.48528,176.9591,NaN,,0.0,8.0,275.5635,22 / 23,,2231,2021-05-20 21:42:22:689
-0.014366,0.897853,9.830893,0.081897,0.829528,9.77116,-0.017921,0.056744,0.038161,-1956.96,-1938.18,1858.92,136.6084,-4.8737,-0.5087,984.9841,55.855835,37.48528,176.9591,NaN,,0.0,8.0,275.5635,22 / 23,,2242,2021-05-20 21:42:22:700
-0.026337,0.960104,9.73991,0.072736,0.824671,9.771644,-0.020364,0.050025,0.021667,-1956.96,-1938.3,1858.32,136.6084,-4.8737,-0.5087,984.9841,55.855835,37.48528,176.9591,NaN,,0.0,8.0,275.5635,22 / 23,,2252,2021-05-20 21:42:22:710
-0.057463,0.984047,9.58907,0.072736,0.824671,9.771644,-0.028306,0.031699,0.001509,-1956.96,-1938.3,1858.32,136.6084,-4.8737,-0.5087,984.9841,55.855835,37.48528,176.9591,NaN,,0.0,8.0,275.5635,22 / 23,,2261,2021-05-20 21:42:22:719
-0.107742,0.938556,9.534002,0.063205,0.821017,9.772017,-0.040523,0.002988,-0.009487,-1956.96,-1938.36,1858.2,136.629,-4.8239,-0.4265,984.9841,55.855835,37.48528,176.9591,NaN,,0.0,8.0,275.5635,22 / 23,,2272,2021-05-20 21:42:22:730
-0.107742,0.938556,9.534002,0.063205,0.821017,9.772017,-0.040523,0.002988,-0.009487,-1956.96,-1938.36,1858.2,136.629,-4.8239,-0.4265,984.9841,55.855835,37.48528,176.9591,NaN,,0.0,8.0,275.5635,22 / 23,,2281,2021-05-20 21:42:22:739
-0.143656,0.842785,9.598648,0.062512,0.812962,9.772696,-0.057016,-0.010451,-0.010708,-1957.0198,-1937.64,1859.58,136.629,-4.8239,-0.4265,984.9841,55.855835,37.48528,176.9591,NaN,,0.0,8.0,275.5635,22 / 23,,2291,2021-05-20 21:42:22:749
-0.0838,0.742225,9.60583,0.062512,0.812962,9.772696,-0.090614,-0.019003,-0.007043,-1957.0198,-1937.64,1859.58,136.629,-4.8239,-0.4265,984.9841,55.855835,37.48528,176.9591,NaN,,0.0,8.0,275.5635,22 / 23,,2302,2021-05-20 21:42:22:760
-0.098165,0.737437,9.754275,0.066531,0.795732,9.774086,-0.121157,-0.04527,0.001509,-1957.08,-1937.34,1859.1,136.6192,-4.7552,-0.3665,984.9841,55.855835,37.48528,176.9591,NaN,,0.0,8.0,275.5635,22 / 23,,2311,2021-05-20 21:42:22:769
-0.05028,0.701523,9.900327,0.066531,0.795732,9.774086,-0.140705,-0.029388,0.01617,-1957.08,-1937.34,1859.1,136.6192,-4.7552,-0.3665,984.9841,55.855835,37.48528,176.9591,NaN,,0.0,8.0,275.5635,22 / 23,,2322,2021-05-20 21:42:22:780
-0.05028,0.701523,9.900327,0.072662,0.769332,9.776156,-0.132764,0.004821,0.0235,-1956.72,-1938.0,1858.14,136.6192,-4.7552,-0.3665,984.9841,55.855835,37.48528,176.9591,NaN,,0.0,8.0,275.5635,22 / 23,,2331,2021-05-20 21:42:22:789
-0.112531,0.636877,9.953,0.072662,0.769332,9.776156,-0.099166,0.01826,0.033885,-1956.72,-1938.0,1858.14,136.6192,-4.7552,-0.3665,984.9846,55.855835,37.48528,176.9591,NaN,,0.0,8.0,275.5635,22 / 23,,2341,2021-05-20 21:42:22:799
-0.237033,0.725465,9.917087,0.070499,0.74666,9.777929,-0.046021,0.02498,0.053432,-1956.06,-1937.46,1858.38,136.4994,-4.4995,-0.4258,984.9846,55.855835,37.48528,176.9591,NaN,,0.0,8.0,275.5635,22 / 23,,2351,2021-05-20 21:42:22:809
-0.225062,0.852362,9.821315,0.070499,0.74666,9.777929,0.013233,0.021925,0.072369,-1956.06,-1937.46,1858.38,136.4994,-4.4995,-0.4258,984.9846,55.855835,37.48528,176.9591,NaN,,0.0,8.0,275.5635,22 / 23,,2361,2021-05-20 21:42:22:819
-0.225062,0.852362,9.821315,0.066451,0.743405,9.778206,0.068822,0.007264,0.074202,-1956.54,-1936.98,1858.38,136.4994,-4.4995,-0.4258,984.9846,55.855835,37.48528,176.9591,NaN,,0.0,8.0,275.5635,23 / 23,,2371,2021-05-20 21:42:22:829
-0.10056,0.945739,9.715967,0.066451,0.743405,9.778206,0.107306,-0.018392,0.047324,-1956.54,-1936.98,1858.38,136.4994,-4.4995,-0.4258,984.9846,55.855835,37.48528,176.9591,NaN,,0.0,8.0,275.5635,23 / 23,,2382,2021-05-20 21:42:22:840
0.007183,0.976864,9.620196,0.068038,0.760656,9.776868,0.117691,-0.040383,0.028998,-1957.68,-1937.16,1858.32,136.4269,-4.3475,-0.3894,984.9846,55.855835,37.48528,176.9591,NaN,,0.0,8.0,275.5635,23 / 23,,2391,2021-05-20 21:42:22:849
0.055068,0.95771,9.665688,0.068038,0.760656,9.776868,0.104863,-0.042216,0.013115,-1957.68,-1937.16,1858.32,136.4269,-4.3475,-0.3894,984.9846,55.855835,37.48528,176.9591,NaN,,0.0,8.0,275.5635,23 / 23,,2401,2021-05-20 21:42:22:859
0.038308,0.859545,9.744699,0.076124,0.78255,9.775082,0.063324,-0.033053,0.004563,-1957.38,-1937.5198,1858.38,136.4269,-4.3475,-0.3894,984.9846,55.855835,37.48528,176.9591,NaN,,0.0,8.0,275.5635,23 / 23,,2412,2021-05-20 21:42:22:870
0.038308,0.859545,9.744699,0.076124,0.78255,9.775082,0.032781,-0.019614,0.005174,-1957.38,-1937.5198,1858.38,136.4269,-4.3475,-0.3894,984.9846,55.855835,37.48528,176.9591,NaN,,0.0,8.0,275.5635,23 / 23,,2421,2021-05-20 21:42:22:879
-0.095771,0.768562,9.854836,0.081452,0.793681,9.77414,0.012622,-0.004953,0.020446,-1956.9,-1938.06,1858.5,136.5207,-4.5769,-0.4462,984.9846,55.855835,37.48528,176.9591,NaN,,0.0,8.0,275.5635,23 / 23,,2431,2021-05-20 21:42:22:889
-0.169993,0.732648,9.883567,0.081452,0.793681,9.77414,-8.17E-4,0.001767,0.03755,-1956.9,-1938.06,1858.5,136.5207,-4.5769,-0.4462,984.9792,55.855835,37.48528,176.9591,NaN,,0.0,8.0,275.5635,23 / 23,,2441,2021-05-20 21:42:22:899
-0.181965,0.751802,9.838076,0.082403,0.795116,9.774015,-0.009369,0.001767,0.052822,-1957.0198,-1938.48,1858.68,136.5207,-4.5769,-0.4462,984.9792,55.855835,37.48528,176.9591,NaN,,0.0,8.0,275.5635,23 / 23,,2451,2021-05-20 21:42:22:909
-0.181965,0.751802,9.838076,0.082403,0.795116,9.774015,-0.019754,-0.005564,0.068704,-1957.0198,-1938.48,1858.68,136.5207,-4.5769,-0.4462,984.9792,55.855835,37.48528,176.9591,NaN,,0.0,8.0,275.5635,23 / 23,,2461,2021-05-20 21:42:22:919
-0.141262,0.821236,9.804555,0.08332,0.792618,9.774211,-0.014256,-0.006175,0.080921,-1957.2,-1938.6,1858.74,136.5455,-4.6506,-0.483,984.9792,55.855835,37.48528,176.9591,NaN,,0.0,8.0,275.5635,23 / 23,,2471,2021-05-20 21:42:22:929
-0.019154,0.871516,9.785401,0.08332,0.792618,9.774211,-0.009369,-0.016559,0.0797,-1957.2,-1938.6,1858.74,136.5455,-4.6506,-0.483,984.9792,55.855835,37.48528,176.9591,NaN,,0.0,8.0,275.5635,23 / 23,,2481,2021-05-20 21:42:22:939
0.076617,0.914613,9.785401,0.086169,0.790286,9.774375,0.00407,-0.03855,0.061374,-1956.42,-1938.0,1858.62,136.5455,-4.6506,-0.483,984.9792,55.855835,37.48528,176.9591,NaN,,0.0,8.0,275.5635,23 / 23,,2491,2021-05-20 21:42:22:949
0.076617,0.914613,9.785401,0.08972,0.790303,9.774342,0.014455,-0.049546,0.046102,-1956.54,-1938.06,1858.74,136.5455,-4.6506,-0.483,984.9792,55.855835,37.48528,176.9591,NaN,,0.0,8.0,275.5635,23 / 23,,2502,2021-05-20 21:42:22:960
0.150839,0.945739,9.883567,0.08972,0.790303,9.774342,0.026061,-0.047103,0.01678,-1956.54,-1938.06,1858.74,136.5455,-4.6506,-0.483,984.9792,55.855835,37.48528,176.9591,NaN,,0.0,8.0,275.5635,23 / 23,,2512,2021-05-20 21:42:22:970
0.114925,0.936161,9.953,0.099712,0.794329,9.773919,0.043776,-0.011062,0.010672,-1956.6,-1938.12,1858.2,136.4979,-4.6224,-0.5259,984.9792,55.855835,37.48528,176.9591,NaN,,0.0,8.0,275.5635,23 / 23,,2521,2021-05-20 21:42:22:979
0.057463,0.938556,9.905115,0.099712,0.794329,9.773919,0.043776,-0.011062,0.010672,-1956.6,-1938.12,1858.2,136.4979,-4.6224,-0.5259,984.9792,55.855835,37.48528,176.9591,NaN,,0.0,8.0,275.5635,23 / 23,,2531,2021-05-20 21:42:22:989
0.064645,0.905036,9.72315,0.101523,0.803188,9.773176,0.052329,0.020703,0.00945,-1956.66,-1938.6,1858.62,136.4979,-4.6224,-0.5259,984.9792,55.855835,37.48528,176.9591,NaN,,0.0,8.0,275.5635,23 / 23,,2542,2021-05-20 21:42:23:000
0.064645,0.905036,9.72315,0.101523,0.803188,9.773176,0.046831,0.039029,0.005785,-1956.66,-1938.6,1858.62,136.4979,-4.6224,-0.5259,984.9792,55.855835,37.48528,176.9591,NaN,,0.0,8.0,275.5635,23 / 23,,2552,2021-05-20 21:42:23:010
0.071828,0.92419,9.620196,0.093932,0.812309,9.772498,0.028505,0.037197,8.98E-4,-1957.2,-1938.12,1859.16,136.4943,-4.6979,-0.5952,984.9792,55.855835,37.48528,176.9591,NaN,,0.0,8.0,275.5635,23 / 23,,2561,2021-05-20 21:42:23:019
0.079011,0.900247,9.581888,0.093932,0.812309,9.772498,-8.17E-4,0.028034,-0.005822,-1957.2,-1938.12,1859.16,136.4943,-4.6979,-0.5952,984.9792,55.855835,37.48528,176.9591,NaN,,0.0,8.0,275.5635,23 / 23,,2571,2021-05-20 21:42:23:029
0.014366,0.821236,9.675264,0.087671,0.813446,9.772462,-0.039912,0.005432,-0.019871,-1957.14,-1937.88,1858.98,136.4943,-4.6979,-0.5952,984.9792,55.855835,37.48528,176.9591,NaN,,0.0,8.0,275.5635,23 / 23,,2581,2021-05-20 21:42:23:039
-0.138868,0.701523,9.814133,0.087671,0.813446,9.772462,-0.060071,-0.001288,-0.015595,-1957.14,-1937.88,1858.98,136.4943,-4.6979,-0.5952,984.9792,55.855835,37.48528,176.9591,NaN,,0.0,8.0,275.5635,23 / 23,,2591,2021-05-20 21:42:23:049
-0.138868,0.701523,9.814133,0.086876,0.803831,9.773264,-0.069844,0.001767,-3.24E-4,-1957.38,-1937.58,1858.08,136.5584,-4.7581,-0.514,984.9792,55.855835,37.48528,176.9591,NaN,,0.0,8.0,275.5635,23 / 23,,2602,2021-05-20 21:42:23:060
-0.146051,0.641666,9.914692,0.086876,0.803831,9.773264,-0.050908,0.002377,0.022278,-1957.38,-1937.58,1858.08,136.5584,-4.7581,-0.514,984.9792,55.855835,37.48528,176.9591,NaN,,0.0,8.0,275.5635,23 / 23,,2611,2021-05-20 21:42:23:069
-0.059857,0.591386,10.010463,0.086807,0.791404,9.77428,-0.027695,0.017038,0.03022,-1957.08,-1937.4,1857.42,136.5584,-4.7581,-0.514,984.9792,55.855835,37.48528,176.9591,NaN,,0.0,8.0,275.5635,23 / 23,,2621,2021-05-20 21:42:23:079
-0.009577,0.64406,10.00328,0.086807,0.791404,9.77428,0.001016,0.040862,0.038161,-1957.08,-1937.4,1857.42,136.5584,-4.7581,-0.514,984.9792,55.855835,37.48528,176.9591,NaN,,0.0,8.0,275.5635,23 / 23,,2631,2021-05-20 21:42:23:089
0.110137,0.730254,9.766247,0.082843,0.78657,9.774704,0.001016,0.040862,0.038161,-1956.6,-1938.06,1858.32,136.5091,-4.6288,-0.5088,984.9692,55.855835,37.48528,176.9591,NaN,,0.0,8.0,275.5635,23 / 23,,2641,2021-05-20 21:42:23:099
0.110137,0.730254,9.766247,0.078222,0.788553,9.774582,0.030948,0.047582,0.028998,-1956.66,-1938.18,1858.5,136.5091,-4.6288,-0.5088,984.9692,55.855835,37.48528,176.9591,NaN,,0.0,8.0,275.5635,23 / 23,,2651,2021-05-20 21:42:23:109
0.179571,0.792505,9.620196,0.078222,0.788553,9.774582,0.027283,0.018871,0.001509,-1956.66,-1938.18,1858.5,136.5091,-4.6288,-0.5088,984.9692,55.855835,37.48528,176.9591,NaN,,0.0,8.0,275.5635,23 / 23,,2661,2021-05-20 21:42:23:119
0.090982,0.818842,9.627379,0.073882,0.793895,9.774183,0.009568,-0.025722,-0.02598,-1956.72,-1937.94,1858.8,136.5091,-4.6288,-0.5088,984.9692,55.855835,37.48528,176.9591,NaN,,0.0,8.0,275.5635,23 / 23,,2672,2021-05-20 21:42:23:130
-0.079011,0.790111,9.761458,0.073882,0.793895,9.774183,-0.005093,-0.03122,-0.030256,-1956.72,-1937.94,1858.8,136.5091,-4.6288,-0.5088,984.9692,55.855835,37.48528,176.9591,NaN,,0.0,8.0,275.5635,23 / 23,,2681,2021-05-20 21:42:23:139
-0.124502,0.787716,9.787795,0.079021,0.79443,9.7741,-0.019143,-0.012283,-0.019871,-1957.0198,-1938.06,1858.86,136.5542,-4.6434,-0.4331,984.9692,55.855835,37.48528,176.9591,NaN,,0.0,8.0,275.5635,23 / 23,,2691,2021-05-20 21:42:23:149
-0.124502,0.787716,9.787795,0.079021,0.79443,9.7741,-0.028306,0.001767,0.00212,-1957.0198,-1938.06,1858.86,136.5542,-4.6434,-0.4331,984.9692,55.855835,37.48528,176.9591,NaN,,0.0,8.0,275.5635,23 / 23,,2701,2021-05-20 21:42:23:159
-0.105348,0.74462,9.744699,0.079749,0.789769,9.774471,-0.03136,-0.001288,0.027165,-1957.38,-1937.94,1859.16,136.5542,-4.6434,-0.4331,984.9692,55.855835,37.48528,176.9591,NaN,,0.0,8.0,275.5635,23 / 23,,2712,2021-05-20 21:42:23:170
0.009577,0.826025,9.754275,0.079749,0.789769,9.774471,-0.026473,-0.008618,0.035106,-1957.38,-1937.94,1859.16,136.5542,-4.6434,-0.4331,984.9692,55.855835,37.48528,176.9591,NaN,,0.0,8.0,275.5635,23 / 23,,2721,2021-05-20 21:42:23:179
0.160416,0.938556,9.802161,0.080996,0.784039,9.774922,-0.020364,-0.019003,0.022889,-1957.08,-1937.7,1859.16,136.527,-4.6193,-0.4675,984.9692,55.855835,37.48528,176.9591,NaN,,0.0,8.0,275.5635,23 / 23,,2732,2021-05-20 21:42:23:190
0.160416,0.938556,9.802161,0.080996,0.784039,9.774922,-0.003871,-0.022668,0.010061,-1957.08,-1937.7,1859.16,136.527,-4.6193,-0.4675,984.9736,55.855835,37.48528,176.9591,NaN,,0.0,8.0,275.5635,23 / 23,,2741,2021-05-20 21:42:23:199
0.162811,0.99123,9.809344,0.080343,0.786482,9.774732,0.013844,-0.034274,-0.007043,-1956.36,-1937.94,1858.26,136.527,-4.6193,-0.4675,984.9736,55.855835,37.48528,176.9591,NaN,,0.0,8.0,275.5635,23 / 23,,2752,2021-05-20 21:42:23:210
0.167599,0.986441,9.780613,0.080343,0.786482,9.774732,0.037057,-0.027555,-0.017428,-1956.36,-1937.94,1858.26,136.527,-4.6193,-0.4675,984.9736,55.855835,37.48528,176.9591,NaN,,0.0,8.0,275.5635,23 / 23,,2761,2021-05-20 21:42:23:219
0.0838,0.943344,9.701602,0.081822,0.805603,9.773162,0.037668,-0.022668,-0.022315,-1957.0198,-1937.76,1857.78,136.5165,-4.6,-0.4709,984.9736,55.855835,37.48528,176.9591,NaN,,0.0,8.0,275.5635,23 / 23,,2771,2021-05-20 21:42:23:229
0.043097,0.888276,9.613013,0.081822,0.805603,9.773162,0.02484,-0.026333,-0.011319,-1957.0198,-1937.76,1857.78,136.5165,-4.6,-0.4709,984.9736,55.855835,37.48528,176.9591,NaN,,0.0,8.0,275.5635,23 / 23,,2781,2021-05-20 21:42:23:239
0.074223,0.881093,9.644139,0.086162,0.812309,9.77257,4.05E-4,-0.029998,-0.007043,-1957.8,-1938.48,1857.3,136.5165,-4.6,-0.4709,984.9736,55.855835,37.48528,176.9591,NaN,,0.0,8.0,275.5635,23 / 23,,2791,2021-05-20 21:42:23:249
0.074223,0.881093,9.644139,0.086162,0.812309,9.77257,-0.02464,-0.037329,-0.0046,-1957.8,-1938.48,1857.3,136.5165,-4.6,-0.4709,984.9736,55.855835,37.48528,176.9591,NaN,,0.0,8.0,275.5635,23 / 23,,2801,2021-05-20 21:42:23:259
0.138868,0.921796,9.747093,0.088965,0.826036,9.771394,-0.02464,-0.037329,-0.0046,-1956.72,-1938.84,1857.0,136.5728,-4.7514,-0.5052,984.9736,55.855835,37.48528,176.9591,NaN,,0.0,8.0,275.5635,23 / 23,,2811,2021-05-20 21:42:23:269
0.169994,0.888276,9.799767,0.088965,0.826036,9.771394,-0.046632,-0.029388,-0.014374,-1956.72,-1938.84,1857.0,136.5728,-4.7514,-0.5052,984.9736,55.855835,37.48528,176.9591,NaN,,0.0,8.0,275.5635,23 / 23,,2821,2021-05-20 21:42:23:279
0.124502,0.833208,9.888355,0.095056,0.831226,9.770896,-0.05274,-0.034274,-0.019871,-1956.96,-1937.94,1857.72,136.5728,-4.7514,-0.5052,984.9736,55.855835,37.48528,176.9591,NaN,,0.0,8.0,275.5635,23 / 23,,2831,2021-05-20 21:42:23:289
0.052674,0.828419,9.93624,0.095056,0.831226,9.770896,-0.053351,-0.033053,-0.029645,-1956.96,-1937.94,1857.72,136.5728,-4.7514,-0.5052,984.9758,55.855835,37.48528,176.9591,NaN,,0.0,8.0,275.5635,23 / 23,,2842,2021-05-20 21:42:23:300
0.052674,0.828419,9.93624,0.101549,0.830483,9.770894,-0.046632,-0.03122,-0.035143,-1957.98,-1938.18,1858.0198,136.5637,-4.8623,-0.5574,984.9758,55.855835,37.48528,176.9591,NaN,,0.0,8.0,275.5635,23 / 23,,2851,2021-05-20 21:42:23:309
-0.038308,0.799688,9.91948,0.101549,0.830483,9.770894,-0.033803,-0.02389,-0.030867,-1957.98,-1938.18,1858.0198,136.5637,-4.8623,-0.5574,984.9758,55.855835,37.48528,176.9591,NaN,,0.0,8.0,275.5635,23 / 23,,2861,2021-05-20 21:42:23:319
0.03352,0.816448,9.979338,0.099399,0.829404,9.771008,-0.013034,-0.015338,-0.025369,-1957.2,-1938.3,1858.08,136.5637,-4.8623,-0.5574,984.9758,55.855835,37.48528,176.9591,NaN,,0.0,8.0,275.5635,23 / 23,,2871,2021-05-20 21:42:23:329
0.023943,0.842785,9.993703,0.099399,0.829404,9.771008,0.00407,0.007264,-0.023537,-1957.2,-1938.3,1858.08,136.5637,-4.8623,-0.5574,984.9758,55.855835,37.48528,176.9591,NaN,,0.0,8.0,275.5635,23 / 23,,2881,2021-05-20 21:42:23:339
0.023943,0.842785,9.993703,0.091124,0.831713,9.770892,0.021174,0.014595,-0.02598,-1956.96,-1938.24,1857.96,136.5611,-4.8516,-0.5828,984.9758,55.855835,37.48528,176.9591,NaN,,0.0,8.0,275.5635,23 / 23,,2891,2021-05-20 21:42:23:349
0.038308,0.866728,9.941029,0.091124,0.831713,9.770892,0.041333,0.01154,-0.031478,-1956.96,-1938.24,1857.96,136.5611,-4.8516,-0.5828,984.9758,55.855835,37.48528,176.9591,NaN,,0.0,8.0,275.5635,23 / 23,,2901,2021-05-20 21:42:23:359
0.138868,0.85715,9.962578,0.080979,0.839352,9.770329,0.05355,0.003599,-0.041252,-1957.5,-1938.54,1858.08,136.5611,-4.8516,-0.5828,984.9758,55.855835,37.48528,176.9591,NaN,,0.0,8.0,275.5635,23 / 23,,2911,2021-05-20 21:42:23:369
0.081405,0.861939,9.955395,0.080979,0.839352,9.770329,0.050496,0.012151,-0.062632,-1957.5,-1938.54,1858.08,136.5611,-4.8516,-0.5828,984.9758,55.855835,37.48528,176.9591,NaN,,0.0,8.0,275.5635,23 / 23,,2921,2021-05-20 21:42:23:379
-0.079011,0.804476,9.991309,0.07807,0.849944,9.769437,0.044387,0.020093,-0.052247,-1957.62,-1938.0,1858.74,136.6254,-4.91,-0.4749,984.9758,55.855835,37.48528,176.9591,NaN,,0.0,8.0,275.5635,23 / 23,,2931,2021-05-20 21:42:23:389
-0.079011,0.804476,9.991309,0.07807,0.849944,9.769437,0.043776,0.028645,-0.037587,-1957.62,-1938.0,1858.74,136.6254,-4.91,-0.4749,984.9824,55.855835,37.48528,176.9591,NaN,,0.0,8.0,275.5635,23 / 23,,2941,2021-05-20 21:42:23:399
-0.071828,0.811659,9.926663,0.072464,0.858568,9.768725,0.044998,0.056744,-0.030867,-1957.08,-1937.58,1858.68,136.6254,-4.91,-0.4749,984.9824,55.855835,37.48528,176.9591,NaN,,0.0,8.0,275.5635,23 / 23,,2951,2021-05-20 21:42:23:409
-0.069434,0.799688,9.742304,0.072464,0.858568,9.768725,0.040722,0.073238,-0.022926,-1957.08,-1937.58,1858.68,136.6254,-4.91,-0.4749,984.9824,55.855835,37.48528,176.9591,NaN,,0.0,8.0,275.5635,23 / 23,,2961,2021-05-20 21:42:23:419
-0.081405,0.833208,9.538791,0.059189,0.866887,9.76808,0.037668,0.062242,-0.016206,-1957.26,-1937.82,1857.9,136.7091,-5.0227,-0.425,984.9824,55.855835,37.48528,176.9591,NaN,,0.0,8.0,275.5635,23 / 23,,2971,2021-05-20 21:42:23:429
-0.095771,0.928979,9.498088,0.059189,0.866887,9.76808,0.034003,0.03964,-0.014985,-1957.26,-1937.82,1857.9,136.7091,-5.0227,-0.425,984.9824,55.855835,37.48528,176.9591,NaN,,0.0,8.0,275.5635,23 / 23,,2981,2021-05-20 21:42:23:439
-0.095771,0.928979,9.498088,0.04881,0.873802,9.767522,0.030337,0.023147,-0.027813,-1956.96,-1937.94,1857.6,136.7091,-5.0227,-0.425,984.9824,55.855835,37.48528,176.9591,NaN,,0.0,8.0,275.5635,23 / 23,,2991,2021-05-20 21:42:23:449
-0.076617,1.005595,9.464568,0.04881,0.873802,9.767522,0.012011,0.004821,-0.044306,-1956.96,-1937.94,1857.6,136.7091,-5.0227,-0.425,984.9824,55.855835,37.48528,176.9591,NaN,,0.0,8.0,275.5635,23 / 23,,3001,2021-05-20 21:42:23:459
-0.134079,0.976864,9.478934,0.045267,0.877973,9.767164,-0.011201,-0.008007,-0.050415,-1956.24,-1937.76,1858.2,136.8298,-5.112,-0.2863,984.9824,55.855835,37.48528,176.9591,NaN,,0.0,8.0,275.5635,23 / 23,,3012,2021-05-20 21:42:23:470
-0.181965,0.849968,9.62259,0.045267,0.877973,9.767164,-0.029527,-0.00984,-0.043084,-1956.24,-1937.76,1858.2,136.8298,-5.112,-0.2863,984.9824,55.855835,37.48528,176.9591,NaN,,0.0,8.0,275.5635,23 / 23,,3022,2021-05-20 21:42:23:480
-0.160416,0.737437,9.73991,0.04596,0.874112,9.767508,-0.03869,-0.001288,-0.023537,-1956.78,-1937.7,1858.32,136.8298,-5.112,-0.2863,984.9824,55.855835,37.48528,176.9591,NaN,,0.0,8.0,275.5635,23 / 23,,3031,2021-05-20 21:42:23:489
-0.160416,0.737437,9.73991,0.04596,0.874112,9.767508,-0.03869,-0.001288,-0.023537,-1956.78,-1937.7,1858.32,136.8298,-5.112,-0.2863,984.9824,55.855835,37.48528,176.9591,NaN,,0.0,8.0,275.5635,23 / 23,,3041,2021-05-20 21:42:23:499
-0.160416,0.739831,9.77343,0.045812,0.87047,9.767833,-0.039301,0.001767,-0.014374,-1957.32,-1937.64,1858.62,136.8257,-5.1138,-0.2696,984.9805,55.855835,37.48528,176.9591,NaN,,0.0,8.0,275.5635,23 / 23,,3051,2021-05-20 21:42:23:509
-0.124502,0.861939,9.833286,0.045812,0.87047,9.767833,-0.005093,-0.004342,-9.35E-4,-1957.32,-1937.64,1858.62,136.8257,-5.1138,-0.2696,984.9805,55.855835,37.48528,176.9591,NaN,,0.0,8.0,275.5635,23 / 23,,3062,2021-05-20 21:42:23:520
-0.124502,0.861939,9.833286,0.028518,0.861176,9.768723,0.01812,-0.018392,-0.003378,-1957.26,-1938.48,1858.44,136.8257,-5.1138,-0.2696,984.9805,55.855835,37.48528,176.9591,NaN,,0.0,8.0,275.5635,23 / 23,,3071,2021-05-20 21:42:23:529
-0.134079,0.852362,9.854836,0.028518,0.861176,9.768723,0.046831,-0.039772,-0.015595,-1957.26,-1938.48,1858.44,136.8257,-5.1138,-0.2696,984.9805,55.855835,37.48528,176.9591,NaN,,0.0,8.0,275.5635,23 / 23,,3081,2021-05-20 21:42:23:539
-0.122108,0.845179,9.885961,0.005114,0.862979,9.768604,0.069433,-0.044659,-0.017428,-1957.26,-1938.36,1858.08,136.8466,-5.0379,-0.1673,984.9805,55.855835,37.48528,176.9591,NaN,,0.0,8.0,275.5635,23 / 23,,3091,2021-05-20 21:42:23:549
-0.126897,0.826025,9.90272,0.005114,0.862979,9.768604,0.086537,-0.059931,-0.009487,-1957.26,-1938.36,1858.08,136.8466,-5.0379,-0.1673,984.9805,55.855835,37.48528,176.9591,NaN,,0.0,8.0,275.5635,23 / 23,,3101,2021-05-20 21:42:23:559
-0.126897,0.826025,9.90272,0.014649,0.877428,9.767307,0.089591,-0.028166,0.001509,-1957.62,-1937.64,1858.0198,136.8466,-5.0379,-0.1673,984.9805,55.855835,37.48528,176.9591,NaN,,0.0,8.0,275.5635,23 / 23,,3111,2021-05-20 21:42:23:569
-0.148445,0.811659,9.897932,0.014649,0.877428,9.767307,0.071265,0.016427,0.011283,-1957.62,-1937.64,1858.0198,136.8466,-5.0379,-0.1673,984.9805,55.855835,37.48528,176.9591,NaN,,0.0,8.0,275.5635,23 / 23,,3122,2021-05-20 21:42:23:580
-0.110137,0.816448,9.718362,0.018327,0.894447,9.765758,0.021174,0.031088,0.025943,-1957.74,-1937.46,1858.2,136.8982,-5.1333,-0.0859,984.9805,55.855835,37.48528,176.9591,NaN,,0.0,8.0,275.5635,23 / 23,,3131,2021-05-20 21:42:23:589
-0.093377,0.828419,9.586677,0.018327,0.894447,9.765758,-0.028306,0.020703,0.042437,-1957.74,-1937.46,1858.2,136.8982,-5.1333,-0.0859,984.9939,55.855835,37.48528,176.9591,NaN,,0.0,8.0,275.5635,23 / 23,,3142,2021-05-20 21:42:23:600
-0.06704,0.912219,9.656111,0.013434,0.898246,9.765417,-0.057016,-0.001899,0.041215,-1957.44,-1938.36,1858.38,136.8982,-5.1333,-0.0859,984.9939,55.855835,37.48528,176.9591,NaN,,0.0,8.0,275.5635,23 / 23,,3151,2021-05-20 21:42:23:609
-0.06704,0.912219,9.656111,0.013434,0.898246,9.765417,-0.052129,-0.013505,0.03755,-1957.44,-1938.36,1858.38,136.8982,-5.1333,-0.0859,984.9939,55.855835,37.48528,176.9591,NaN,,0.0,8.0,275.5635,23 / 23,,3161,2021-05-20 21:42:23:619
0.021548,0.972076,9.787795,0.014586,0.888267,9.766328,-0.031971,-0.020835,0.010061,-1956.84,-1937.94,1858.74,136.9798,-5.2554,-0.0788,984.9939,55.855835,37.48528,176.9591,NaN,,0.0,8.0,275.5635,23 / 23,,3171,2021-05-20 21:42:23:629
0.131685,0.936161,9.876384,0.014586,0.888267,9.766328,0.002238,-0.019003,-0.016817,-1956.84,-1937.94,1858.74,136.9798,-5.2554,-0.0788,984.9939,55.855835,37.48528,176.9591,NaN,,0.0,8.0,275.5635,23 / 23,,3181,2021-05-20 21:42:23:639
0.153234,0.866728,9.953,0.018504,0.883438,9.766759,0.032781,-0.024501,-0.043695,-1956.78,-1938.12,1858.62,136.9798,-5.2554,-0.0788,984.9939,55.855835,37.48528,176.9591,NaN,,0.0,8.0,275.5635,23 / 23,,3191,2021-05-20 21:42:23:649
-0.009577,0.859545,9.976943,0.018504,0.883438,9.766759,0.064546,-0.024501,-0.045528,-1956.78,-1938.12,1858.62,136.9798,-5.2554,-0.0788,984.9939,55.855835,37.48528,176.9591,NaN,,0.0,8.0,275.5635,23 / 23,,3201,2021-05-20 21:42:23:659
-0.009577,0.859545,9.976943,0.022497,0.890408,9.766118,0.085926,0.001767,-0.035143,-1956.84,-1938.72,1858.38,136.9424,-5.1685,-0.1086,984.9939,55.855835,37.48528,176.9591,NaN,,0.0,8.0,275.5635,23 / 23,,3211,2021-05-20 21:42:23:669
-0.081405,0.845179,9.962578,0.022497,0.890408,9.766118,0.085926,0.02559,-0.030256,-1956.84,-1938.72,1858.38,136.9424,-5.1685,-0.1086,984.9939,55.855835,37.48528,176.9591,NaN,,0.0,8.0,275.5635,23 / 23,,3222,2021-05-20 21:42:23:680
-0.158022,0.854756,9.797373,0.021348,0.90607,9.764679,0.069433,0.046971,-0.005211,-1957.08,-1937.94,1858.86,136.9424,-5.1685,-0.1086,984.9939,55.855835,37.48528,176.9591,NaN,,0.0,8.0,275.5635,23 / 23,,3231,2021-05-20 21:42:23:689
-0.186753,0.847573,9.603436,0.021348,0.90607,9.764679,0.03889,0.034753,0.01678,-1957.08,-1937.94,1858.86,136.9424,-5.1685,-0.1086,984.9878,55.855835,37.48528,176.9591,NaN,,0.0,8.0,275.5635,23 / 23,,3241,2021-05-20 21:42:23:699
-0.179571,0.881093,9.526819,0.01263,0.918497,9.763534,0.03889,0.034753,0.01678,-1957.14,-1937.82,1858.98,136.9741,-5.3013,-0.1253,984.9878,55.855835,37.48528,176.9591,NaN,,0.0,8.0,275.5635,23 / 23,,3252,2021-05-20 21:42:23:710
-0.179571,0.881093,9.526819,0.01263,0.918497,9.763534,-0.006315,0.012151,0.041215,-1957.14,-1937.82,1858.98,136.9741,-5.3013,-0.1253,984.9878,55.855835,37.48528,176.9591,NaN,,0.0,8.0,275.5635,23 / 23,,3261,2021-05-20 21:42:23:719
-0.057463,0.89067,9.591465,0.009914,0.918037,9.76358,-0.050908,0.008486,0.04488,-1956.06,-1938.06,1858.32,136.9741,-5.3013,-0.1253,984.9878,55.855835,37.48528,176.9591,NaN,,0.0,8.0,275.5635,23 / 23,,3272,2021-05-20 21:42:23:730
0.026337,0.885882,9.761458,0.009914,0.918037,9.76358,-0.071066,0.003599,0.042437,-1956.06,-1938.06,1858.32,136.9741,-5.3013,-0.1253,984.9878,55.855835,37.48528,176.9591,NaN,,0.0,8.0,275.5635,23 / 23,,3281,2021-05-20 21:42:23:739
0.079011,0.864333,9.914692,0.009233,0.905343,9.764767,-0.071066,0.015817,0.033274,-1956.06,-1938.9,1858.2,137.0633,-5.3715,-0.0582,984.9878,55.855835,37.48528,176.9591,NaN,,0.0,8.0,275.5635,23 / 23,,3292,2021-05-20 21:42:23:750
0.0,0.818842,10.027223,0.009233,0.905343,9.764767,-0.051519,0.039029,0.020446,-1956.06,-1938.9,1858.2,137.0633,-5.3715,-0.0582,984.9878,55.855835,37.48528,176.9591,NaN,,0.0,8.0,275.5635,23 / 23,,3301,2021-05-20 21:42:23:759
0.0,0.818842,10.027223,0.004269,0.89331,9.765878,-0.021586,0.04636,0.013726,-1957.2,-1939.5,1858.2,137.0633,-5.3715,-0.0582,984.9878,55.855835,37.48528,176.9591,NaN,,0.0,8.0,275.5635,23 / 23,,3311,2021-05-20 21:42:23:769
-0.062251,0.763774,10.065532,0.004269,0.89331,9.765878,-2.06E-4,0.045749,0.019224,-1957.2,-1939.5,1858.2,137.0633,-5.3715,-0.0582,984.9878,55.855835,37.48528,176.9591,NaN,,0.0,8.0,275.5635,23 / 23,,3322,2021-05-20 21:42:23:780
-0.114925,0.787716,10.149331,-0.004496,0.891099,9.766079,0.019953,0.045138,0.025333,-1957.08,-1938.84,1858.08,137.0084,-5.2264,-0.025,984.9878,55.855835,37.48528,176.9591,NaN,,0.0,8.0,275.5635,23 / 23,,3331,2021-05-20 21:42:23:789
-0.134079,0.876305,10.149331,-0.004496,0.891099,9.766079,0.027283,0.062853,0.031441,-1957.08,-1938.84,1858.08,137.0084,-5.2264,-0.025,984.9858,55.855835,37.48528,176.9591,NaN,,0.0,8.0,275.5635,23 / 23,,3341,2021-05-20 21:42:23:799
-0.134079,0.876305,10.149331,-0.014626,0.895568,9.76566,0.042555,0.093396,0.03083,-1956.54,-1938.6,1858.2,137.0084,-5.2264,-0.025,984.9858,55.855835,37.48528,176.4123,NaN,,0.0,8.0,275.5635,23 / 23,,3351,2021-05-20 21:42:23:809
-0.158022,0.945739,9.974549,-0.014626,0.895568,9.76566,0.040722,0.086677,0.019835,-1956.54,-1938.6,1858.2,137.0084,-5.2264,-0.025,984.9858,55.855835,37.485275,176.4123,NaN,,0.0,8.0,275.5635,23 / 23,,3361,2021-05-20 21:42:23:819
-0.184359,0.967287,9.761458,-0.031768,0.903295,9.764908,0.037668,0.067129,0.011894,-1956.42,-1938.18,1858.8,137.0732,-5.2397,0.0858,984.9858,55.855835,37.485275,176.4123,NaN,,0.0,8.0,275.5635,23 / 23,,3371,2021-05-20 21:42:23:829
-0.179571,0.97447,9.703996,-0.031768,0.903295,9.764908,0.037668,0.042695,0.003952,-1956.42,-1938.18,1858.8,137.0732,-5.2397,0.0858,984.9858,55.855835,37.485275,176.4123,NaN,,0.0,8.0,275.5635,23 / 23,,3381,2021-05-20 21:42:23:839
-0.179571,0.97447,9.703996,-0.043431,0.910775,9.764169,0.040722,0.033532,2.87E-4,-1956.54,-1937.7,1858.68,137.0732,-5.2397,0.0858,984.9858,55.855835,37.485275,176.4123,NaN,,0.0,8.0,275.5635,23 / 23,,3391,2021-05-20 21:42:23:849
-0.155628,0.921796,9.670476,-0.043431,0.910775,9.764169,0.041944,0.030477,-0.007043,-1956.54,-1937.7,1858.68,137.0732,-5.2397,0.0858,984.9858,55.855835,37.485275,176.4123,NaN,,0.0,8.0,275.5635,23 / 23,,3402,2021-05-20 21:42:23:860
-0.181965,0.854756,9.629773,-0.049857,0.918873,9.763379,0.052329,0.037808,0.00212,-1956.72,-1938.06,1857.9,137.1805,-5.3289,0.2548,984.9858,55.855835,37.485275,176.4123,NaN,,0.0,8.0,275.5635,23 / 23,,3411,2021-05-20 21:42:23:869
-0.186753,0.785322,9.517242,-0.049857,0.918873,9.763379,0.05355,0.045749,0.010672,-1956.72,-1938.06,1857.9,137.1805,-5.3289,0.2548,984.9858,55.855835,37.485275,176.4123,NaN,,0.0,8.0,275.5635,23 / 23,,3421,2021-05-20 21:42:23:879
-0.136474,0.799688,9.428655,-0.057824,0.929013,9.762376,0.048052,0.048192,0.033274,-1957.2,-1938.24,1858.5,137.1805,-5.3289,0.2548,984.9858,55.855835,37.485275,176.4123,NaN,,0.0,8.0,275.5635,23 / 23,,3431,2021-05-20 21:42:23:889
-0.136474,0.799688,9.428655,-0.057824,0.929013,9.762376,0.030948,0.044527,0.038772,-1957.2,-1938.24,1858.5,137.1805,-5.3289,0.2548,984.9817,55.855835,37.485275,176.4123,NaN,,0.0,8.0,275.5635,23 / 23,,3441,2021-05-20 21:42:23:899
-0.074223,0.869122,9.411894,-0.066339,0.937358,9.761523,0.008957,0.028645,0.03022,-1956.84,-1938.36,1858.86,137.2685,-5.4359,0.3394,984.9817,55.855835,37.485275,176.4123,NaN,,0.0,8.0,275.5635,23 / 23,,3452,2021-05-20 21:42:23:910
0.002394,0.948133,9.452597,-0.066339,0.937358,9.761523,-0.010591,0.016427,0.018613,-1956.84,-1938.36,1858.86,137.2685,-5.4359,0.3394,984.9817,55.855835,37.485275,176.4123,NaN,,0.0,8.0,275.5635,23 / 23,,3462,2021-05-20 21:42:23:920
0.009577,0.948133,9.526819,-0.070976,0.937802,9.761449,-0.027695,-0.004953,-9.35E-4,-1956.36,-1938.48,1858.86,137.2685,-5.4359,0.3394,984.9817,55.855835,37.485275,176.4123,NaN,,0.0,8.0,275.5635,23 / 23,,3471,2021-05-20 21:42:23:929
-0.035914,0.90743,9.670476,-0.070976,0.937802,9.761449,-0.029527,-0.028166,-0.012541,-1956.36,-1938.48,1858.86,137.2685,-5.4359,0.3394,984.9817,55.855835,37.485275,176.4123,NaN,,0.0,8.0,275.5635,23 / 23,,3481,2021-05-20 21:42:23:939
-0.035914,0.90743,9.670476,-0.068798,0.932214,9.761999,-0.014256,-0.025111,-0.015595,-1956.96,-1938.66,1858.5,137.3429,-5.4875,0.4166,984.9817,55.855835,37.485275,176.4123,NaN,,0.0,8.0,275.5635,23 / 23,,3491,2021-05-20 21:42:23:949
-0.136474,0.869122,9.799767,-0.068798,0.932214,9.761999,0.002238,-0.003731,-0.011319,-1956.96,-1938.66,1858.5,137.3429,-5.4875,0.4166,984.9817,55.855835,37.485275,176.4123,NaN,,0.0,8.0,275.5635,23 / 23,,3502,2021-05-20 21:42:23:960
-0.158022,0.816448,9.75667,-0.064492,0.929589,9.76228,-0.001428,0.007875,-9.35E-4,-1956.78,-1938.3,1858.38,137.3429,-5.4875,0.4166,984.9817,55.855835,37.485275,176.4123,NaN,,0.0,8.0,275.5635,23 / 23,,3511,2021-05-20 21:42:23:969
-0.191542,0.828419,9.682447,-0.064492,0.929589,9.76228,-0.014867,0.003599,0.015559,-1956.78,-1938.3,1858.38,137.3429,-5.4875,0.4166,984.9817,55.855835,37.485275,176.4123,NaN,,0.0,8.0,275.5635,23 / 23,,3521,2021-05-20 21:42:23:979
-0.114925,0.900247,9.727939,-0.065794,0.929343,9.762294,-0.03808,-0.00984,0.025333,-1956.36,-1937.94,1858.8,137.305,-5.4393,0.3785,984.9817,55.855835,37.485275,176.4123,NaN,,0.0,8.0,275.5635,23 / 23,,3531,2021-05-20 21:42:23:989
-0.114925,0.900247,9.727939,-0.065794,0.929343,9.762294,-0.046632,-0.021446,0.028387,-1956.36,-1937.94,1858.8,137.305,-5.4393,0.3785,984.9739,55.855835,37.485275,176.4123,NaN,,0.0,8.0,275.5635,23 / 23,,3541,2021-05-20 21:42:23:999
-0.062251,0.979258,9.885961,-0.062916,0.921664,9.763041,-0.041134,-0.026944,0.015559,-1956.48,-1937.94,1858.8,137.305,-5.4393,0.3785,984.9739,55.855835,37.485275,176.4123,NaN,,0.0,8.0,275.5635,23 / 23,,3551,2021-05-20 21:42:24:009
-0.069434,1.005595,9.98652,-0.062916,0.921664,9.763041,-0.041134,-0.026944,0.015559,-1956.48,-1937.94,1858.8,137.305,-5.4393,0.3785,984.9739,55.855835,37.485275,176.4123,NaN,,0.0,8.0,275.5635,23 / 23,,3561,2021-05-20 21:42:24:019
-0.021548,0.996018,10.034406,-0.057245,0.914481,9.763751,4.05E-4,-0.020835,0.001509,-1956.3,-1937.88,1858.8,137.2817,-5.3928,0.3692,984.9739,55.855835,37.485275,176.4123,NaN,,0.0,8.0,275.5635,23 / 23,,3572,2021-05-20 21:42:24:030
-0.004789,0.984047,9.909904,-0.057245,0.914481,9.763751,0.040111,-0.015338,-0.014985,-1956.3,-1937.88,1858.8,137.2817,-5.3928,0.3692,984.9739,55.855835,37.485275,176.4123,NaN,,0.0,8.0,275.5635,23 / 23,,3581,2021-05-20 21:42:24:039
-0.004789,0.984047,9.909904,-0.054408,0.921122,9.763143,0.069433,-0.019003,-0.032089,-1956.84,-1938.36,1858.26,137.2817,-5.3928,0.3692,984.9739,55.855835,37.485275,176.4123,NaN,,0.0,8.0,275.5635,23 / 23,,3592,2021-05-20 21:42:24:050
-0.040703,0.952921,9.771035,-0.054408,0.921122,9.763143,0.081039,-0.034274,-0.035754,-1956.84,-1938.36,1858.26,137.2817,-5.3928,0.3692,984.9739,55.855835,37.485275,176.4123,NaN,,0.0,8.0,275.5635,23 / 23,,3601,2021-05-20 21:42:24:059
-0.035914,0.928979,9.766247,-0.049712,0.936256,9.761728,0.063324,-0.03855,-0.041252,-1957.38,-1938.96,1858.2,137.2518,-5.3896,0.3193,984.9739,55.855835,37.485275,176.4123,NaN,,0.0,8.0,275.5635,23 / 23,,3611,2021-05-20 21:42:24:069
-0.057463,0.869122,9.811738,-0.049712,0.936256,9.761728,0.034613,-0.029388,-0.035754,-1957.38,-1938.96,1858.2,137.2518,-5.3896,0.3193,984.9739,55.855835,37.485275,176.4123,NaN,,0.0,8.0,275.5635,23 / 23,,3621,2021-05-20 21:42:24:079
-0.117319,0.794899,9.842864,-0.043821,0.945752,9.760841,0.001627,-0.007396,-0.02598,-1956.72,-1938.9,1858.32,137.2518,-5.3896,0.3193,984.9739,55.855835,37.485275,176.4123,NaN,,0.0,8.0,275.5635,23 / 23,,3631,2021-05-20 21:42:24:089
-0.117319,0.794899,9.842864,-0.043821,0.945752,9.760841,-0.026473,0.012762,-0.003378,-1956.72,-1938.9,1858.32,137.2518,-5.3896,0.3193,984.9749,55.855835,37.485275,176.4123,NaN,,0.0,8.0,275.5635,23 / 23,,3641,2021-05-20 21:42:24:099
-0.105348,0.811659,9.876384,-0.044663,0.943217,9.761083,-0.042356,0.029866,0.01617,-1956.54,-1938.48,1857.9,137.2632,-5.5342,0.2572,984.9749,55.855835,37.485275,176.4123,NaN,,0.0,8.0,275.5635,23 / 23,,3651,2021-05-20 21:42:24:109
-0.134079,0.936161,9.838076,-0.044663,0.943217,9.761083,-0.037469,0.048803,0.026554,-1956.54,-1938.48,1857.9,137.2632,-5.5342,0.2572,984.9749,55.855835,37.485275,176.4123,NaN,,0.0,8.0,275.5635,23 / 23,,3661,2021-05-20 21:42:24:119
-0.141262,1.082212,9.715967,-0.051984,0.93533,9.761805,-0.005093,0.050025,0.03083,-1956.78,-1938.36,1858.8,137.2632,-5.5342,0.2572,984.9749,55.855835,37.485275,176.4123,NaN,,0.0,8.0,275.5635,23 / 23,,3671,2021-05-20 21:42:24:129
-0.093377,1.199532,9.500483,-0.051984,0.93533,9.761805,0.043166,0.020703,0.007617,-1956.78,-1938.36,1858.8,137.2632,-5.5342,0.2572,984.9749,55.855835,37.485275,176.4123,NaN,,0.0,8.0,275.5635,23 / 23,,3681,2021-05-20 21:42:24:139
-0.093377,1.199532,9.500483,-0.058599,0.939081,9.761408,0.074931,-0.023279,-0.027202,-1956.9,-1938.48,1859.22,137.2653,-5.473,0.3051,984.9749,55.855835,37.485275,176.4123,NaN,,0.0,8.0,275.5635,23 / 23,,3691,2021-05-20 21:42:24:149
-0.03352,1.216292,9.416683,-0.058599,0.939081,9.761408,0.082261,-0.079478,-0.069962,-1956.9,-1938.48,1859.22,137.2653,-5.473,0.3051,984.9749,55.855835,37.485275,176.4123,NaN,,0.0,8.0,275.5635,23 / 23,,3701,2021-05-20 21:42:24:159
-0.098165,1.137281,9.498088,-0.049568,0.954533,9.759958,0.062713,-0.113076,-0.085845,-1956.12,-1938.42,1858.5,137.2653,-5.473,0.3051,984.9749,55.855835,37.485275,176.4123,NaN,,0.0,8.0,275.5635,23 / 23,,3711,2021-05-20 21:42:24:169
-0.138868,1.00799,9.694419,-0.039398,0.96071,9.759399,0.03889,-0.123461,-0.082791,-1956.42,-1938.48,1858.62,137.2653,-5.473,0.3051,984.9749,55.855835,37.485275,176.4123,NaN,,0.0,8.0,275.5635,23 / 23,,3721,2021-05-20 21:42:24:179
-0.138868,1.00799,9.694419,-0.039398,0.96071,9.759399,0.010179,-0.113687,-0.063854,-1956.42,-1938.48,1858.62,137.2653,-5.473,0.3051,984.9749,55.855835,37.485275,176.4123,NaN,,0.0,8.0,275.5635,23 / 23,,3731,2021-05-20 21:42:24:189
-0.062251,0.900247,9.833286,-0.017549,0.965902,9.75895,0.010179,-0.092307,-0.058967,-1956.84,-1938.3,1858.74,137.2856,-5.622,0.2313,984.9775,55.855835,37.485275,176.4123,NaN,,0.0,8.0,275.5635,23 / 23,,3741,2021-05-20 21:42:24:199
-0.045491,0.823631,9.950606,-0.017549,0.965902,9.75895,0.021174,-0.064207,-0.058356,-1956.84,-1938.3,1858.74,137.2856,-5.622,0.2313,984.9775,55.855835,37.485275,176.4123,NaN,,0.0,8.0,275.5635,23 / 23,,3751,2021-05-20 21:42:24:209
-0.110137,0.842785,10.010463,-0.001319,0.968329,9.758726,0.035835,-0.044659,-0.058356,-1957.2,-1938.36,1858.74,137.2856,-5.622,0.2313,984.9775,55.855835,37.485275,176.4123,NaN,,0.0,8.0,275.5635,23 / 23,,3761,2021-05-20 21:42:24:219
-0.205908,0.830813,10.024829,-0.001319,0.968329,9.758726,0.044387,-0.023279,-0.041863,-1957.2,-1938.36,1858.74,137.2856,-5.622,0.2313,984.9775,55.855835,37.485275,176.4123,NaN,,0.0,8.0,275.5635,23 / 23,,3772,2021-05-20 21:42:24:230
-0.205908,0.830813,10.024829,0.005322,0.975715,9.757988,0.049885,0.006043,-0.010098,-1956.54,-1938.72,1858.8,137.2002,-5.6667,0.0077,984.9775,55.855835,37.485275,176.4123,NaN,,0.0,8.0,275.5635,23 / 23,,3781,2021-05-20 21:42:24:239
-0.251399,0.828419,9.960183,0.005322,0.975715,9.757988,0.049274,0.028034,0.0235,-1956.54,-1938.72,1858.8,137.2002,-5.6667,0.0077,984.9775,55.855835,37.485275,176.4123,NaN,,0.0,8.0,275.5635,23 / 23,,3791,2021-05-20 21:42:24:249
-0.201119,0.955316,9.826104,0.003124,0.985404,9.757015,0.046831,0.033532,0.055265,-1956.48,-1938.9,1858.2,137.2002,-5.6667,0.0077,984.9775,55.855835,37.485275,176.4123,NaN,,0.0,8.0,275.5635,23 / 23,,3802,2021-05-20 21:42:24:260
-0.136474,1.110944,9.708784,0.003124,0.985404,9.757015,0.046831,0.033532,0.055265,-1956.48,-1938.9,1858.2,137.2002,-5.6667,0.0077,984.9775,55.855835,37.485275,176.4123,NaN,,0.0,8.0,275.5635,23 / 23,,3811,2021-05-20 21:42:24:269
-0.136474,1.110944,9.708784,-0.003147,0.994531,9.756089,0.048052,0.038419,0.059541,-1956.9,-1938.78,1858.2,137.2245,-5.767,-0.0183,984.9775,55.855835,37.485275,176.4123,NaN,,0.0,8.0,275.5635,23 / 23,,3821,2021-05-20 21:42:24:279
0.019154,1.245023,9.574705,-0.003147,0.994531,9.756089,0.046831,0.028034,0.035717,-1956.9,-1938.78,1858.2,137.2245,-5.767,-0.0183,984.9775,55.855835,37.485275,176.4123,NaN,,0.0,8.0,275.5635,23 / 23,,3831,2021-05-20 21:42:24:289
0.079011,1.28812,9.60583,-0.00764,1.003077,9.755212,0.032781,0.003599,0.00212,-1956.84,-1938.6,1858.2,137.2245,-5.767,-0.0183,984.9729,55.855835,37.485275,176.4123,NaN,,0.0,8.0,275.5635,23 / 23,,3841,2021-05-20 21:42:24:299
0.026337,1.211503,9.737515,-0.00764,1.003077,9.755212,0.008957,-0.011062,-0.038808,-1956.84,-1938.6,1858.2,137.2245,-5.767,-0.0183,984.9729,55.855835,37.485275,176.4123,NaN,,0.0,8.0,275.5635,23 / 23,,3851,2021-05-20 21:42:24:309
-0.124502,1.012778,9.962578,-0.006511,1.004778,9.755038,-0.027695,-0.00984,-0.065075,-1956.42,-1939.0198,1858.26,137.3123,-5.8708,0.0449,984.9729,55.855835,37.485275,176.4123,NaN,,0.0,8.0,275.5635,23 / 23,,3861,2021-05-20 21:42:24:319
-0.124502,1.012778,9.962578,-0.006506,1.000853,9.755442,-0.056405,0.002377,-0.063243,-1956.66,-1939.08,1858.56,137.3123,-5.8708,0.0449,984.9729,55.855835,37.485275,176.4123,NaN,,0.0,8.0,275.5635,23 / 23,,3871,2021-05-20 21:42:24:329
-0.31365,0.869122,10.058349,-0.006506,1.000853,9.755442,-0.069234,0.037808,-0.041252,-1956.66,-1939.08,1858.56,137.3123,-5.8708,0.0449,984.9729,55.855835,37.485275,176.4123,NaN,,0.0,8.0,275.5635,23 / 23,,3881,2021-05-20 21:42:24:339
-0.430969,0.739831,9.962578,-0.014979,0.987892,9.756753,-0.060682,0.097672,0.012504,-1956.96,-1939.08,1857.96,137.3123,-5.8708,0.0449,984.9729,55.855835,37.485275,176.4123,NaN,,0.0,8.0,275.5635,23 / 23,,3891,2021-05-20 21:42:24:349
-0.440547,0.723071,9.751882,-0.014979,0.987892,9.756753,-0.051519,0.129437,0.049156,-1956.96,-1939.08,1857.96,137.3123,-5.8708,0.0449,984.9729,55.855835,37.485275,176.4123,NaN,,0.0,8.0,275.5635,23 / 23,,3901,2021-05-20 21:42:24:359
-0.306467,0.804476,9.632168,-0.037744,0.976948,9.757793,-0.055184,0.095229,0.07298,-1956.72,-1938.9,1858.44,137.2855,-5.7816,0.088,984.9729,55.855835,37.485275,176.4123,NaN,,0.0,8.0,275.5635,23 / 23,,3911,2021-05-20 21:42:24:369
-0.306467,0.804476,9.632168,-0.046522,0.971537,9.758296,-0.069234,0.031088,0.083976,-1956.18,-1938.78,1858.92,137.2855,-5.7816,0.088,984.9729,55.855835,37.485275,176.4123,NaN,,0.0,8.0,275.5635,23 / 23,,3921,2021-05-20 21:42:24:379
-0.093377,0.893065,9.847652,-0.046522,0.971537,9.758296,-0.070455,-0.034274,0.069315,-1956.18,-1938.78,1858.92,137.2855,-5.7816,0.088,984.9729,55.855835,37.485275,176.4123,NaN,,0.0,8.0,275.5635,23 / 23,,3931,2021-05-20 21:42:24:389
0.110137,0.988836,10.225947,-0.045672,0.957787,9.759659,-0.026473,-0.061152,0.03083,-1956.42,-1939.14,1858.98,137.2855,-5.7816,0.088,984.9673,55.855835,37.485275,176.4123,NaN,,0.0,8.0,275.5635,23 / 23,,3941,2021-05-20 21:42:24:399
0.110137,1.019961,10.419884,-0.045672,0.957787,9.759659,0.037057,-0.040383,-0.008265,-1956.42,-1939.14,1858.98,137.2855,-5.7816,0.088,984.9673,55.855835,37.485275,176.4123,NaN,,0.0,8.0,275.5635,23 / 23,,3952,2021-05-20 21:42:24:410
-0.086194,0.960104,10.31693,-0.034733,0.954165,9.760058,0.037057,-0.040383,-0.008265,-1956.78,-1938.72,1858.68,137.3116,-5.6048,0.2681,984.9673,55.855835,37.485275,176.4123,NaN,,0.0,8.0,275.5635,23 / 23,,3961,2021-05-20 21:42:24:419
-0.086194,0.960104,10.31693,-0.033875,0.962438,9.75925,0.13113,0.019482,-0.035143,-1956.72,-1938.18,1858.62,137.3116,-5.6048,0.2681,984.9673,55.855835,37.485275,176.4123,NaN,,0.0,8.0,275.5635,23 / 23,,3972,2021-05-20 21:42:24:430
-0.208302,0.90743,10.008069,-0.033875,0.962438,9.75925,0.176334,0.057966,-0.035754,-1956.72,-1938.18,1858.62,137.3116,-5.6048,0.2681,984.9673,55.855835,37.485275,176.4123,NaN,,0.0,8.0,275.5635,23 / 23,,3981,2021-05-20 21:42:24:439
-0.383084,0.895459,9.514848,-0.045401,0.995474,9.755888,0.182443,0.079347,-0.014374,-1956.96,-1938.54,1858.62,137.3116,-5.6048,0.2681,984.9673,55.855835,37.485275,176.4123,NaN,,0.0,8.0,275.5635,23 / 23,,3991,2021-05-20 21:42:24:449
-0.452518,0.979258,9.150918,-0.045401,0.995474,9.755888,0.148845,0.06774,0.0235,-1956.96,-1938.54,1858.62,137.3116,-5.6048,0.2681,984.9673,55.855835,37.485275,176.4123,NaN,,0.0,8.0,275.5635,23 / 23,,4001,2021-05-20 21:42:24:459
-0.335198,1.089395,9.028811,-0.058119,1.023626,9.752908,0.079817,0.035975,0.066261,-1956.66,-1938.9,1858.56,137.3976,-5.8261,0.2666,984.9673,55.855835,37.485275,176.4123,NaN,,0.0,8.0,275.5635,23 / 23,,4011,2021-05-20 21:42:24:469
-0.335198,1.089395,9.028811,-0.058119,1.023626,9.752908,0.007125,-0.003731,0.080921,-1956.66,-1938.9,1858.56,137.3976,-5.8261,0.2666,984.9673,55.855835,37.485275,176.4123,NaN,,0.0,8.0,275.5635,23 / 23,,4021,2021-05-20 21:42:24:479
-0.169993,1.163618,9.184438,-0.057678,1.028184,9.752431,-0.044188,-0.037329,0.078478,-1956.36,-1939.38,1858.92,137.3976,-5.8261,0.2666,984.9673,55.855835,37.485275,176.4123,NaN,,0.0,8.0,275.5635,23 / 23,,4031,2021-05-20 21:42:24:489
0.0,1.180378,9.47654,-0.057678,1.028184,9.752431,-0.074121,-0.051379,0.057708,-1956.36,-1939.38,1858.92,137.3976,-5.8261,0.2666,984.9727,55.855835,37.485275,176.4123,NaN,,0.0,8.0,275.5635,23 / 23,,4042,2021-05-20 21:42:24:500
0.095771,1.134886,9.761458,-0.047139,1.015819,9.753782,-0.071677,-0.03855,0.022889,-1956.36,-1939.2,1859.16,137.5251,-6.0183,0.3389,984.9727,55.855835,37.485275,176.4123,NaN,,0.0,8.0,275.5635,23 / 23,,4051,2021-05-20 21:42:24:509
0.064645,1.036721,9.933846,-0.047139,1.015819,9.753782,-0.058849,-0.015338,-0.006432,-1956.36,-1939.2,1859.16,137.5251,-6.0183,0.3389,984.9727,55.855835,37.485275,176.4123,NaN,,0.0,8.0,275.5635,23 / 23,,4061,2021-05-20 21:42:24:519
0.064645,1.036721,9.933846,-0.041871,1.003221,9.755111,-0.041134,0.012151,-0.025369,-1956.18,-1938.54,1858.8,137.5251,-6.0183,0.3389,984.9727,55.855835,37.485275,176.4123,NaN,,0.0,8.0,275.5635,23 / 23,,4072,2021-05-20 21:42:24:530
-0.05028,0.94095,9.912297,-0.041871,1.003221,9.755111,-0.026473,0.020703,-0.02598,-1956.18,-1938.54,1858.8,137.5251,-6.0183,0.3389,984.9727,55.855835,37.485275,176.4123,NaN,,0.0,8.0,275.5635,23 / 23,,4081,2021-05-20 21:42:24:539
-0.210696,0.881093,9.862018,-0.045675,0.996705,9.755762,-0.016699,0.015206,-0.020482,-1956.6,-1938.66,1858.8,137.4045,-5.8716,0.2459,984.9727,55.855835,37.485275,176.4123,NaN,,0.0,8.0,275.5635,23 / 23,,4091,2021-05-20 21:42:24:549
-0.249005,0.876305,9.869201,-0.045675,0.996705,9.755762,-0.008758,0.008486,-0.007043,-1956.6,-1938.66,1858.8,137.4045,-5.8716,0.2459,984.9727,55.855835,37.485275,176.4123,NaN,,0.0,8.0,275.5635,23 / 23,,4101,2021-05-20 21:42:24:559
-0.249005,0.876305,9.869201,-0.04842,0.994202,9.756003,-0.003871,0.005432,0.005174,-1957.32,-1938.36,1858.56,137.4045,-5.8716,0.2459,984.9727,55.855835,37.485275,176.4123,NaN,,0.0,8.0,275.5635,23 / 23,,4111,2021-05-20 21:42:24:569
-0.198725,0.885882,9.943423,-0.04842,0.994202,9.756003,-0.00326,0.010319,0.013115,-1957.32,-1938.36,1858.56,137.4045,-5.8716,0.2459,984.9727,55.855835,37.485275,176.4123,NaN,,0.0,8.0,275.5635,23 / 23,,4121,2021-05-20 21:42:24:579
-0.148445,0.938556,9.991309,-0.049967,0.993429,9.756074,-0.001428,0.020093,0.01678,-1957.08,-1938.12,1858.62,137.3906,-5.8187,0.2844,984.9727,55.855835,37.485275,176.4123,NaN,,0.0,8.0,275.5635,23 / 23,,4131,2021-05-20 21:42:24:589
-0.148445,0.964893,9.967366,-0.049967,0.993429,9.756074,0.008346,0.034753,0.020446,-1957.08,-1938.12,1858.62,137.3906,-5.8187,0.2844,984.9739,55.855835,37.485275,176.4123,NaN,,0.0,8.0,275.5635,23 / 23,,4141,2021-05-20 21:42:24:599
-0.112531,0.976864,9.900327,-0.05524,0.994148,9.755973,0.021785,0.033532,0.011894,-1956.84,-1938.18,1859.1,137.3906,-5.8187,0.2844,984.9739,55.855835,37.485275,176.4123,NaN,,0.0,8.0,275.5635,23 / 23,,4151,2021-05-20 21:42:24:609
-0.112531,0.976864,9.900327,-0.05524,0.994148,9.755973,0.030337,0.03231,8.98E-4,-1956.84,-1938.18,1859.1,137.3906,-5.8187,0.2844,984.9739,55.855835,37.485275,176.4123,NaN,,0.0,8.0,275.5635,23 / 23,,4161,2021-05-20 21:42:24:619
-0.071828,0.979258,9.845258,-0.061851,0.999211,9.755416,0.035224,0.029866,-0.005822,-1956.78,-1938.84,1858.62,137.4249,-5.8183,0.3244,984.9739,55.855835,37.485275,176.4123,NaN,,0.0,8.0,275.5635,23 / 23,,4171,2021-05-20 21:42:24:629
-0.071828,0.945739,9.711179,-0.061851,0.999211,9.755416,0.030948,0.017038,-0.008265,-1956.78,-1938.84,1858.62,137.4249,-5.8183,0.3244,984.9739,55.855835,37.485275,176.4123,NaN,,0.0,8.0,275.5635,23 / 23,,4181,2021-05-20 21:42:24:639
-0.110137,0.893065,9.687236,-0.066992,1.005811,9.754704,0.029116,0.007875,2.87E-4,-1957.14,-1939.0198,1858.0198,137.4249,-5.8183,0.3244,984.9739,55.855835,37.485275,176.4123,NaN,,0.0,8.0,275.5635,23 / 23,,4192,2021-05-20 21:42:24:650
-0.023943,0.94095,9.701602,-0.066992,1.005811,9.754704,0.017509,0.014595,0.008228,-1957.14,-1939.0198,1858.0198,137.4249,-5.8183,0.3244,984.9739,55.855835,37.485275,176.4123,NaN,,0.0,8.0,275.5635,23 / 23,,4201,2021-05-20 21:42:24:659
-0.023943,0.94095,9.701602,-0.068955,1.010504,9.754205,-2.06E-4,0.020093,0.005785,-1957.32,-1937.88,1858.56,137.4746,-5.8868,0.3935,984.9739,55.855835,37.485275,176.4123,NaN,,0.0,8.0,275.5635,23 / 23,,4212,2021-05-20 21:42:24:670
-0.057463,0.996018,9.694419,-0.068955,1.010504,9.754205,-0.012423,0.020703,0.006396,-1957.32,-1937.88,1858.56,137.4746,-5.8868,0.3935,984.9739,55.855835,37.485275,176.4123,NaN,,0.0,8.0,275.5635,23 / 23,,4221,2021-05-20 21:42:24:679
-0.129291,1.02475,9.694419,-0.072165,1.01018,9.754215,-0.012423,0.020703,0.006396,-1956.78,-1938.12,1858.86,137.4746,-5.8868,0.3935,984.9739,55.855835,37.485275,176.4123,NaN,,0.0,8.0,275.5635,23 / 23,,4231,2021-05-20 21:42:24:689
-0.153234,0.984047,9.689631,-0.072165,1.01018,9.754215,-0.020975,0.020703,0.008228,-1956.78,-1938.12,1858.86,137.4746,-5.8868,0.3935,984.9746,55.855835,37.485275,176.4123,NaN,,0.0,8.0,275.5635,23 / 23,,4242,2021-05-20 21:42:24:700
-0.134079,0.952921,9.749487,-0.078841,1.002359,9.754971,-0.016088,0.008486,0.010061,-1956.18,-1939.0198,1858.32,137.5272,-5.9125,0.4239,984.9746,55.855835,37.485275,176.4123,NaN,,0.0,8.0,275.5635,23 / 23,,4251,2021-05-20 21:42:24:709
-0.134079,0.952921,9.749487,-0.078841,1.002359,9.754971,-0.002038,5.45E-4,0.013726,-1956.18,-1939.0198,1858.32,137.5272,-5.9125,0.4239,984.9746,55.855835,37.485275,176.4123,NaN,,0.0,8.0,275.5635,23 / 23,,4261,2021-05-20 21:42:24:719
-0.059857,0.986441,9.785401,-0.085903,0.995977,9.755564,0.030948,0.00421,0.008839,-1955.94,-1938.96,1858.5,137.5272,-5.9125,0.4239,984.9746,55.855835,37.485275,176.4123,NaN,,0.0,8.0,275.5635,23 / 23,,4271,2021-05-20 21:42:24:729
-0.028731,1.082212,9.787795,-0.085903,0.995977,9.755564,0.055383,0.015206,-0.003378,-1955.94,-1938.96,1858.5,137.5272,-5.9125,0.4239,984.9746,55.855835,37.485275,176.4123,NaN,,0.0,8.0,275.5635,23 / 23,,4281,2021-05-20 21:42:24:739
-0.06704,1.108549,9.636956,-0.089427,1.001269,9.754991,0.070044,0.020703,-0.022926,-1957.0198,-1939.2,1858.44,137.5224,-5.8291,0.5045,984.9746,55.855835,37.485275,176.4123,NaN,,0.0,8.0,275.5635,23 / 23,,4292,2021-05-20 21:42:24:750
-0.124502,1.113338,9.538791,-0.089427,1.001269,9.754991,0.070044,0.008486,-0.036365,-1957.0198,-1939.2,1858.44,137.5224,-5.8291,0.5045,984.9746,55.855835,37.485275,176.4123,NaN,,0.0,8.0,275.5635,23 / 23,,4302,2021-05-20 21:42:24:760
-0.124502,1.113338,9.538791,-0.091805,1.016973,9.753345,0.046831,-0.006175,-0.04736,-1957.32,-1939.74,1858.62,137.5224,-5.8291,0.5045,984.9746,55.855835,37.485275,176.4123,NaN,,0.0,8.0,275.5635,23 / 23,,4311,2021-05-20 21:42:24:769
-0.232245,1.019961,9.505271,-0.091805,1.016973,9.753345,0.014455,-0.010451,-0.044917,-1957.32,-1939.74,1858.62,137.5224,-5.8291,0.5045,984.9746,55.855835,37.485275,176.4123,NaN,,0.0,8.0,275.5635,23 / 23,,4321,2021-05-20 21:42:24:779
-0.34717,0.972076,9.541185,-0.096445,1.026074,9.752346,-0.025862,-0.012283,-0.019261,-1956.54,-1939.38,1858.56,137.5906,-5.9524,0.5393,984.9746,55.855835,37.485275,176.4123,NaN,,0.0,8.0,275.5635,23 / 23,,4331,2021-05-20 21:42:24:789
-0.29689,0.897853,9.670476,-0.102711,1.024167,9.752482,-0.046632,-0.014727,-0.008265,-1956.3,-1939.14,1858.56,137.5906,-5.9524,0.5393,984.9832,55.855835,37.485275,176.4123,NaN,,0.0,8.0,275.5635,23 / 23,,4341,2021-05-20 21:42:24:799
-0.222668,0.909824,9.859624,-0.102711,1.024167,9.752482,-0.072288,-0.004953,-9.35E-4,-1956.3,-1939.14,1858.56,137.5906,-5.9524,0.5393,984.9832,55.855835,37.485275,176.4123,NaN,,0.0,8.0,275.5635,23 / 23,,4351,2021-05-20 21:42:24:809
-0.222668,0.909824,9.859624,-0.109525,1.011224,9.753759,-0.071066,0.009097,0.003952,-1956.36,-1939.26,1858.2,137.5906,-5.9524,0.5393,984.9832,55.855835,37.485275,176.4123,NaN,,0.0,8.0,275.5635,23 / 23,,4362,2021-05-20 21:42:24:820
-0.222668,0.905036,9.924269,-0.109525,1.011224,9.753759,-0.051519,0.024369,0.010061,-1956.36,-1939.26,1858.2,137.5906,-5.9524,0.5393,984.9832,55.855835,37.485275,176.4123,NaN,,0.0,8.0,275.5635,23 / 23,,4371,2021-05-20 21:42:24:829
-0.222668,0.919402,9.852441,-0.112839,0.998439,9.755038,-0.022197,0.009708,0.008839,-1956.48,-1939.2,1858.32,137.6457,-5.9186,0.6433,984.9832,55.855835,37.485275,176.4123,NaN,,0.0,8.0,275.5635,23 / 23,,4381,2021-05-20 21:42:24:839
-0.193936,0.912219,9.792584,-0.112839,0.998439,9.755038,4.05E-4,-0.011672,0.006396,-1956.48,-1939.2,1858.32,137.6457,-5.9186,0.6433,984.9832,55.855835,37.485275,176.4123,NaN,,0.0,8.0,275.5635,23 / 23,,4391,2021-05-20 21:42:24:849
-0.203513,0.912219,9.835681,-0.114106,0.994571,9.755419,0.01812,-0.022057,0.001509,-1956.3,-1939.08,1858.8,137.6457,-5.9186,0.6433,984.9832,55.855835,37.485275,176.4123,NaN,,0.0,8.0,275.5635,23 / 23,,4401,2021-05-20 21:42:24:859
-0.203513,0.912219,9.835681,-0.114106,0.994571,9.755419,0.034003,-0.022668,0.003952,-1956.3,-1939.08,1858.8,137.6457,-5.9186,0.6433,984.9832,55.855835,37.485275,176.4123,NaN,,0.0,8.0,275.5635,23 / 23,,4411,2021-05-20 21:42:24:869
-0.136474,0.921796,9.840469,-0.109918,0.99841,9.755075,0.040111,-0.019614,0.006396,-1956.9,-1938.48,1858.86,137.5949,-5.8208,0.6701,984.9832,55.855835,37.485275,176.4123,NaN,,0.0,8.0,275.5635,23 / 23,,4422,2021-05-20 21:42:24:880
-0.136474,0.998413,9.816526,-0.109918,0.99841,9.755075,0.040722,-0.010451,0.012504,-1956.9,-1938.48,1858.86,137.5949,-5.8208,0.6701,984.9832,55.855835,37.485275,176.4123,NaN,,0.0,8.0,275.5635,23 / 23,,4431,2021-05-20 21:42:24:889
-0.102954,1.094184,9.797373,-0.106315,1.006068,9.754327,0.03217,0.004821,0.014337,-1957.32,-1938.96,1858.8,137.5949,-5.8208,0.6701,984.9868,55.855835,37.485275,176.4123,NaN,,0.0,8.0,275.5635,23 / 23,,4441,2021-05-20 21:42:24:899
-0.05028,1.134886,9.692024,-0.106315,1.006068,9.754327,0.005292,0.006043,0.002731,-1957.32,-1938.96,1858.8,137.5949,-5.8208,0.6701,984.9868,55.855835,37.485275,176.4123,NaN,,0.0,8.0,275.5635,23 / 23,,4452,2021-05-20 21:42:24:910
-0.081405,1.127703,9.634562,-0.106489,1.011297,9.753785,-0.022197,-0.001288,-0.0046,-1957.08,-1939.44,1858.5,137.6106,-5.8884,0.6245,984.9868,55.855835,37.485275,176.4123,NaN,,0.0,8.0,275.5635,23 / 23,,4461,2021-05-20 21:42:24:919
-0.081405,1.127703,9.634562,-0.106489,1.011297,9.753785,-0.044799,-0.001288,-0.0046,-1957.08,-1939.44,1858.5,137.6106,-5.8884,0.6245,984.9868,55.855835,37.485275,176.4123,NaN,,0.0,8.0,275.5635,23 / 23,,4471,2021-05-20 21:42:24:929
-0.064645,1.089395,9.63935,-0.106862,1.006057,9.754323,-0.064958,-0.002509,0.003341,-1957.26,-1939.2,1858.38,137.6106,-5.8884,0.6245,984.9868,55.855835,37.485275,176.4123,NaN,,0.0,8.0,275.5635,23 / 23,,4481,2021-05-20 21:42:24:939
0.019154,1.142069,9.744699,-0.106954,1.000421,9.754902,-0.071677,-0.004342,0.001509,-1957.0198,-1938.9,1858.68,137.6106,-5.8884,0.6245,984.9868,55.855835,37.485275,176.4123,NaN,,0.0,8.0,275.5635,23 / 23,,4491,2021-05-20 21:42:24:949
0.028731,1.177983,9.838076,-0.106954,1.000421,9.754902,-0.071677,-0.004342,0.001509,-1957.0198,-1938.9,1858.68,137.6106,-5.8884,0.6245,984.9868,55.855835,37.485275,176.4123,NaN,,0.0,8.0,275.5635,23 / 23,,4501,2021-05-20 21:42:24:959
0.023943,1.125309,9.931452,-0.106283,0.987057,9.75627,-0.055184,-0.008007,-0.022315,-1956.78,-1939.14,1858.56,137.5996,-5.8552,0.6282,984.9868,55.855835,37.485275,176.4123,NaN,,0.0,8.0,275.5635,23 / 23,,4511,2021-05-20 21:42:24:969
0.023943,1.125309,9.931452,-0.106283,0.987057,9.75627,-0.019143,-0.01717,-0.051026,-1956.78,-1939.14,1858.56,137.5996,-5.8552,0.6282,984.9868,55.855835,37.485275,176.4123,NaN,,0.0,8.0,275.5635,23 / 23,,4521,2021-05-20 21:42:24:979
-0.007183,1.036721,10.020041,-0.103998,0.981787,9.756826,0.012622,-0.019003,-0.059578,-1956.48,-1939.26,1858.62,137.5996,-5.8552,0.6282,984.9868,55.855835,37.485275,176.4123,NaN,,0.0,8.0,275.5635,23 / 23,,4531,2021-05-20 21:42:24:989
-0.10056,0.986441,10.058349,-0.103998,0.981787,9.756826,0.045609,-0.003731,-0.062021,-1956.48,-1939.26,1858.62,137.5996,-5.8552,0.6282,984.9868,55.855835,37.485275,176.4123,NaN,,0.0,8.0,275.5635,23 / 23,,4541,2021-05-20 21:42:24:999
-0.177176,0.955316,9.993703,-0.102943,0.988325,9.756178,0.052329,0.026201,-0.054691,-1956.66,-1938.6,1858.86,137.5473,-5.7458,0.6107,984.9868,55.855835,37.485275,176.4123,NaN,,0.0,8.0,275.5635,23 / 23,,4552,2021-05-20 21:42:25:010
-0.258582,0.883487,9.792584,-0.102943,0.988325,9.756178,0.043166,0.035975,-0.040641,-1956.66,-1938.6,1858.86,137.5473,-5.7458,0.6107,984.9868,55.855835,37.485275,176.4123,NaN,,0.0,8.0,275.5635,23 / 23,,4561,2021-05-20 21:42:25:019
-0.258582,0.883487,9.792584,-0.109061,0.997634,9.755164,0.023618,0.037197,-0.021093,-1956.84,-1938.24,1858.62,137.5473,-5.7458,0.6107,984.9868,55.855835,37.485275,176.4123,NaN,,0.0,8.0,275.5635,23 / 23,,4572,2021-05-20 21:42:25:030
-0.31365,0.871516,9.617802,-0.109061,0.997634,9.755164,0.004681,0.023147,0.001509,-1956.84,-1938.24,1858.62,137.5473,-5.7458,0.6107,984.9868,55.855835,37.485275,176.4123,NaN,,0.0,8.0,275.5635,23 / 23,,4581,2021-05-20 21:42:25:039
-0.268159,0.90743,9.531608,-0.115745,1.001581,9.754683,-0.006925,0.015206,0.013115,-1956.66,-1938.54,1859.04,137.5997,-5.8388,0.6405,984.9868,55.855835,37.485275,176.4123,NaN,,0.0,8.0,275.5635,23 / 23,,4591,2021-05-20 21:42:25:049
-0.150839,0.99123,9.577099,-0.115745,1.001581,9.754683,-0.027695,0.006654,0.012504,-1956.66,-1938.54,1859.04,137.5997,-5.8388,0.6405,984.9868,55.855835,37.485275,176.4123,NaN,,0.0,8.0,275.5635,23 / 23,,4601,2021-05-20 21:42:25:059
-0.110137,1.084607,9.668081,-0.117532,0.998415,9.754986,-0.033803,-6.77E-4,0.005785,-1956.36,-1938.6,1859.34,137.5997,-5.8388,0.6405,984.9868,55.855835,37.485275,176.4123,NaN,,0.0,8.0,275.5635,23 / 23,,4611,2021-05-20 21:42:25:069
-0.110137,1.084607,9.668081,-0.117532,0.998415,9.754986,-0.035636,-0.006785,-0.014985,-1956.36,-1938.6,1859.34,137.5997,-5.8388,0.6405,984.9868,55.855835,37.485275,176.4123,NaN,,0.0,8.0,275.5635,23 / 23,,4621,2021-05-20 21:42:25:079
-0.086194,1.051087,9.785401,-0.117317,0.9919,9.755652,-0.017921,-0.016559,-0.033921,-1956.3,-1938.78,1859.5198,137.6442,-5.8434,0.6903,984.9868,55.855835,37.485275,176.4123,NaN,,0.0,8.0,275.5635,23 / 23,,4631,2021-05-20 21:42:25:089
-0.074223,0.986441,9.888355,-0.117317,0.9919,9.755652,-2.06E-4,-0.012283,-0.043695,-1956.3,-1938.78,1859.5198,137.6442,-5.8434,0.6903,984.9819,55.855835,37.485275,176.4123,NaN,,0.0,8.0,275.5635,23 / 23,,4641,2021-05-20 21:42:25:099
-0.193936,0.912219,9.873989,-0.115455,0.988755,9.755995,0.014455,0.002988,-0.048582,-1956.54,-1939.0198,1859.16,137.6442,-5.8434,0.6903,984.9819,55.855835,37.485275,176.4123,NaN,,0.0,8.0,275.5635,23 / 23,,4651,2021-05-20 21:42:25:109
-0.292102,0.854756,9.737515,-0.115455,0.988755,9.755995,0.026672,0.014595,-0.031478,-1956.54,-1939.0198,1859.16,137.6442,-5.8434,0.6903,984.9819,55.855835,37.485275,176.4123,NaN,,0.0,8.0,275.5635,23 / 23,,4661,2021-05-20 21:42:25:119
-0.292102,0.854756,9.737515,-0.117542,0.992156,9.755624,0.027894,0.008486,-0.011319,-1956.9,-1939.08,1858.32,137.5975,-5.7867,0.678,984.9819,55.855835,37.485275,176.4123,NaN,,0.0,8.0,275.5635,23 / 23,,4671,2021-05-20 21:42:25:129
-0.268159,0.837996,9.632168,-0.117542,0.992156,9.755624,0.023007,-0.00312,0.006396,-1956.9,-1939.08,1858.32,137.5975,-5.7867,0.678,984.9819,55.855835,37.485275,176.4123,NaN,,0.0,8.0,275.5635,23 / 23,,4682,2021-05-20 21:42:25:140
-0.122108,0.933767,9.617802,-0.119242,0.997067,9.755103,0.004681,-0.015948,0.011283,-1956.78,-1938.96,1858.0198,137.5975,-5.7867,0.678,984.9819,55.855835,37.485275,176.4123,NaN,,0.0,8.0,275.5635,23 / 23,,4691,2021-05-20 21:42:25:149
-0.102954,1.022355,9.737515,-0.119242,0.997067,9.755103,-0.025251,-0.007396,0.005785,-1956.78,-1938.96,1858.0198,137.5975,-5.7867,0.678,984.9819,55.855835,37.485275,176.4123,NaN,,0.0,8.0,275.5635,23 / 23,,4701,2021-05-20 21:42:25:159
-0.102954,1.022355,9.737515,-0.121748,0.991686,9.75562,-0.049075,0.003599,0.00212,-1956.72,-1938.66,1858.44,137.6285,-5.8355,0.7003,984.9819,55.855835,37.485275,176.4123,NaN,,0.0,8.0,275.5635,23 / 23,,4711,2021-05-20 21:42:25:169
-0.169993,1.003201,9.830893,-0.121748,0.991686,9.75562,-0.057627,0.012762,0.010061,-1956.72,-1938.66,1858.44,137.6285,-5.8355,0.7003,984.9819,55.855835,37.485275,176.4123,NaN,,0.0,8.0,275.5635,23 / 23,,4722,2021-05-20 21:42:25:180
-0.225062,0.99123,9.881172,-0.131335,0.978006,9.756876,-0.057627,0.012762,0.010061,-1956.72,-1938.72,1858.56,137.6285,-5.8355,0.7003,984.9819,55.855835,37.485275,176.4123,NaN,,0.0,8.0,275.5635,23 / 23,,4731,2021-05-20 21:42:25:189
-0.210696,1.031933,9.854836,-0.131335,0.978006,9.756876,-0.03869,0.029256,0.022278,-1956.72,-1938.72,1858.56,137.6285,-5.8355,0.7003,984.9751,55.855835,37.485275,176.4123,NaN,,0.0,8.0,275.5635,23 / 23,,4741,2021-05-20 21:42:25:199
-0.222668,1.089395,9.811738,-0.141209,0.970652,9.757473,-0.017921,0.02559,0.019224,-1956.6,-1938.84,1858.44,137.622,-5.7236,0.7712,984.9751,55.855835,37.485275,176.4123,NaN,,0.0,8.0,275.5635,23 / 23,,4751,2021-05-20 21:42:25:209
-0.222668,1.089395,9.811738,-0.141209,0.970652,9.757473,0.001016,0.012762,0.007617,-1956.6,-1938.84,1858.44,137.622,-5.7236,0.7712,984.9751,55.855835,37.485275,176.4123,NaN,,0.0,8.0,275.5635,23 / 23,,4761,2021-05-20 21:42:25:219
-0.232245,1.048692,9.754275,-0.153896,0.976167,9.756731,0.014455,0.007875,-3.24E-4,-1956.66,-1938.9,1858.26,137.622,-5.7236,0.7712,984.9751,55.855835,37.485275,176.4123,NaN,,0.0,8.0,275.5635,23 / 23,,4772,2021-05-20 21:42:25:230
-0.186753,1.000807,9.696813,-0.153896,0.976167,9.756731,0.021174,-0.002509,-0.002156,-1956.66,-1938.9,1858.26,137.622,-5.7236,0.7712,984.9751,55.855835,37.485275,176.4123,NaN,,0.0,8.0,275.5635,23 / 23,,4782,2021-05-20 21:42:25:240
-0.119714,0.964893,9.701602,-0.162109,0.985954,9.755613,0.006514,-0.012283,-0.008876,-1956.42,-1938.72,1858.14,137.703,-5.7128,0.9037,984.9751,55.855835,37.485275,176.4123,NaN,,0.0,8.0,275.5635,23 / 23,,4792,2021-05-20 21:42:25:250
-0.141262,0.969681,9.850046,-0.162109,0.985954,9.755613,-0.013034,-0.020835,-0.006432,-1956.42,-1938.72,1858.14,137.703,-5.7128,0.9037,984.9751,55.855835,37.485275,176.4123,NaN,,0.0,8.0,275.5635,23 / 23,,4801,2021-05-20 21:42:25:259
-0.141262,0.969681,9.850046,-0.16192,0.986717,9.75554,-0.030138,-0.011062,-0.005211,-1956.36,-1938.48,1858.74,137.703,-5.7128,0.9037,984.9751,55.855835,37.485275,176.4123,NaN,,0.0,8.0,275.5635,23 / 23,,4811,2021-05-20 21:42:25:269
-0.129291,0.976864,9.91948,-0.16192,0.986717,9.75554,-0.03808,0.009097,-0.006432,-1956.36,-1938.48,1858.74,137.703,-5.7128,0.9037,984.9751,55.855835,37.485275,176.4123,NaN,,0.0,8.0,275.5635,23 / 23,,4822,2021-05-20 21:42:25:280
-0.169993,0.960104,9.895537,-0.162545,0.980122,9.756194,-0.03136,0.01154,-0.005822,-1956.48,-1938.54,1859.16,137.7543,-5.7747,0.9509,984.9751,55.855835,37.485275,176.4123,NaN,,0.0,8.0,275.5635,23 / 23,,4831,2021-05-20 21:42:25:289
-0.201119,0.988836,9.876384,-0.162545,0.980122,9.756194,-0.016088,0.009097,-0.002767,-1956.48,-1938.54,1859.16,137.7543,-5.7747,0.9509,984.9839,55.855835,37.485275,176.4123,NaN,,0.0,8.0,275.5635,23 / 23,,4841,2021-05-20 21:42:25:299
-0.201119,1.003201,9.799767,-0.164643,0.975484,9.756624,0.005903,0.012151,-0.002767,-1956.36,-1938.24,1859.4,137.7543,-5.7747,0.9509,984.9839,55.855835,37.485275,176.4123,NaN,,0.0,8.0,275.5635,23 / 23,,4853,2021-05-20 21:42:25:311
-0.201119,1.003201,9.799767,-0.164643,0.975484,9.756624,0.021785,0.003599,-0.003378,-1956.36,-1938.24,1859.4,137.7543,-5.7747,0.9509,984.9839,55.855835,37.485275,176.4123,NaN,,0.0,8.0,275.5635,23 / 23,,4861,2021-05-20 21:42:25:319
-0.148445,0.972076,9.70639,-0.166948,0.978315,9.756301,0.026672,-0.010451,-0.009487,-1956.54,-1938.36,1858.98,137.7085,-5.7088,0.9668,984.9839,55.855835,37.485275,176.4123,NaN,,0.0,8.0,275.5635,23 / 23,,4871,2021-05-20 21:42:25:329
-0.146051,0.984047,9.703996,-0.166948,0.978315,9.756301,0.020564,-0.013505,-0.012541,-1956.54,-1938.36,1858.98,137.7085,-5.7088,0.9668,984.9839,55.855835,37.485275,176.4123,NaN,,0.0,8.0,275.5635,23 / 23,,4881,2021-05-20 21:42:25:339
-0.169993,1.005595,9.715967,-0.165432,0.983056,9.755851,0.012011,-0.014727,-0.018039,-1956.72,-1938.66,1858.56,137.7085,-5.7088,0.9668,984.9839,55.855835,37.485275,176.4123,NaN,,0.0,8.0,275.5635,23 / 23,,4891,2021-05-20 21:42:25:349
-0.198725,0.976864,9.747093,-0.165432,0.983056,9.755851,-0.011812,-0.00984,-0.016206,-1956.72,-1938.66,1858.56,137.7085,-5.7088,0.9668,984.9839,55.855835,37.485275,176.4123,NaN,,0.0,8.0,275.5635,23 / 23,,4901,2021-05-20 21:42:25:359
-0.198725,0.976864,9.747093,-0.164787,0.984189,9.755747,-0.030749,-0.006785,-0.014985,-1956.42,-1938.48,1859.04,137.7434,-5.7532,0.9715,984.9839,55.855835,37.485275,176.4123,NaN,,0.0,8.0,275.5635,23 / 23,,4912,2021-05-20 21:42:25:370
-0.21309,0.976864,9.79019,-0.164787,0.984189,9.755747,-0.03136,0.001156,-0.008876,-1956.42,-1938.48,1859.04,137.7434,-5.7532,0.9715,984.9839,55.855835,37.485275,176.4123,NaN,,0.0,8.0,275.5635,23 / 23,,4921,2021-05-20 21:42:25:379
-0.210696,0.981653,9.785401,-0.16666,0.978933,9.756244,-0.02464,-6.77E-4,-0.007043,-1956.54,-1938.42,1859.64,137.7434,-5.7532,0.9715,984.9839,55.855835,37.485275,176.4123,NaN,,0.0,8.0,275.5635,23 / 23,,4931,2021-05-20 21:42:25:389
-0.117319,0.972076,9.80695,-0.16666,0.978933,9.756244,-0.011201,-0.011672,-0.010098,-1956.54,-1938.42,1859.64,137.7434,-5.7532,0.9715,984.9768,55.855835,37.485275,176.4123,NaN,,0.0,8.0,275.5635,23 / 23,,4941,2021-05-20 21:42:25:399
-0.074223,0.972076,9.864412,-0.168322,0.976107,9.756498,0.007125,-0.015948,-0.032089,-1957.0198,-1938.96,1859.5198,137.7378,-5.729,0.9787,984.9768,55.855835,37.485275,176.4123,NaN,,0.0,8.0,275.5635,23 / 23,,4951,2021-05-20 21:42:25:409
-0.074223,0.972076,9.864412,-0.168322,0.976107,9.756498,0.013233,-0.010451,-0.040641,-1957.0198,-1938.96,1859.5198,137.7378,-5.729,0.9787,984.9768,55.855835,37.485275,176.4123,NaN,,0.0,8.0,275.5635,23 / 23,,4961,2021-05-20 21:42:25:419
-0.112531,0.90743,9.897932,-0.163768,0.976416,9.756545,0.008957,-0.006175,-0.036976,-1956.72,-1938.54,1858.92,137.7378,-5.729,0.9787,984.9768,55.855835,37.485275,176.4123,NaN,,0.0,8.0,275.5635,23 / 23,,4971,2021-05-20 21:42:25:429
-0.193936,0.845179,9.917087,-0.163768,0.976416,9.756545,0.006514,0.002988,-0.030256,-1956.72,-1938.54,1858.92,137.7378,-5.729,0.9787,984.9768,55.855835,37.485275,176.4123,NaN,,0.0,8.0,275.5635,23 / 23,,4981,2021-05-20 21:42:25:439
-0.24661,0.811659,9.900327,-0.161541,0.971949,9.757029,0.005292,0.024369,-0.012541,-1956.48,-1937.94,1858.98,137.7227,-5.7142,0.9616,984.9768,55.855835,37.485275,176.4123,NaN,,0.0,8.0,275.5635,23 / 23,,4991,2021-05-20 21:42:25:449
-0.24661,0.811659,9.900327,-0.161541,0.971949,9.757029,0.003459,0.037197,2.87E-4,-1956.48,-1937.94,1858.98,137.7227,-5.7142,0.9616,984.9768,55.855835,37.485275,176.4123,NaN,,0.0,8.0,275.5635,23 / 23,,5002,2021-05-20 21:42:25:460
-0.237033,0.883487,9.802161,-0.169543,0.960058,9.758071,-8.17E-4,0.034142,0.006396,-1956.36,-1938.84,1858.62,137.7227,-5.7142,0.9616,984.9768,55.855835,37.485275,176.4123,NaN,,0.0,8.0,275.5635,23 / 23,,5011,2021-05-20 21:42:25:469
-0.26337,0.938556,9.699207,-0.169543,0.960058,9.758071,-8.17E-4,0.034142,0.006396,-1956.36,-1938.84,1858.62,137.7227,-5.7142,0.9616,984.9768,55.855835,37.485275,176.4123,NaN,,0.0,8.0,275.5635,23 / 23,,5021,2021-05-20 21:42:25:479
-0.26337,0.984047,9.763853,-0.180163,0.949816,9.758882,-0.001428,0.013373,0.004563,-1956.42,-1938.84,1858.26,137.7143,-5.6182,0.9954,984.9768,55.855835,37.485275,176.4123,NaN,,0.0,8.0,275.5635,23 / 23,,5031,2021-05-20 21:42:25:489
-0.232245,1.019961,9.864412,-0.180163,0.949816,9.758882,-0.00326,-0.023279,2.87E-4,-1956.42,-1938.84,1858.26,137.7143,-5.6182,0.9954,984.979,55.855835,37.485275,176.4123,NaN,,0.0,8.0,275.5635,23 / 23,,5042,2021-05-20 21:42:25:500
-0.232245,1.019961,9.864412,-0.184075,0.945349,9.759242,0.005292,-0.013505,-3.24E-4,-1955.94,-1938.42,1858.62,137.7143,-5.6182,0.9954,984.979,55.855835,37.485275,176.4123,NaN,,0.0,8.0,275.5635,23 / 23,,5051,2021-05-20 21:42:25:509
-0.208302,1.067847,9.864412,-0.184075,0.945349,9.759242,0.013844,0.008486,-9.35E-4,-1955.94,-1938.42,1858.62,137.7143,-5.6182,0.9954,984.979,55.855835,37.485275,176.4123,NaN,,0.0,8.0,275.5635,23 / 23,,5061,2021-05-20 21:42:25:519
-0.160416,1.094184,9.732727,-0.18919,0.950448,9.758649,0.017509,0.01093,-0.012541,-1955.5198,-1938.84,1858.68,137.7269,-5.5318,1.0806,984.979,55.855835,37.485275,176.4123,NaN,,0.0,8.0,275.5635,23 / 23,,5072,2021-05-20 21:42:25:530
-0.146051,1.098972,9.603436,-0.18919,0.950448,9.758649,0.020564,0.002988,-0.019261,-1955.5198,-1938.84,1858.68,137.7269,-5.5318,1.0806,984.979,55.855835,37.485275,176.4123,NaN,,0.0,8.0,275.5635,23 / 23,,5081,2021-05-20 21:42:25:539
-0.117319,1.101366,9.574705,-0.190569,0.962847,9.757407,0.012011,-0.022668,-0.03331,-1955.88,-1938.48,1859.16,137.7269,-5.5318,1.0806,984.979,55.855835,37.485275,176.4123,NaN,,0.0,8.0,275.5635,23 / 23,,5091,2021-05-20 21:42:25:549
-0.117319,1.101366,9.574705,-0.190569,0.962847,9.757407,0.007735,-0.056876,-0.040641,-1955.88,-1938.48,1859.16,137.7269,-5.5318,1.0806,984.979,55.855835,37.485275,176.4123,NaN,,0.0,8.0,275.5635,23 / 23,,5101,2021-05-20 21:42:25:559
-0.136474,1.098972,9.783007,-0.18067,0.978174,9.756071,0.005292,-0.054433,-0.054691,-1956.84,-1938.42,1859.7,137.7619,-5.6346,1.1189,984.979,55.855835,37.485275,176.4123,NaN,,0.0,8.0,275.5635,23 / 23,,5112,2021-05-20 21:42:25:570
-0.186753,1.019961,9.830893,-0.18067,0.978174,9.756071,-0.001428,-0.028777,-0.071795,-1956.84,-1938.42,1859.7,137.7619,-5.6346,1.1189,984.979,55.855835,37.485275,176.4123,NaN,,0.0,8.0,275.5635,23 / 23,,5121,2021-05-20 21:42:25:579
-0.301679,0.881093,9.80695,-0.174013,0.990871,9.75491,-0.005093,-0.012283,-0.072406,-1956.96,-1938.84,1858.98,137.7619,-5.6346,1.1189,984.979,55.855835,37.485275,176.4123,NaN,,0.0,8.0,275.5635,23 / 23,,5131,2021-05-20 21:42:25:589
-0.301679,0.881093,9.80695,-0.174013,0.990871,9.75491,-0.009369,-0.007396,-0.052858,-1956.96,-1938.84,1858.98,137.7619,-5.6346,1.1189,984.9771,55.855835,37.485275,176.4123,NaN,,0.0,8.0,275.5635,23 / 23,,5141,2021-05-20 21:42:25:599
-0.373507,0.84039,9.754275,-0.178309,0.992923,9.754624,-0.007536,-0.022668,-0.0327,-1956.6,-1938.54,1858.8,137.7872,-5.7991,1.022,984.9771,55.855835,37.485275,176.4123,NaN,,0.0,8.0,275.5635,23 / 23,,5151,2021-05-20 21:42:25:609
-0.323227,0.826025,9.833286,-0.178309,0.992923,9.754624,-2.06E-4,-0.039161,-0.011319,-1956.6,-1938.54,1858.8,137.7872,-5.7991,1.022,984.9771,55.855835,37.485275,176.4123,NaN,,0.0,8.0,275.5635,23 / 23,,5162,2021-05-20 21:42:25:620
-0.181965,0.876305,9.943423,-0.185018,0.985542,9.755248,0.005292,-0.036718,-0.003378,-1956.6,-1938.78,1858.74,137.7872,-5.7991,1.022,984.9771,55.855835,37.485275,176.4123,NaN,,0.0,8.0,275.5635,23 / 23,,5172,2021-05-20 21:42:25:630
-0.071828,0.900247,9.974549,-0.185018,0.985542,9.755248,0.006514,-0.019003,8.98E-4,-1956.6,-1938.78,1858.74,137.7872,-5.7991,1.022,984.9771,55.855835,37.485275,176.4123,NaN,,0.0,8.0,275.5635,23 / 23,,5181,2021-05-20 21:42:25:639
-0.071828,0.900247,9.974549,-0.188666,0.975523,9.756185,0.010179,5.45E-4,-0.002156,-1956.36,-1938.6,1859.04,137.8242,-5.7678,1.0865,984.9771,55.855835,37.485275,176.4123,NaN,,0.0,8.0,275.5635,23 / 23,,5191,2021-05-20 21:42:25:649
-0.059857,0.869122,9.909904,-0.188666,0.975523,9.756185,0.015066,0.003599,-0.007043,-1956.36,-1938.6,1859.04,137.8242,-5.7678,1.0865,984.9771,55.855835,37.485275,176.4123,NaN,,0.0,8.0,275.5635,23 / 23,,5201,2021-05-20 21:42:25:659
