ACCELEROMETER X (m/s²),ACCELEROMETER Y (m/s²),ACCELEROMETER Z (m/s²),GRAVITY X (m/s²),GRAVITY Y (m/s²),GRAVITY Z (m/s²),GYROSCOPE X (rad/s),GYROSCOPE Y (rad/s),GYROSCOPE Z (rad/s),MAGNETIC FIELD X (μT),MAGNETIC FIELD Y (μT),MAGNETIC FIELD Z (μT),ORIENTATION Z (azimuth °),ORIENTATION X (pitch °),ORIENTATION Y (roll °),ATMOSPHERIC PRESSURE (hPa),LOCATION Latitude : ,LOCATION Longitude : ,LOCATION Altitude ( m),LOCATION Altitude-google ( m),LOCATION Altitude-atmospheric pressure ( m),LOCATION Speed ( m/s),LOCATION Accuracy ( m),LOCATION ORIENTATION (°),Satellites in range,GPS NMEA,Time since start in ms ,YYYY-MO-DD HH-MI-SS_SSS
0.586597,0.385478,10.106234,0.487206,0.40571,9.786134,-0.005704,0.03231,0.0516,-14.1,-3.36,-43.02,95.8228,-2.3573,-2.93,984.7075,55.855694,37.480854,174.5599,NaN,,0.0244,3.0,85.4569,28 / 30,,10,2021-05-20 22:06:41:543
0.586597,0.385478,10.106234,0.475505,0.405244,9.786729,0.026061,0.027423,0.03083,-13.8,-3.0,-42.84,95.7462,-2.3711,-2.8501,984.7075,55.855694,37.480854,174.5599,NaN,,0.0244,3.0,85.4569,28 / 30,,19,2021-05-20 22:06:41:552
0.679974,0.421392,10.094262,0.475505,0.405244,9.786729,0.043776,0.027423,0.01678,-13.8,-3.0,-42.84,95.7462,-2.3711,-2.8501,984.7075,55.855694,37.480854,174.5599,NaN,,0.0244,3.0,85.4569,28 / 30,,30,2021-05-20 22:06:41:563
0.588992,0.421392,10.039194,0.477395,0.411981,9.786356,0.043776,0.027423,0.01678,-13.86,-2.64,-42.36,95.7462,-2.3711,-2.8501,984.7075,55.855694,37.480854,174.5599,NaN,,0.0244,3.0,85.4569,28 / 30,,39,2021-05-20 22:06:41:572
0.512375,0.418998,9.976943,0.477395,0.411981,9.786356,0.049274,0.037808,0.013115,-13.86,-2.64,-42.36,95.7462,-2.3711,-2.8501,984.7075,55.855694,37.480854,174.5599,NaN,,0.0244,3.0,85.4569,28 / 30,,49,2021-05-20 22:06:41:582
0.512375,0.418998,9.976943,0.480882,0.420501,9.785823,0.052939,0.045749,0.01617,-14.1,-2.64,-42.24,95.7707,-2.4077,-2.7928,984.7075,55.855694,37.480854,174.5599,NaN,,0.0244,3.0,85.4569,28 / 30,,59,2021-05-20 22:06:41:592
0.509981,0.41421,9.830893,0.480882,0.420501,9.785823,0.048663,0.049414,0.028387,-14.1,-2.64,-42.24,95.7707,-2.4077,-2.7928,984.7075,55.855694,37.480854,174.5599,NaN,,0.0244,3.0,85.4569,28 / 30,,70,2021-05-20 22:06:41:603
0.517163,0.445335,9.735122,0.471817,0.430013,9.785851,0.040111,0.047582,0.03083,-13.74,-2.94,-42.42,95.7707,-2.4077,-2.7928,984.7075,55.855694,37.480854,174.5599,NaN,,0.0244,3.0,85.4569,28 / 30,,79,2021-05-20 22:06:41:612
0.612934,0.488432,9.70639,0.471817,0.430013,9.785851,0.030948,0.050025,0.020446,-13.74,-2.94,-42.42,95.7707,-2.4077,-2.7928,984.7075,55.855694,37.480854,174.5599,NaN,,0.0244,3.0,85.4569,28 / 30,,89,2021-05-20 22:06:41:622
0.574626,0.483644,9.670476,0.462315,0.437007,9.785994,0.024229,0.048803,0.011283,-13.86,-3.18,-43.02,95.2003,-2.5132,-2.7603,984.7129,55.855694,37.480854,174.5599,NaN,,0.0244,3.0,85.4569,28 / 30,,99,2021-05-20 22:06:41:632
0.574626,0.474066,9.794978,0.462315,0.437007,9.785994,0.027283,0.080568,-0.002767,-13.86,-3.18,-43.02,95.2003,-2.5132,-2.7603,984.7129,55.855694,37.480854,174.5599,NaN,,0.0244,3.0,85.4569,28 / 30,,109,2021-05-20 22:06:41:642
0.574626,0.474066,9.794978,0.450627,0.441996,9.786315,0.030337,0.065297,-0.0046,-13.86,-3.84,-43.08,95.2003,-2.5132,-2.7603,984.7129,55.855694,37.480854,174.5599,NaN,,0.0244,3.0,85.4569,28 / 30,,120,2021-05-20 22:06:41:653
0.342381,0.337593,9.845258,0.450627,0.441996,9.786315,0.054772,0.05369,0.011894,-13.86,-3.84,-43.08,95.2003,-2.5132,-2.7603,984.7129,55.855694,37.480854,174.5599,NaN,,0.0244,3.0,85.4569,28 / 30,,129,2021-05-20 22:06:41:662
0.36393,0.320833,9.680053,0.438309,0.449902,9.786514,0.06027,0.020093,0.025333,-13.44,-3.84,-42.3,100.6463,-2.5833,-2.6364,984.7129,55.855694,37.480854,174.5599,NaN,,0.0244,3.0,85.4569,28 / 30,,139,2021-05-20 22:06:41:672
0.584203,0.39745,9.567522,0.438309,0.449902,9.786514,0.048052,5.45E-4,0.014337,-13.44,-3.84,-42.3,100.6463,-2.5833,-2.6364,984.7129,55.855694,37.480854,174.5599,NaN,,0.0244,3.0,85.4569,28 / 30,,149,2021-05-20 22:06:41:682
0.584203,0.39745,9.567522,0.434571,0.460997,9.786165,0.024229,-0.001899,-0.002156,-13.74,-3.3,-42.72,100.6463,-2.5833,-2.6364,984.7129,55.855694,37.480854,174.5599,NaN,,0.0244,3.0,85.4569,28 / 30,,159,2021-05-20 22:06:41:692
0.675186,0.459701,9.57231,0.434571,0.460997,9.786165,0.002848,0.002988,-0.026591,-13.74,-3.3,-42.72,100.6463,-2.5833,-2.6364,984.7129,55.855694,37.480854,174.5599,NaN,,0.0244,3.0,85.4569,28 / 30,,169,2021-05-20 22:06:41:702
0.553077,0.399844,9.713573,0.435226,0.465676,9.785914,0.001627,0.017649,-0.024148,-13.68,-3.36,-43.14,94.4882,-2.6944,-2.5426,984.7129,55.855694,37.480854,174.5599,NaN,,0.0244,3.0,85.4569,28 / 30,,180,2021-05-20 22:06:41:713
0.33041,0.407027,9.75667,0.435226,0.465676,9.785914,0.00407,0.01826,-0.014374,-13.68,-3.36,-43.14,94.4882,-2.6944,-2.5426,984.7129,55.855694,37.480854,174.5599,NaN,,0.0244,3.0,85.4569,28 / 30,,189,2021-05-20 22:06:41:722
0.301679,0.366324,9.699207,0.45219,0.456585,9.785573,0.012622,0.004821,8.98E-4,-13.14,-3.42,-42.66,94.4882,-2.6944,-2.5426,984.7195,55.855694,37.480854,174.5599,NaN,,0.0244,3.0,85.4569,28 / 30,,199,2021-05-20 22:06:41:732
0.301679,0.366324,9.699207,0.45219,0.456585,9.785573,0.012622,0.004821,8.98E-4,-13.14,-3.42,-42.66,94.4882,-2.6944,-2.5426,984.7195,55.855694,37.480854,174.5599,NaN,,0.0244,3.0,85.4569,28 / 30,,209,2021-05-20 22:06:41:742
0.344776,0.416604,9.687236,0.455798,0.449646,9.785728,0.017509,-0.010451,0.007007,-13.02,-3.24,-42.6,95.0333,-2.6686,-2.6458,984.7195,55.855694,37.480854,174.5599,NaN,,0.0244,3.0,85.4569,28 / 30,,219,2021-05-20 22:06:41:752
0.344776,0.416604,9.687236,0.455798,0.449646,9.785728,0.017509,-0.010451,0.007007,-13.02,-3.24,-42.6,95.0333,-2.6686,-2.6458,984.7195,55.855694,37.480854,174.5599,NaN,,0.0244,3.0,85.4569,28 / 30,,231,2021-05-20 22:06:41:764
0.402238,0.445335,9.682447,0.455679,0.44743,9.785834,0.013233,-0.011672,0.005174,-13.02,-3.06,-42.42,95.0333,-2.6686,-2.6458,984.7195,55.855694,37.480854,174.5599,NaN,,0.0244,3.0,85.4569,28 / 30,,239,2021-05-20 22:06:41:772
0.486038,0.452518,9.727939,0.455194,0.444615,9.785985,0.006514,0.002377,-0.007654,-13.5,-2.76,-42.66,95.0333,-2.6686,-2.6458,984.7195,55.855694,37.480854,174.5599,NaN,,0.0244,3.0,85.4569,28 / 30,,249,2021-05-20 22:06:41:782
0.402238,0.41421,9.730332,0.455194,0.444615,9.785985,-8.17E-4,0.006043,-0.016206,-13.5,-2.76,-42.66,95.0333,-2.6686,-2.6458,984.7195,55.855694,37.480854,174.5599,NaN,,0.0244,3.0,85.4569,28 / 30,,260,2021-05-20 22:06:41:793
0.402238,0.41421,9.730332,0.453395,0.441544,9.786208,0.002238,0.002988,-0.016206,-14.04,-2.82,-43.26,94.8637,-2.5986,-2.6632,984.7195,55.855694,37.480854,174.5599,NaN,,0.0244,3.0,85.4569,28 / 30,,269,2021-05-20 22:06:41:802
0.294496,0.421392,9.749487,0.453395,0.441544,9.786208,0.00407,-0.004342,-0.011319,-14.04,-2.82,-43.26,94.8637,-2.5986,-2.6632,984.7195,55.855694,37.480854,174.5599,NaN,,0.0244,3.0,85.4569,28 / 30,,279,2021-05-20 22:06:41:812
0.320833,0.426181,9.701602,0.446247,0.438729,9.786662,0.005903,-0.006785,-0.007654,-13.98,-3.42,-43.02,94.8637,-2.5986,-2.6632,984.7195,55.855694,37.480854,174.5599,NaN,,0.0244,3.0,85.4569,28 / 30,,291,2021-05-20 22:06:41:824
0.320833,0.426181,9.701602,0.441098,0.437947,9.786931,0.004681,-0.007396,-0.006432,-13.14,-3.66,-42.72,94.8637,-2.5986,-2.6632,984.7231,55.855694,37.480854,174.5599,NaN,,0.0244,3.0,85.4569,28 / 30,,299,2021-05-20 22:06:41:832
0.277736,0.428575,9.656111,0.441098,0.437947,9.786931,-0.004482,-0.013505,-0.005211,-13.14,-3.66,-42.72,94.8637,-2.5986,-2.6632,984.7231,55.855694,37.480854,174.5599,NaN,,0.0244,3.0,85.4569,28 / 30,,309,2021-05-20 22:06:41:842
0.294496,0.337593,9.641745,0.42994,0.435983,9.787516,-0.021586,-0.015338,0.003341,-12.84,-3.3,-42.72,95.4407,-2.5596,-2.5806,984.7231,55.855694,37.480854,174.5599,NaN,,0.0244,3.0,85.4569,29 / 29,,320,2021-05-20 22:06:41:853
0.339987,0.323227,9.732727,0.42994,0.435983,9.787516,-0.030749,-0.007396,0.003952,-12.84,-3.3,-42.72,95.4407,-2.5596,-2.5806,984.7231,55.855694,37.480854,174.5599,NaN,,0.0244,3.0,85.4569,29 / 29,,329,2021-05-20 22:06:41:862
0.332804,0.31365,9.888355,0.417764,0.426317,9.788468,-0.031971,0.009097,0.010672,-13.5,-2.64,-43.14,95.4407,-2.5596,-2.5806,984.7231,55.855694,37.480854,174.5599,NaN,,0.0244,3.0,85.4569,29 / 29,,339,2021-05-20 22:06:41:872
0.26337,0.289707,9.912297,0.417764,0.426317,9.788468,-0.025862,0.015206,0.017391,-13.5,-2.64,-43.14,95.4407,-2.5596,-2.5806,984.7231,55.855694,37.480854,174.5599,NaN,,0.0244,3.0,85.4569,29 / 29,,349,2021-05-20 22:06:41:882
0.26337,0.289707,9.912297,0.402681,0.411185,9.789748,-0.006925,0.007875,0.025943,-13.8,-2.7,-43.2,95.1885,-2.4916,-2.4439,984.7231,55.855694,37.480854,174.5599,NaN,,0.0244,3.0,85.4569,29 / 29,,359,2021-05-20 22:06:41:892
0.234639,0.301679,9.876384,0.402681,0.411185,9.789748,-0.006925,0.007875,0.025943,-13.8,-2.7,-43.2,95.1885,-2.4916,-2.4439,984.7231,55.855694,37.480854,174.5599,NaN,,0.0244,3.0,85.4569,29 / 29,,369,2021-05-20 22:06:41:902
0.301679,0.323227,9.835681,0.385303,0.398209,9.790983,0.007735,-0.003731,0.033885,-13.62,-3.36,-43.2,95.1885,-2.4916,-2.4439,984.7231,55.855694,37.480854,174.5599,NaN,,0.0244,3.0,85.4569,29 / 29,,379,2021-05-20 22:06:41:912
0.325621,0.399844,9.797373,0.385303,0.398209,9.790983,0.011401,-0.005564,0.03755,-13.62,-3.36,-43.2,95.1885,-2.4916,-2.4439,984.7231,55.855694,37.480854,174.5599,NaN,,0.0244,3.0,85.4569,29 / 29,,389,2021-05-20 22:06:41:922
0.399844,0.416604,9.684841,0.371897,0.389832,9.79184,0.008346,-0.002509,0.043048,-13.86,-3.42,-43.26,95.7135,-2.3272,-2.2536,984.7207,55.855694,37.480854,174.5599,NaN,,0.0244,3.0,85.4569,29 / 29,,400,2021-05-20 22:06:41:933
0.399844,0.416604,9.684841,0.371897,0.389832,9.79184,-0.007536,0.001156,0.040604,-13.86,-3.42,-43.26,95.7135,-2.3272,-2.2536,984.7207,55.855694,37.480854,174.5599,NaN,,0.0244,3.0,85.4569,29 / 29,,409,2021-05-20 22:06:41:942
0.450124,0.433364,9.742304,0.363269,0.384245,9.792384,-0.025862,0.002988,0.039382,-13.86,-3.12,-42.84,95.7135,-2.3272,-2.2536,984.7207,55.855694,37.480854,174.5599,NaN,,0.0244,3.0,85.4569,29 / 29,,419,2021-05-20 22:06:41:952
0.390267,0.445335,9.852441,0.363269,0.384245,9.792384,-0.033193,0.010319,0.032052,-13.86,-3.12,-42.84,95.7135,-2.3272,-2.2536,984.7207,55.855694,37.480854,174.5599,NaN,,0.0244,3.0,85.4569,29 / 29,,430,2021-05-20 22:06:41:963
0.407027,0.442941,9.881172,0.359709,0.379307,9.792707,-0.028917,0.013984,0.035717,-13.98,-3.06,-42.18,96.1187,-2.2455,-2.1245,984.7207,55.855694,37.480854,174.5599,NaN,,0.0244,3.0,85.4569,29 / 29,,439,2021-05-20 22:06:41:972
0.383084,0.440547,9.821315,0.3586,0.379204,9.792752,-0.019143,0.01154,0.034496,-14.28,-2.94,-42.18,96.1187,-2.2455,-2.1245,984.7207,55.855694,37.480854,174.5599,NaN,,0.0244,3.0,85.4569,29 / 29,,449,2021-05-20 22:06:41:982
0.383084,0.440547,9.821315,0.3586,0.379204,9.792752,-0.006925,0.00421,0.039993,-14.28,-2.94,-42.18,96.1187,-2.2455,-2.1245,984.7207,55.855694,37.480854,174.5599,NaN,,0.0244,3.0,85.4569,29 / 29,,460,2021-05-20 22:06:41:993
0.371113,0.416604,9.799767,0.358997,0.382876,9.792595,-0.002038,-0.001288,0.042437,-14.04,-2.76,-42.06,96.1187,-2.2455,-2.1245,984.7207,55.855694,37.480854,174.5599,NaN,,0.0244,3.0,85.4569,29 / 29,,469,2021-05-20 22:06:42:002
0.430969,0.466884,9.794978,0.358997,0.382876,9.792595,0.001016,-0.001899,0.046713,-14.04,-2.76,-42.06,96.1187,-2.2455,-2.1245,984.7207,55.855694,37.480854,174.5599,NaN,,0.0244,3.0,85.4569,29 / 29,,479,2021-05-20 22:06:42:012
0.488432,0.493221,9.763853,0.362633,0.389148,9.792213,-0.005093,0.002377,0.045491,-14.4,-3.06,-42.54,95.9776,-2.2375,-2.0995,984.7207,55.855694,37.480854,174.5599,NaN,,0.0244,3.0,85.4569,29 / 29,,490,2021-05-20 22:06:42:023
0.490826,0.505192,9.735122,0.362633,0.389148,9.792213,-0.002649,0.009708,0.040604,-14.4,-3.06,-42.54,95.9776,-2.2375,-2.0995,984.7214,55.855694,37.480854,174.5599,NaN,,0.0244,3.0,85.4569,29 / 29,,499,2021-05-20 22:06:42:032
0.490826,0.505192,9.735122,0.36953,0.397907,9.791604,-0.009369,0.001767,0.033885,-14.1,-2.88,-42.72,95.9776,-2.2375,-2.0995,984.7214,55.855694,37.480854,174.5599,NaN,,0.0244,3.0,85.4569,29 / 29,,509,2021-05-20 22:06:42:042
0.502798,0.509981,9.75667,0.36953,0.397907,9.791604,-0.015477,5.45E-4,0.026554,-14.1,-2.88,-42.72,95.9776,-2.2375,-2.0995,984.7214,55.855694,37.480854,174.5599,NaN,,0.0244,3.0,85.4569,29 / 29,,519,2021-05-20 22:06:42:052
0.502798,0.509981,9.75667,0.36953,0.397907,9.791604,-0.015477,5.45E-4,0.026554,-14.1,-2.88,-42.72,95.9776,-2.2375,-2.0995,984.7214,55.855694,37.480854,174.5599,NaN,,0.0244,3.0,85.4569,29 / 29,,529,2021-05-20 22:06:42:062
0.502798,0.509981,9.75667,0.36953,0.397907,9.791604,-0.015477,5.45E-4,0.026554,-14.1,-2.88,-42.72,95.9776,-2.2375,-2.0995,984.7214,55.855694,37.480854,174.5599,NaN,,0.0244,3.0,85.4569,29 / 29,,539,2021-05-20 22:06:42:072
0.469278,0.545895,9.864412,0.381144,0.407682,9.790756,-0.015477,0.004821,0.018613,-13.44,-3.12,-42.84,96.1953,-2.3254,-2.1613,984.7214,55.855694,37.480854,174.5599,NaN,,0.0244,3.0,85.4569,29 / 29,,549,2021-05-20 22:06:42:082
0.454912,0.430969,9.783007,0.381144,0.407682,9.790756,-0.007536,-0.015338,0.019224,-13.44,-3.12,-42.84,96.1953,-2.3254,-2.1613,984.7214,55.855694,37.480854,174.5599,NaN,,0.0244,3.0,85.4569,29 / 29,,559,2021-05-20 22:06:42:092
0.509981,0.430969,9.924269,0.400514,0.43063,9.789001,-0.016699,-0.003731,0.017391,-13.8,-2.82,-42.0,96.1953,-2.3254,-2.1613,984.7214,55.855694,37.480854,174.5599,NaN,,0.0244,3.0,85.4569,29 / 29,,570,2021-05-20 22:06:42:103
0.524346,0.430969,9.921875,0.400514,0.43063,9.789001,-0.017921,0.015206,0.013115,-13.8,-2.82,-42.0,96.1953,-2.3254,-2.1613,984.7214,55.855694,37.480854,174.5599,NaN,,0.0244,3.0,85.4569,29 / 29,,579,2021-05-20 22:06:42:112
0.524346,0.430969,9.921875,0.408592,0.43389,9.788523,-0.013645,0.028034,0.004563,-14.1,-3.18,-42.12,95.2576,-2.5168,-2.3429,984.7214,55.855694,37.480854,174.5599,NaN,,0.0244,3.0,85.4569,29 / 29,,589,2021-05-20 22:06:42:122
0.483644,0.440547,9.905115,0.408592,0.43389,9.788523,4.05E-4,0.012762,-0.002767,-14.1,-3.18,-42.12,95.2576,-2.5168,-2.3429,984.7261,55.855694,37.480854,174.5599,NaN,,0.0244,3.0,85.4569,29 / 29,,599,2021-05-20 22:06:42:132
0.395055,0.402238,9.885961,0.415244,0.436051,9.788147,0.017509,0.002988,-0.007043,-13.86,-3.18,-43.32,95.2576,-2.5168,-2.3429,984.7261,55.855694,37.480854,174.5599,NaN,,0.0244,3.0,85.4569,29 / 29,,609,2021-05-20 22:06:42:142
0.349564,0.409421,9.814133,0.415244,0.436051,9.788147,0.032781,-0.001899,-3.24E-4,-13.86,-3.18,-43.32,95.2576,-2.5168,-2.3429,984.7261,55.855694,37.480854,174.5599,NaN,,0.0244,3.0,85.4569,29 / 29,,619,2021-05-20 22:06:42:152
0.349564,0.409421,9.814133,0.420357,0.439816,9.78776,0.032781,-0.001899,-3.24E-4,-13.62,-2.88,-43.5,94.9817,-2.5485,-2.4292,984.7261,55.855694,37.480854,174.5599,NaN,,0.0244,3.0,85.4569,29 / 29,,630,2021-05-20 22:06:42:163
0.342381,0.471672,9.665688,0.420357,0.439816,9.78776,0.034613,-0.001899,2.87E-4,-13.62,-2.88,-43.5,94.9817,-2.5485,-2.4292,984.7261,55.855694,37.480854,174.5599,NaN,,0.0244,3.0,85.4569,29 / 29,,639,2021-05-20 22:06:42:172
0.407027,0.474066,9.548368,0.420712,0.445808,9.787474,0.023618,-0.003731,8.98E-4,-13.2,-2.22,-42.78,94.9817,-2.5485,-2.4292,984.7261,55.855694,37.480854,174.5599,NaN,,0.0244,3.0,85.4569,29 / 29,,650,2021-05-20 22:06:42:183
0.39745,0.500403,9.531608,0.420712,0.445808,9.787474,0.001627,-0.004953,8.98E-4,-13.2,-2.22,-42.78,94.9817,-2.5485,-2.4292,984.7261,55.855694,37.480854,174.5599,NaN,,0.0244,3.0,85.4569,29 / 29,,659,2021-05-20 22:06:42:192
0.440547,0.445335,9.624985,0.421039,0.448557,9.787334,-0.025862,-0.004953,-0.0046,-13.32,-2.82,-42.48,95.4342,-2.6056,-2.4613,984.7261,55.855694,37.480854,174.5599,NaN,,0.0244,3.0,85.4569,29 / 29,,669,2021-05-20 22:06:42:202
0.440547,0.445335,9.624985,0.421039,0.448557,9.787334,-0.053351,0.00421,-0.009487,-13.32,-2.82,-42.48,95.4342,-2.6056,-2.4613,984.7261,55.855694,37.480854,174.5599,NaN,,0.0244,3.0,85.4569,29 / 29,,679,2021-05-20 22:06:42:212
0.442941,0.373507,9.850046,0.421071,0.443305,9.787572,-0.060682,0.004821,-0.014985,-13.68,-3.78,-43.02,95.4342,-2.6056,-2.4613,984.7261,55.855694,37.480854,174.5599,NaN,,0.0244,3.0,85.4569,29 / 29,,689,2021-05-20 22:06:42:222
0.373507,0.361536,9.993703,0.421071,0.443305,9.787572,-0.042356,0.005432,-0.018039,-13.68,-3.78,-43.02,95.4342,-2.6056,-2.4613,984.7332,55.855694,37.480854,174.5599,NaN,,0.0244,3.0,85.4569,29 / 29,,700,2021-05-20 22:06:42:233
0.316044,0.299284,9.996098,0.420669,0.434135,9.788,-0.014867,-6.6E-5,-0.015595,-13.2,-3.18,-43.44,95.281,-2.5909,-2.4634,984.7332,55.855694,37.480854,174.5599,NaN,,0.0244,3.0,85.4569,29 / 29,,709,2021-05-20 22:06:42:242
0.316044,0.299284,9.996098,0.420669,0.434135,9.788,0.009568,-0.01717,-0.005211,-13.2,-3.18,-43.44,95.281,-2.5909,-2.4634,984.7332,55.855694,37.480854,174.5599,NaN,,0.0244,3.0,85.4569,29 / 29,,720,2021-05-20 22:06:42:253
0.339987,0.342381,9.931452,0.417689,0.427291,9.788429,0.029727,-0.020835,-3.24E-4,-13.38,-2.64,-43.02,95.281,-2.5909,-2.4634,984.7332,55.855694,37.480854,174.5599,NaN,,0.0244,3.0,85.4569,29 / 29,,729,2021-05-20 22:06:42:262
0.399844,0.349564,9.763853,0.417689,0.427291,9.788429,0.026061,-0.020835,-9.35E-4,-13.38,-2.64,-43.02,95.281,-2.5909,-2.4634,984.7332,55.855694,37.480854,174.5599,NaN,,0.0244,3.0,85.4569,29 / 29,,739,2021-05-20 22:06:42:272
0.421392,0.39745,9.680053,0.41523,0.422889,9.788725,0.012011,-0.013505,-0.001545,-13.74,-2.82,-42.84,95.168,-2.4973,-2.4434,984.7332,55.855694,37.480854,174.5599,NaN,,0.0244,3.0,85.4569,29 / 29,,749,2021-05-20 22:06:42:282
0.421392,0.39745,9.680053,0.41523,0.422889,9.788725,-0.011201,-0.006785,-0.002156,-13.74,-2.82,-42.84,95.168,-2.4973,-2.4434,984.7332,55.855694,37.480854,174.5599,NaN,,0.0244,3.0,85.4569,29 / 29,,759,2021-05-20 22:06:42:292
0.457306,0.378295,9.742304,0.413447,0.414741,9.789149,-0.034414,0.013373,-0.003989,-13.38,-3.24,-43.32,95.168,-2.4973,-2.4434,984.7332,55.855694,37.480854,174.5599,NaN,,0.0244,3.0,85.4569,29 / 29,,770,2021-05-20 22:06:42:303
0.452518,0.411815,9.852441,0.412297,0.409059,9.789436,-0.039301,0.028645,-0.009487,-13.74,-3.18,-43.38,95.168,-2.4973,-2.4434,984.7332,55.855694,37.480854,174.5599,NaN,,0.0244,3.0,85.4569,29 / 29,,779,2021-05-20 22:06:42:312
0.383084,0.500403,9.77343,0.412297,0.409059,9.789436,-0.023419,0.034142,-0.013152,-13.74,-3.18,-43.38,95.168,-2.4973,-2.4434,984.7332,55.855694,37.480854,174.5599,NaN,,0.0244,3.0,85.4569,29 / 29,,789,2021-05-20 22:06:42:322
0.383084,0.500403,9.77343,0.407606,0.400386,9.789991,-0.011812,0.008486,-0.026591,-13.5,-3.3,-43.32,96.0383,-2.3906,-2.4117,984.729,55.855694,37.480854,174.5599,NaN,,0.0244,3.0,85.4569,29 / 29,,800,2021-05-20 22:06:42:333
0.332804,0.495615,9.646533,0.407606,0.400386,9.789991,-0.011812,0.008486,-0.033921,-13.5,-3.3,-43.32,96.0383,-2.3906,-2.4117,984.729,55.855694,37.480854,174.5599,NaN,,0.0244,3.0,85.4569,29 / 29,,809,2021-05-20 22:06:42:342
0.301679,0.442941,9.620196,0.405792,0.403633,9.789933,-0.022808,-0.026944,-0.031478,-13.14,-3.0,-42.42,96.0383,-2.3906,-2.4117,984.729,55.855694,37.480854,174.5599,NaN,,0.0244,3.0,85.4569,29 / 29,,819,2021-05-20 22:06:42:352
0.311256,0.378295,9.715967,0.405792,0.403633,9.789933,-0.050297,-0.015338,-0.022926,-13.14,-3.0,-42.42,96.0383,-2.3906,-2.4117,984.729,55.855694,37.480854,174.5599,NaN,,0.0244,3.0,85.4569,29 / 29,,829,2021-05-20 22:06:42:362
0.34717,0.306467,9.897932,0.404503,0.405312,9.789918,-0.050297,-0.015338,-0.022926,-12.84,-2.64,-42.78,96.1464,-2.3589,-2.3735,984.729,55.855694,37.480854,174.5599,NaN,,0.0244,3.0,85.4569,29 / 29,,839,2021-05-20 22:06:42:372
0.34717,0.306467,9.897932,0.404503,0.405312,9.789918,-0.069234,0.006654,-0.003378,-12.84,-2.64,-42.78,96.1464,-2.3589,-2.3735,984.729,55.855694,37.480854,174.5599,NaN,,0.0244,3.0,85.4569,29 / 29,,849,2021-05-20 22:06:42:382
0.36393,0.29689,10.113417,0.397396,0.394392,9.790655,-0.060071,0.014595,0.004563,-12.78,-2.58,-43.38,96.1464,-2.3589,-2.3735,984.729,55.855694,37.480854,174.5599,NaN,,0.0244,3.0,85.4569,29 / 29,,860,2021-05-20 22:06:42:393
0.402238,0.282524,10.154119,0.397396,0.394392,9.790655,-0.021586,0.002988,0.011894,-12.78,-2.58,-43.38,96.1464,-2.3589,-2.3735,984.729,55.855694,37.480854,174.5599,NaN,,0.0244,3.0,85.4569,29 / 29,,869,2021-05-20 22:06:42:402
0.452518,0.33041,10.084685,0.391097,0.384116,9.791317,0.024229,-0.01717,0.010672,-12.78,-2.34,-43.08,91.2699,-2.3049,-2.3243,984.729,55.855694,37.480854,174.5599,NaN,,0.0244,3.0,85.4569,29 / 29,,879,2021-05-20 22:06:42:412
0.476461,0.395055,9.864412,0.391097,0.384116,9.791317,0.054772,-0.035496,0.004563,-12.78,-2.34,-43.08,91.2699,-2.3049,-2.3243,984.729,55.855694,37.480854,174.5599,NaN,,0.0244,3.0,85.4569,29 / 29,,889,2021-05-20 22:06:42:422
0.476461,0.395055,9.864412,0.396166,0.389447,9.790902,0.05355,-0.028777,-0.003989,-13.2,-2.7,-43.08,91.2699,-2.3049,-2.3243,984.7234,55.855694,37.480854,174.5599,NaN,,0.0244,3.0,85.4569,29 / 29,,899,2021-05-20 22:06:42:432
0.469278,0.416604,9.792584,0.396166,0.389447,9.790902,0.035835,-0.014116,-0.0046,-13.2,-2.7,-43.08,91.2699,-2.3049,-2.3243,984.7234,55.855694,37.480854,174.5599,NaN,,0.0244,3.0,85.4569,29 / 29,,909,2021-05-20 22:06:42:442
0.404632,0.428575,9.747093,0.400129,0.398042,9.790396,0.017509,0.00421,8.98E-4,-13.86,-2.82,-42.96,95.9139,-2.276,-2.3171,984.7234,55.855694,37.480854,174.5599,NaN,,0.0244,3.0,85.4569,29 / 29,,919,2021-05-20 22:06:42:452
0.464489,0.418998,9.73991,0.400129,0.398042,9.790396,0.005903,0.006043,0.005174,-13.86,-2.82,-42.96,95.9139,-2.276,-2.3171,984.7234,55.855694,37.480854,174.5599,NaN,,0.0244,3.0,85.4569,29 / 29,,930,2021-05-20 22:06:42:463
0.464489,0.418998,9.73991,0.399205,0.400292,9.790341,0.003459,0.00421,-9.35E-4,-13.62,-2.76,-43.08,95.9139,-2.276,-2.3171,984.7234,55.855694,37.480854,174.5599,NaN,,0.0244,3.0,85.4569,29 / 29,,939,2021-05-20 22:06:42:472
0.56026,0.495615,9.835681,0.399205,0.400292,9.790341,0.009568,0.001767,-0.008265,-13.62,-2.76,-43.08,95.9139,-2.276,-2.3171,984.7234,55.855694,37.480854,174.5599,NaN,,0.0244,3.0,85.4569,29 / 29,,949,2021-05-20 22:06:42:482
0.591386,0.509981,9.816526,0.398397,0.401602,9.790321,0.019342,0.002377,-0.025369,-13.38,-3.0,-44.04,96.023,-2.3394,-2.335,984.7234,55.855694,37.480854,174.5599,NaN,,0.0244,3.0,85.4569,29 / 29,,959,2021-05-20 22:06:42:492
0.469278,0.490826,9.761458,0.398397,0.401602,9.790321,0.035224,-0.00312,-0.042473,-13.38,-3.0,-44.04,96.023,-2.3394,-2.335,984.7234,55.855694,37.480854,174.5599,NaN,,0.0244,3.0,85.4569,29 / 29,,969,2021-05-20 22:06:42:502
0.371113,0.486038,9.670476,0.398245,0.406777,9.790113,0.037057,-0.013505,-0.04675,-13.44,-2.88,-43.56,96.023,-2.3394,-2.335,984.7234,55.855694,37.480854,174.5599,NaN,,0.0244,3.0,85.4569,29 / 29,,979,2021-05-20 22:06:42:512
0.371113,0.486038,9.670476,0.398245,0.406777,9.790113,0.019953,-0.017781,-0.042473,-13.44,-2.88,-43.56,96.023,-2.3394,-2.335,984.7234,55.855694,37.480854,174.5599,NaN,,0.0244,3.0,85.4569,29 / 29,,990,2021-05-20 22:06:42:523
0.351958,0.445335,9.682447,0.40088,0.41435,9.789688,-0.001428,-0.009229,-0.035143,-13.62,-2.76,-42.9,95.5603,-2.3773,-2.3294,984.7261,55.855694,37.480854,174.5599,NaN,,0.0244,3.0,85.4569,29 / 29,,999,2021-05-20 22:06:42:532
0.38069,0.416604,9.725544,0.40088,0.41435,9.789688,-0.001428,-0.009229,-0.035143,-13.62,-2.76,-42.9,95.5603,-2.3773,-2.3294,984.7261,55.855694,37.480854,174.5599,NaN,,0.0244,3.0,85.4569,29 / 29,,1009,2021-05-20 22:06:42:542
0.378295,0.387873,9.818921,0.401149,0.414772,9.78966,-0.023419,0.018871,-0.027202,-13.68,-2.64,-43.14,95.5603,-2.3773,-2.3294,984.7261,55.855694,37.480854,174.5599,NaN,,0.0244,3.0,85.4569,29 / 29,,1020,2021-05-20 22:06:42:553
0.359141,0.34717,9.869201,0.401149,0.414772,9.78966,-0.016699,0.017038,-0.022315,-13.68,-2.64,-43.14,95.5603,-2.3773,-2.3294,984.7261,55.855694,37.480854,174.5599,NaN,,0.0244,3.0,85.4569,29 / 29,,1029,2021-05-20 22:06:42:562
0.359141,0.34717,9.869201,0.397379,0.410488,9.789993,-0.016699,0.017038,-0.022315,-13.74,-2.7,-42.9,95.4002,-2.424,-2.3465,984.7261,55.855694,37.480854,174.5599,NaN,,0.0244,3.0,85.4569,29 / 29,,1039,2021-05-20 22:06:42:572
0.375901,0.34717,9.900327,0.397379,0.410488,9.789993,0.010179,0.001156,-0.024758,-13.74,-2.7,-42.9,95.4002,-2.424,-2.3465,984.7261,55.855694,37.480854,174.5599,NaN,,0.0244,3.0,85.4569,29 / 29,,1049,2021-05-20 22:06:42:582
0.466884,0.390267,9.866806,0.397134,0.410624,9.789998,0.02545,-0.006785,-0.03331,-13.74,-2.94,-42.9,95.4002,-2.424,-2.3465,984.7261,55.855694,37.480854,174.5599,NaN,,0.0244,3.0,85.4569,29 / 29,,1059,2021-05-20 22:06:42:592
0.390267,0.375901,9.804555,0.397134,0.410624,9.789998,0.027894,0.009097,-0.048582,-13.74,-2.94,-42.9,95.4002,-2.424,-2.3465,984.7261,55.855694,37.480854,174.5599,NaN,,0.0244,3.0,85.4569,29 / 29,,1069,2021-05-20 22:06:42:602
0.304073,0.375901,9.680053,0.400431,0.412752,9.789774,0.020564,0.010319,-0.043084,-13.86,-3.0,-42.66,95.479,-2.3998,-2.3229,984.7261,55.855694,37.480854,174.5599,NaN,,0.0244,3.0,85.4569,29 / 29,,1079,2021-05-20 22:06:42:612
0.304073,0.375901,9.680053,0.400431,0.412752,9.789774,0.008346,0.007264,-0.030867,-13.86,-3.0,-42.66,95.479,-2.3998,-2.3229,984.7261,55.855694,37.480854,174.5599,NaN,,0.0244,3.0,85.4569,29 / 29,,1089,2021-05-20 22:06:42:622
0.328016,0.371113,9.644139,0.399142,0.411873,9.789864,-0.004482,0.009708,-0.018039,-13.74,-3.6,-42.84,95.479,-2.3998,-2.3229,984.7263,55.855694,37.480854,174.5599,NaN,,0.0244,3.0,85.4569,29 / 29,,1100,2021-05-20 22:06:42:633
0.368718,0.404632,9.783007,0.399142,0.411873,9.789864,-0.008147,0.016427,-0.013152,-13.74,-3.6,-42.84,95.479,-2.3998,-2.3229,984.7263,55.855694,37.480854,174.5599,NaN,,0.0244,3.0,85.4569,29 / 29,,1109,2021-05-20 22:06:42:642
0.373507,0.428575,9.749487,0.39514,0.406419,9.790255,4.05E-4,0.016427,-0.011319,-13.74,-3.72,-43.5,100.0472,-2.4071,-2.3347,984.7263,55.855694,37.480854,174.5599,NaN,,0.0244,3.0,85.4569,29 / 29,,1119,2021-05-20 22:06:42:652
0.373507,0.428575,9.749487,0.39514,0.406419,9.790255,0.005292,0.008486,-0.010708,-13.74,-3.72,-43.5,100.0472,-2.4071,-2.3347,984.7263,55.855694,37.480854,174.5599,NaN,,0.0244,3.0,85.4569,29 / 29,,1130,2021-05-20 22:06:42:663
0.36393,0.462095,9.720756,0.391043,0.404978,9.790478,0.015066,-0.006785,-0.016206,-13.86,-3.0,-43.74,100.0472,-2.4071,-2.3347,984.7263,55.855694,37.480854,174.5599,NaN,,0.0244,3.0,85.4569,29 / 29,,1139,2021-05-20 22:06:42:672
0.421392,0.493221,9.670476,0.391043,0.404978,9.790478,0.020564,-0.016559,-0.022926,-13.86,-3.0,-43.74,100.0472,-2.4071,-2.3347,984.7263,55.855694,37.480854,174.5599,NaN,,0.0244,3.0,85.4569,29 / 29,,1150,2021-05-20 22:06:42:683
0.39745,0.505192,9.613013,0.391344,0.41067,9.790229,0.013844,-0.020835,-0.027202,-13.44,-2.82,-43.56,95.8977,-2.3668,-2.2872,984.7263,55.855694,37.480854,174.5599,NaN,,0.0244,3.0,85.4569,29 / 29,,1160,2021-05-20 22:06:42:693
0.385478,0.483644,9.608225,0.391344,0.41067,9.790229,0.013844,-0.020835,-0.027202,-13.44,-2.82,-43.56,95.8977,-2.3668,-2.2872,984.7263,55.855694,37.480854,174.5599,NaN,,0.0244,3.0,85.4569,29 / 29,,1169,2021-05-20 22:06:42:702
0.385478,0.483644,9.608225,0.395703,0.41904,9.7897,-0.007536,-0.020225,-0.027202,-13.14,-3.18,-42.84,95.8977,-2.3668,-2.2872,984.7263,55.855694,37.480854,174.5599,NaN,,0.0244,3.0,85.4569,29 / 29,,1179,2021-05-20 22:06:42:712
0.428575,0.471672,9.670476,0.395703,0.41904,9.7897,-0.025862,-0.013505,-0.0327,-13.14,-3.18,-42.84,95.8977,-2.3668,-2.2872,984.7263,55.855694,37.480854,174.5599,NaN,,0.0244,3.0,85.4569,29 / 29,,1189,2021-05-20 22:06:42:722
0.399844,0.454912,9.763853,0.39937,0.423273,9.789369,-0.036247,-0.011062,-0.034532,-12.9,-3.3,-42.96,95.7794,-2.449,-2.3147,984.7195,55.855694,37.480854,174.5599,NaN,,0.0244,3.0,85.4569,29 / 29,,1199,2021-05-20 22:06:42:732
0.411815,0.395055,9.864412,0.39937,0.423273,9.789369,-0.035025,-0.015948,-0.0327,-12.9,-3.3,-42.96,95.7794,-2.449,-2.3147,984.7195,55.855694,37.480854,174.5599,NaN,,0.0244,3.0,85.4569,29 / 29,,1210,2021-05-20 22:06:42:743
0.426181,0.395055,10.020041,0.401711,0.423287,9.789271,-0.03136,-0.011672,-0.031478,-13.5,-3.24,-43.38,95.7794,-2.449,-2.3147,984.7195,55.855694,37.480854,174.5599,NaN,,0.0244,3.0,85.4569,29 / 29,,1220,2021-05-20 22:06:42:753
0.426181,0.395055,10.020041,0.401711,0.423287,9.789271,-0.020364,-6.77E-4,-0.033921,-13.5,-3.24,-43.38,95.7794,-2.449,-2.3147,984.7195,55.855694,37.480854,174.5599,NaN,,0.0244,3.0,85.4569,29 / 29,,1230,2021-05-20 22:06:42:763
0.36393,0.354353,9.957788,0.402297,0.421038,9.789345,-0.002038,5.45E-4,-0.030867,-14.04,-3.12,-43.32,95.2251,-2.4738,-2.3499,984.7195,55.855694,37.480854,174.5599,NaN,,0.0244,3.0,85.4569,29 / 29,,1239,2021-05-20 22:06:42:772
0.34717,0.337593,9.862018,0.402297,0.421038,9.789345,0.002238,-0.010451,-0.027813,-14.04,-3.12,-43.32,95.2251,-2.4738,-2.3499,984.7195,55.855694,37.480854,174.5599,NaN,,0.0244,3.0,85.4569,29 / 29,,1249,2021-05-20 22:06:42:782
0.390267,0.344776,9.938635,0.399797,0.418796,9.789543,-8.17E-4,-0.008618,-0.029034,-13.8,-3.12,-42.78,95.2251,-2.4738,-2.3499,984.7195,55.855694,37.480854,174.5599,NaN,,0.0244,3.0,85.4569,29 / 29,,1259,2021-05-20 22:06:42:792
0.390267,0.344776,9.938635,0.399797,0.418796,9.789543,-0.00326,0.009708,-0.026591,-13.8,-3.12,-42.78,95.2251,-2.4738,-2.3499,984.7195,55.855694,37.480854,174.5599,NaN,,0.0244,3.0,85.4569,29 / 29,,1269,2021-05-20 22:06:42:802
0.337593,0.36393,9.948212,0.395965,0.413362,9.78993,-0.001428,0.01826,-0.022926,-14.34,-3.12,-42.6,95.3148,-2.4476,-2.3386,984.7195,55.855694,37.480854,174.5599,NaN,,0.0244,3.0,85.4569,29 / 29,,1279,2021-05-20 22:06:42:812
0.308861,0.359141,9.852441,0.395965,0.413362,9.78993,0.008957,0.007264,-0.010708,-14.34,-3.12,-42.6,95.3148,-2.4476,-2.3386,984.7195,55.855694,37.480854,174.5599,NaN,,0.0244,3.0,85.4569,29 / 29,,1289,2021-05-20 22:06:42:822
0.435758,0.426181,9.830893,0.387128,0.40777,9.790518,0.013844,0.001156,-0.018039,-14.1,-3.0,-43.02,95.3148,-2.4476,-2.3386,984.7156,55.855694,37.480854,174.5599,NaN,,0.0244,3.0,85.4569,29 / 29,,1300,2021-05-20 22:06:42:833
0.457306,0.476461,9.833286,0.387128,0.40777,9.790518,0.016898,0.005432,-0.024148,-14.1,-3.0,-43.02,95.3148,-2.4476,-2.3386,984.7156,55.855694,37.480854,174.5599,NaN,,0.0244,3.0,85.4569,29 / 29,,1309,2021-05-20 22:06:42:842
0.457306,0.476461,9.833286,0.384731,0.406862,9.79065,0.017509,0.006043,-0.035143,-13.5,-3.3,-42.66,96.0138,-2.3831,-2.2644,984.7156,55.855694,37.480854,175.0859,NaN,,0.0122,3.0,85.4569,29 / 29,,1319,2021-05-20 22:06:42:852
0.385478,0.421392,9.730332,0.384731,0.406862,9.79065,0.016288,0.001156,-0.027813,-13.5,-3.3,-42.66,96.0138,-2.3831,-2.2644,984.7156,55.855694,37.480854,175.0859,NaN,,0.0122,3.0,85.4569,29 / 29,,1330,2021-05-20 22:06:42:863
0.373507,0.423787,9.742304,0.384422,0.410451,9.790513,0.007735,0.001767,-0.01865,-13.56,-3.36,-42.54,96.0138,-2.3831,-2.2644,984.7156,55.855694,37.480854,175.0859,NaN,,0.0122,3.0,85.4569,29 / 29,,1339,2021-05-20 22:06:42:872
0.375901,0.454912,9.751882,0.384422,0.410451,9.790513,0.010179,0.01154,-0.013763,-13.56,-3.36,-42.54,96.0138,-2.3831,-2.2644,984.7156,55.855694,37.480854,175.0859,NaN,,0.0122,3.0,85.4569,29 / 29,,1349,2021-05-20 22:06:42:882
0.375901,0.450124,9.689631,0.383924,0.412924,9.790428,0.00407,0.01093,-0.009487,-13.8,-3.3,-42.54,95.4606,-2.3988,-2.2485,984.7156,55.855694,37.480854,175.0859,NaN,,0.0122,3.0,85.4569,29 / 29,,1359,2021-05-20 22:06:42:892
0.375901,0.450124,9.689631,0.383924,0.412924,9.790428,0.00407,0.01093,-0.009487,-13.8,-3.3,-42.54,95.4606,-2.3988,-2.2485,984.7156,55.855694,37.480854,175.0859,NaN,,0.0122,3.0,85.4569,29 / 29,,1369,2021-05-20 22:06:42:902
0.39745,0.478855,9.689631,0.382386,0.417085,9.790312,0.00407,0.002988,-0.015595,-14.1,-3.0,-42.36,95.4606,-2.3988,-2.2485,984.7156,55.855694,37.480854,175.0859,NaN,,0.0122,3.0,85.4569,29 / 29,,1379,2021-05-20 22:06:42:912
0.399844,0.471672,9.696813,0.382386,0.417085,9.790312,0.003459,-0.00312,-0.022315,-14.1,-3.0,-42.36,95.4606,-2.3988,-2.2485,984.7156,55.855694,37.480854,175.0859,NaN,,0.0122,3.0,85.4569,29 / 29,,1389,2021-05-20 22:06:42:922
0.390267,0.459701,9.727939,0.384148,0.422975,9.78999,0.005292,-0.010451,-0.027813,-14.22,-2.7,-42.6,95.321,-2.4376,-2.2367,984.7139,55.855694,37.480854,175.0859,NaN,,0.0122,3.0,85.4569,29 / 29,,1399,2021-05-20 22:06:42:932
0.390267,0.459701,9.727939,0.384148,0.422975,9.78999,0.002238,-0.01717,-0.027813,-14.22,-2.7,-42.6,95.321,-2.4376,-2.2367,984.7139,55.855694,37.480854,175.0859,NaN,,0.0122,3.0,85.4569,29 / 29,,1409,2021-05-20 22:06:42:942
0.404632,0.447729,9.749487,0.387777,0.428874,9.78959,-8.17E-4,-0.016559,-0.025369,-13.86,-2.58,-42.96,95.321,-2.4376,-2.2367,984.7139,55.855694,37.480854,175.0859,NaN,,0.0122,3.0,85.4569,29 / 29,,1419,2021-05-20 22:06:42:952
0.373507,0.411815,9.847652,0.387777,0.428874,9.78959,-0.004482,-0.008007,-0.024758,-13.86,-2.58,-42.96,95.321,-2.4376,-2.2367,984.7139,55.855694,37.480854,175.0859,NaN,,0.0122,3.0,85.4569,29 / 29,,1429,2021-05-20 22:06:42:962
0.378295,0.383084,9.864412,0.391123,0.431293,9.789351,-0.004482,-0.008007,-0.024758,-13.68,-2.94,-42.72,95.0873,-2.5065,-2.2684,984.7139,55.855694,37.480854,175.0859,NaN,,0.0122,3.0,85.4569,29 / 29,,1439,2021-05-20 22:06:42:972
0.433364,0.430969,9.924269,0.391123,0.431293,9.789351,-0.001428,0.001156,-0.011319,-13.68,-2.94,-42.72,95.0873,-2.5065,-2.2684,984.7139,55.855694,37.480854,175.0859,NaN,,0.0122,3.0,85.4569,29 / 29,,1450,2021-05-20 22:06:42:983
0.433364,0.430969,9.924269,0.391801,0.430498,9.789359,0.012622,0.001767,-0.017428,-14.16,-3.42,-42.9,95.0873,-2.5065,-2.2684,984.7139,55.855694,37.480854,175.0859,NaN,,0.0122,3.0,85.4569,29 / 29,,1459,2021-05-20 22:06:42:992
0.428575,0.466884,9.931452,0.391801,0.430498,9.789359,0.012622,0.001767,-0.017428,-14.16,-3.42,-42.9,95.0873,-2.5065,-2.2684,984.7139,55.855694,37.480854,175.0859,NaN,,0.0122,3.0,85.4569,29 / 29,,1469,2021-05-20 22:06:43:002
0.433364,0.469278,9.814133,0.39259,0.433286,9.789205,0.030337,-0.005564,-0.027202,-13.92,-3.48,-43.5,95.0602,-2.516,-2.2919,984.7139,55.855694,37.480854,175.0859,NaN,,0.0122,3.0,85.4569,29 / 29,,1480,2021-05-20 22:06:43:013
0.404632,0.471672,9.761458,0.39259,0.433286,9.789205,0.034613,-0.015338,-0.034532,-13.92,-3.48,-43.5,95.0602,-2.516,-2.2919,984.7139,55.855694,37.480854,175.0859,NaN,,0.0122,3.0,85.4569,29 / 29,,1490,2021-05-20 22:06:43:023
0.34717,0.454912,9.725544,0.39707,0.440795,9.788689,0.027894,-0.012894,-0.038808,-13.5,-3.18,-43.32,95.0602,-2.516,-2.2919,984.7139,55.855694,37.480854,175.0859,NaN,,0.0122,3.0,85.4569,29 / 29,,1500,2021-05-20 22:06:43:033
0.320833,0.421392,9.735122,0.39707,0.440795,9.788689,0.012622,-0.004953,-0.029034,-13.5,-3.18,-43.32,95.0602,-2.516,-2.2919,984.7139,55.855694,37.480854,175.0859,NaN,,0.0122,3.0,85.4569,29 / 29,,1510,2021-05-20 22:06:43:043
0.320833,0.421392,9.735122,0.398109,0.445494,9.788433,-0.002649,0.007264,-0.027202,-13.44,-3.3,-43.2,95.2938,-2.5762,-2.3229,984.7139,55.855694,37.480854,175.0859,NaN,,0.0122,3.0,85.4569,29 / 29,,1520,2021-05-20 22:06:43:053
0.356747,0.447729,9.720756,0.398109,0.445494,9.788433,-0.013034,0.004821,-0.029034,-13.44,-3.3,-43.2,95.2938,-2.5762,-2.3229,984.7139,55.855694,37.480854,175.0859,NaN,,0.0122,3.0,85.4569,29 / 29,,1530,2021-05-20 22:06:43:063
0.366324,0.445335,9.783007,0.394256,0.445449,9.788592,-0.01731,0.006654,-0.0327,-13.5,-3.66,-43.26,95.2938,-2.5762,-2.3229,984.7139,55.855694,37.480854,175.0859,NaN,,0.0122,3.0,85.4569,29 / 29,,1540,2021-05-20 22:06:43:073
0.337593,0.416604,9.845258,0.394256,0.445449,9.788592,-0.011201,0.005432,-0.029645,-13.5,-3.66,-43.26,95.2938,-2.5762,-2.3229,984.7139,55.855694,37.480854,175.0859,NaN,,0.0122,3.0,85.4569,29 / 29,,1549,2021-05-20 22:06:43:082
0.337593,0.416604,9.845258,0.389117,0.443324,9.788894,-0.002038,0.001156,-0.022315,-13.86,-3.3,-43.2,94.7552,-2.6034,-2.3065,984.7139,55.855694,37.480854,175.0859,NaN,,0.0122,3.0,85.4569,29 / 29,,1559,2021-05-20 22:06:43:092
0.301679,0.383084,9.850046,0.389117,0.443324,9.788894,0.010179,0.002377,-0.014985,-13.86,-3.3,-43.2,94.7552,-2.6034,-2.3065,984.7139,55.855694,37.480854,175.0859,NaN,,0.0122,3.0,85.4569,29 / 29,,1569,2021-05-20 22:06:43:102
0.318439,0.404632,9.787795,0.382236,0.44193,9.789227,0.018731,0.001156,-0.01193,-14.28,-2.82,-43.02,94.7552,-2.6034,-2.3065,984.7139,55.855694,37.480854,175.0859,NaN,,0.0122,3.0,85.4569,29 / 29,,1579,2021-05-20 22:06:43:112
0.385478,0.41421,9.727939,0.382236,0.44193,9.789227,0.015677,-6.77E-4,-0.005822,-14.28,-2.82,-43.02,94.7552,-2.6034,-2.3065,984.7139,55.855694,37.480854,175.0859,NaN,,0.0122,3.0,85.4569,29 / 29,,1589,2021-05-20 22:06:43:122
0.426181,0.440547,9.725544,0.375572,0.441862,9.789489,0.009568,-0.002509,-0.005211,-14.22,-2.58,-42.84,94.8102,-2.5829,-2.2361,984.7141,55.855694,37.480854,175.0859,NaN,,0.0122,3.0,85.4569,29 / 29,,1599,2021-05-20 22:06:43:132
0.426181,0.440547,9.725544,0.375572,0.441862,9.789489,0.002238,0.002988,-0.005822,-14.22,-2.58,-42.84,94.8102,-2.5829,-2.2361,984.7141,55.855694,37.480854,175.0859,NaN,,0.0122,3.0,85.4569,29 / 29,,1609,2021-05-20 22:06:43:142
0.459701,0.459701,9.75667,0.373748,0.440549,9.789618,0.002238,0.002988,-0.005822,-13.92,-2.82,-43.02,94.8102,-2.5829,-2.2361,984.7141,55.855694,37.480854,175.0859,NaN,,0.0122,3.0,85.4569,29 / 29,,1619,2021-05-20 22:06:43:152
0.411815,0.471672,9.766247,0.373748,0.440549,9.789618,-0.003871,0.013373,-0.012541,-13.92,-2.82,-43.02,94.8102,-2.5829,-2.2361,984.7141,55.855694,37.480854,175.0859,NaN,,0.0122,3.0,85.4569,29 / 29,,1629,2021-05-20 22:06:43:162
0.33041,0.512375,9.75667,0.373762,0.439418,9.789668,-0.003871,0.013984,-0.008876,-13.92,-3.54,-42.9,99.3875,-2.5748,-2.1864,984.7141,55.855694,37.480854,175.0859,NaN,,0.0122,3.0,85.4569,29 / 29,,1640,2021-05-20 22:06:43:173
0.316044,0.591386,9.632168,0.373762,0.439418,9.789668,0.006514,0.003599,-0.007654,-13.92,-3.54,-42.9,99.3875,-2.5748,-2.1864,984.7141,55.855694,37.480854,175.0859,NaN,,0.0122,3.0,85.4569,29 / 29,,1649,2021-05-20 22:06:43:182
0.316044,0.591386,9.632168,0.372708,0.44337,9.78953,0.005903,-0.011062,-0.012541,-13.86,-3.84,-42.48,99.3875,-2.5748,-2.1864,984.7141,55.855694,37.480854,175.0859,NaN,,0.0122,3.0,85.4569,29 / 29,,1659,2021-05-20 22:06:43:192
0.395055,0.567443,9.557945,0.372708,0.44337,9.78953,-0.019754,-0.017781,-0.019261,-13.86,-3.84,-42.48,99.3875,-2.5748,-2.1864,984.7141,55.855694,37.480854,175.0859,NaN,,0.0122,3.0,85.4569,29 / 29,,1669,2021-05-20 22:06:43:202
0.399844,0.538712,9.680053,0.373916,0.452565,9.789063,-0.050297,-0.001288,-0.021093,-13.56,-3.96,-42.6,99.3276,-2.5913,-2.1803,984.7141,55.855694,37.480854,175.0859,NaN,,0.0122,3.0,85.4569,29 / 29,,1680,2021-05-20 22:06:43:213
0.378295,0.438152,9.859624,0.373916,0.452565,9.789063,-0.066179,0.006654,-0.01865,-13.56,-3.96,-42.6,99.3276,-2.5913,-2.1803,984.7141,55.855694,37.480854,175.0859,NaN,,0.0122,3.0,85.4569,29 / 29,,1689,2021-05-20 22:06:43:222
0.378295,0.438152,9.859624,0.375241,0.45432,9.788932,-0.05946,0.015206,-0.010708,-14.22,-4.08,-43.02,99.3276,-2.5913,-2.1803,984.7178,55.855694,37.480854,175.0859,NaN,,0.0122,3.0,85.4569,29 / 29,,1699,2021-05-20 22:06:43:232
0.378295,0.395055,10.058349,0.375241,0.45432,9.788932,-0.020975,0.013373,-0.008876,-14.22,-4.08,-43.02,99.3276,-2.5913,-2.1803,984.7178,55.855694,37.480854,175.0859,NaN,,0.0122,3.0,85.4569,29 / 29,,1709,2021-05-20 22:06:43:242
0.435758,0.450124,10.1206,0.37462,0.449567,9.789174,0.015677,0.004821,-0.019871,-14.52,-3.54,-42.9,98.4349,-2.6553,-2.1953,984.7178,55.855694,37.480854,175.0859,NaN,,0.0122,3.0,85.4569,29 / 29,,1719,2021-05-20 22:06:43:252
0.447729,0.490826,9.945818,0.37462,0.449567,9.789174,0.043166,-0.012894,-0.027202,-14.52,-3.54,-42.9,98.4349,-2.6553,-2.1953,984.7178,55.855694,37.480854,175.0859,NaN,,0.0122,3.0,85.4569,29 / 29,,1729,2021-05-20 22:06:43:262
0.447729,0.490826,9.945818,0.377556,0.454083,9.788854,0.043166,-0.012894,-0.027202,-13.8,-3.3,-42.06,98.4349,-2.6553,-2.1953,984.7178,55.855694,37.480854,175.0859,NaN,,0.0122,3.0,85.4569,29 / 29,,1739,2021-05-20 22:06:43:272
0.337593,0.500403,9.713573,0.377556,0.454083,9.788854,0.048663,-0.026333,-0.029034,-13.8,-3.3,-42.06,98.4349,-2.6553,-2.1953,984.7178,55.855694,37.480854,175.0859,NaN,,0.0122,3.0,85.4569,29 / 29,,1749,2021-05-20 22:06:43:282
0.337593,0.500403,9.670476,0.383843,0.465631,9.788066,0.029116,-0.022057,-0.025369,-13.38,-2.76,-41.7,95.1769,-2.6539,-2.2088,984.7178,55.855694,37.480854,175.0859,NaN,,0.0122,3.0,85.4569,29 / 29,,1760,2021-05-20 22:06:43:293
0.339987,0.476461,9.708784,0.383843,0.465631,9.788066,-0.006315,0.001767,-0.018039,-13.38,-2.76,-41.7,95.1769,-2.6539,-2.2088,984.7178,55.855694,37.480854,175.0859,NaN,,0.0122,3.0,85.4569,29 / 29,,1769,2021-05-20 22:06:43:302
0.356747,0.440547,9.862018,0.383285,0.469232,9.787916,-0.037469,0.020703,-0.007654,-13.74,-2.28,-42.24,95.1769,-2.6539,-2.2088,984.7178,55.855694,37.480854,175.0859,NaN,,0.0122,3.0,85.4569,29 / 29,,1779,2021-05-20 22:06:43:312
0.356747,0.440547,9.862018,0.383285,0.469232,9.787916,-0.031971,0.028034,-3.24E-4,-13.74,-2.28,-42.24,95.1769,-2.6539,-2.2088,984.7178,55.855694,37.480854,175.0859,NaN,,0.0122,3.0,85.4569,29 / 29,,1790,2021-05-20 22:06:43:323
0.438152,0.454912,9.941029,0.376831,0.463709,9.788429,-0.014256,0.013984,-0.010708,-13.92,-2.58,-43.26,94.2495,-2.7426,-2.2425,984.7178,55.855694,37.480854,175.0859,NaN,,0.0122,3.0,85.4569,29 / 29,,1799,2021-05-20 22:06:43:332
0.445335,0.440547,9.941029,0.376831,0.463709,9.788429,0.012011,-6.6E-5,-0.018039,-13.92,-2.58,-43.26,94.2495,-2.7426,-2.2425,984.7178,55.855694,37.480854,175.0859,NaN,,0.0122,3.0,85.4569,29 / 29,,1809,2021-05-20 22:06:43:342
0.41421,0.445335,9.878778,0.376533,0.462642,9.788492,0.035835,-0.007396,-0.02598,-13.68,-2.88,-43.56,94.2495,-2.7426,-2.2425,984.7178,55.855694,37.480854,175.0859,NaN,,0.0122,3.0,85.4569,29 / 29,,1820,2021-05-20 22:06:43:353
0.34717,0.471672,9.751882,0.376533,0.462642,9.788492,0.044387,-0.014727,-0.030256,-13.68,-2.88,-43.56,94.2495,-2.7426,-2.2425,984.7178,55.855694,37.480854,175.0859,NaN,,0.0122,3.0,85.4569,29 / 29,,1829,2021-05-20 22:06:43:362
0.29689,0.483644,9.641745,0.37778,0.470007,9.788093,0.038279,-0.012283,-0.030256,-13.62,-3.24,-43.2,94.3766,-2.704,-2.2029,984.7178,55.855694,37.480854,175.0859,NaN,,0.0122,3.0,85.4569,29 / 29,,1840,2021-05-20 22:06:43:373
0.29689,0.483644,9.641745,0.37778,0.470007,9.788093,0.015066,-0.005564,-0.025369,-13.62,-3.24,-43.2,94.3766,-2.704,-2.2029,984.7178,55.855694,37.480854,175.0859,NaN,,0.0122,3.0,85.4569,29 / 29,,1849,2021-05-20 22:06:43:382
0.301679,0.438152,9.603436,0.379018,0.475776,9.787766,-0.010591,-0.003731,-0.014985,-13.62,-3.66,-43.26,94.3766,-2.704,-2.2029,984.7178,55.855694,37.480854,175.0859,NaN,,0.0122,3.0,85.4569,29 / 29,,1859,2021-05-20 22:06:43:392
0.294496,0.435758,9.749487,0.379018,0.475776,9.787766,-0.027084,0.006043,-0.002156,-13.62,-3.66,-43.26,94.3766,-2.704,-2.2029,984.7178,55.855694,37.480854,175.0859,NaN,,0.0122,3.0,85.4569,29 / 29,,1869,2021-05-20 22:06:43:402
0.371113,0.457306,9.873989,0.379116,0.47292,9.787901,-0.027084,0.009708,0.00212,-13.8,-3.84,-43.2,98.6923,-2.7808,-2.2176,984.7178,55.855694,37.480854,175.0859,NaN,,0.0122,3.0,85.4569,29 / 29,,1880,2021-05-20 22:06:43:413
0.371113,0.457306,9.873989,0.379116,0.47292,9.787901,-0.006315,0.009708,-9.35E-4,-13.8,-3.84,-43.2,98.6923,-2.7808,-2.2176,984.7178,55.855694,37.480854,175.0859,NaN,,0.0122,3.0,85.4569,29 / 29,,1890,2021-05-20 22:06:43:423
0.433364,0.440547,9.914692,0.37656,0.468056,9.788234,0.005292,-0.001899,-0.008265,-13.86,-3.3,-42.84,98.6923,-2.7808,-2.2176,984.718,55.855694,37.480854,175.0859,NaN,,0.0122,3.0,85.4569,29 / 29,,1900,2021-05-20 22:06:43:433
0.41421,0.416604,9.840469,0.37656,0.468056,9.788234,0.005292,-0.001899,-0.008265,-13.86,-3.3,-42.84,98.6923,-2.7808,-2.2176,984.718,55.855694,37.480854,175.0859,NaN,,0.0122,3.0,85.4569,29 / 29,,1910,2021-05-20 22:06:43:443
0.402238,0.426181,9.847652,0.376008,0.464083,9.788444,0.021174,-0.012283,-0.008876,-14.22,-2.46,-43.26,89.6342,-2.7357,-2.2031,984.718,55.855694,37.480854,175.0859,NaN,,0.0122,3.0,85.4569,29 / 29,,1919,2021-05-20 22:06:43:452
0.402238,0.426181,9.847652,0.376008,0.464083,9.788444,0.028505,-0.006175,-0.008265,-14.22,-2.46,-43.26,89.6342,-2.7357,-2.2031,984.718,55.855694,37.480854,175.0859,NaN,,0.0122,3.0,85.4569,29 / 29,,1929,2021-05-20 22:06:43:462
0.416604,0.488432,9.732727,0.379174,0.463815,9.788334,0.026672,-0.00312,-0.010708,-13.56,-3.0,-43.86,89.6342,-2.7357,-2.2031,984.718,55.855694,37.480854,175.0859,NaN,,0.0122,3.0,85.4569,29 / 29,,1939,2021-05-20 22:06:43:472
0.392661,0.474066,9.634562,0.379174,0.463815,9.788334,0.016898,-0.001288,-0.012541,-13.56,-3.0,-43.86,89.6342,-2.7357,-2.2031,984.718,55.855694,37.480854,175.0859,NaN,,0.0122,3.0,85.4569,29 / 29,,1949,2021-05-20 22:06:43:482
0.426181,0.442941,9.61062,0.382138,0.463798,9.78822,0.004681,-0.006175,-0.010708,-12.78,-4.14,-43.62,99.517,-2.7109,-2.2184,984.718,55.855694,37.480854,175.0859,NaN,,0.0122,3.0,85.4569,29 / 29,,1959,2021-05-20 22:06:43:492
0.426181,0.442941,9.61062,0.382138,0.463798,9.78822,-0.015477,-0.011672,-0.010708,-12.78,-4.14,-43.62,99.517,-2.7109,-2.2184,984.718,55.855694,37.480854,175.0859,NaN,,0.0122,3.0,85.4569,29 / 29,,1969,2021-05-20 22:06:43:502
0.452518,0.454912,9.771035,0.387511,0.461044,9.788139,-0.02464,-0.003731,-0.011319,-13.38,-3.78,-43.32,99.517,-2.7109,-2.2184,984.718,55.855694,37.480854,175.0859,NaN,,0.0122,3.0,85.4569,29 / 29,,1979,2021-05-20 22:06:43:512
0.445335,0.409421,9.873989,0.387511,0.461044,9.788139,-0.02464,0.001156,-0.01193,-13.38,-3.78,-43.32,99.517,-2.7109,-2.2184,984.718,55.855694,37.480854,175.0859,NaN,,0.0122,3.0,85.4569,29 / 29,,1989,2021-05-20 22:06:43:522
0.416604,0.411815,9.917087,0.392522,0.454851,9.788229,-0.012423,0.001156,-0.008265,-13.14,-3.48,-43.02,94.823,-2.6947,-2.2671,984.7188,55.855694,37.480854,175.0859,NaN,,0.0122,3.0,85.4569,29 / 29,,2000,2021-05-20 22:06:43:533
0.435758,0.430969,9.881172,0.392522,0.454851,9.788229,0.014455,-0.012283,-0.011319,-13.14,-3.48,-43.02,94.823,-2.6947,-2.2671,984.7188,55.855694,37.480854,175.0859,NaN,,0.0122,3.0,85.4569,29 / 29,,2009,2021-05-20 22:06:43:542
0.435758,0.430969,9.881172,0.397489,0.451384,9.788189,0.026061,-0.020835,-0.013152,-12.66,-3.9,-42.96,94.823,-2.6947,-2.2671,984.7188,55.855694,37.480854,175.0859,NaN,,0.0122,3.0,85.4569,29 / 29,,2019,2021-05-20 22:06:43:552
0.440547,0.462095,9.80695,0.397489,0.451384,9.788189,0.026672,-0.019614,-0.016206,-12.66,-3.9,-42.96,94.823,-2.6947,-2.2671,984.7188,55.855694,37.480854,175.0859,NaN,,0.0122,3.0,85.4569,29 / 29,,2029,2021-05-20 22:06:43:562
0.481249,0.488432,9.775824,0.405766,0.453843,9.787736,0.020564,-0.012283,-0.022926,-13.02,-3.66,-43.44,100.0552,-2.6382,-2.3255,984.7188,55.855694,37.480854,175.0859,NaN,,0.0122,3.0,85.4569,29 / 29,,2039,2021-05-20 22:06:43:572
0.435758,0.529135,9.730332,0.405766,0.453843,9.787736,0.016288,-0.007396,-0.023537,-13.02,-3.66,-43.44,100.0552,-2.6382,-2.3255,984.7188,55.855694,37.480854,175.0859,NaN,,0.0122,3.0,85.4569,29 / 29,,2050,2021-05-20 22:06:43:583
0.430969,0.52674,9.73991,0.413178,0.457943,9.787234,0.010179,-0.009229,-0.026591,-12.96,-3.48,-43.14,100.0552,-2.6382,-2.3255,984.7188,55.855694,37.480854,175.0859,NaN,,0.0122,3.0,85.4569,29 / 29,,2060,2021-05-20 22:06:43:593
0.430969,0.52674,9.73991,0.413178,0.457943,9.787234,0.010179,-0.009229,-0.026591,-12.96,-3.48,-43.14,100.0552,-2.6382,-2.3255,984.7188,55.855694,37.480854,175.0859,NaN,,0.0122,3.0,85.4569,29 / 29,,2069,2021-05-20 22:06:43:602
0.442941,0.531529,9.708784,0.418913,0.464241,9.786694,0.012622,-0.012894,-0.030256,-13.44,-3.18,-42.78,94.9352,-2.6765,-2.4174,984.7188,55.855694,37.480854,175.0859,NaN,,0.0122,3.0,85.4569,29 / 29,,2079,2021-05-20 22:06:43:612
0.411815,0.507586,9.72315,0.418913,0.464241,9.786694,0.012622,-0.011062,-0.030256,-13.44,-3.18,-42.78,94.9352,-2.6765,-2.4174,984.7188,55.855694,37.480854,175.0859,NaN,,0.0122,3.0,85.4569,29 / 29,,2089,2021-05-20 22:06:43:622
0.383084,0.52674,9.646533,0.423296,0.472582,9.786106,0.011401,-0.013505,-0.033921,-13.62,-2.64,-43.02,94.9352,-2.6765,-2.4174,984.7188,55.855694,37.480854,175.0859,NaN,,0.0122,3.0,85.4569,29 / 29,,2099,2021-05-20 22:06:43:632
0.418998,0.509981,9.641745,0.423296,0.472582,9.786106,0.01079,-0.018392,-0.033921,-13.62,-2.64,-43.02,94.9352,-2.6765,-2.4174,984.7188,55.855694,37.480854,175.0859,NaN,,0.0122,3.0,85.4569,29 / 29,,2109,2021-05-20 22:06:43:642
0.366324,0.529135,9.603436,0.425496,0.480441,9.785627,-8.17E-4,-0.011062,-0.035143,-13.38,-3.12,-42.96,94.6191,-2.7622,-2.4768,984.7188,55.855694,37.480854,175.0859,NaN,,0.0122,3.0,85.4569,29 / 29,,2119,2021-05-20 22:06:43:652
0.366324,0.529135,9.603436,0.425496,0.480441,9.785627,-0.007536,-0.011062,-0.033921,-13.38,-3.12,-42.96,94.6191,-2.7622,-2.4768,984.7188,55.855694,37.480854,175.0859,NaN,,0.0122,3.0,85.4569,29 / 29,,2129,2021-05-20 22:06:43:662
0.399844,0.493221,9.562734,0.425301,0.487194,9.785303,-0.007536,-0.011062,-0.033921,-13.38,-3.54,-42.9,94.6191,-2.7622,-2.4768,984.7188,55.855694,37.480854,175.0859,NaN,,0.0122,3.0,85.4569,29 / 29,,2139,2021-05-20 22:06:43:672
0.433364,0.505192,9.632168,0.425301,0.487194,9.785303,-0.02464,-0.015338,-0.041863,-13.38,-3.54,-42.9,94.6191,-2.7622,-2.4768,984.7188,55.855694,37.480854,175.0859,NaN,,0.0122,3.0,85.4569,29 / 29,,2150,2021-05-20 22:06:43:683
0.404632,0.459701,9.771035,0.425966,0.488413,9.785213,-0.032582,-0.015338,-0.048582,-12.96,-3.54,-43.32,99.3589,-2.8476,-2.4887,984.7188,55.855694,37.480854,175.0859,NaN,,0.0122,3.0,85.4569,29 / 29,,2159,2021-05-20 22:06:43:692
0.31365,0.421392,9.828498,0.425966,0.488413,9.785213,-0.028917,-0.009229,-0.048582,-12.96,-3.54,-43.32,99.3589,-2.8476,-2.4887,984.7188,55.855694,37.480854,175.0859,NaN,,0.0122,3.0,85.4569,29 / 29,,2170,2021-05-20 22:06:43:703
0.31365,0.421392,9.828498,0.424174,0.485102,9.785456,-0.020364,-0.008007,-0.043695,-12.24,-3.72,-43.44,99.3589,-2.8476,-2.4887,984.7188,55.855694,37.480854,175.0859,NaN,,0.0122,3.0,85.4569,29 / 29,,2179,2021-05-20 22:06:43:712
0.251399,0.371113,9.830893,0.424174,0.485102,9.785456,-0.014867,-0.015338,-0.028424,-12.24,-3.72,-43.44,99.3589,-2.8476,-2.4887,984.7188,55.855694,37.480854,175.0859,NaN,,0.0122,3.0,85.4569,29 / 29,,2189,2021-05-20 22:06:43:722
0.241822,0.344776,9.826104,0.4151,0.478613,9.786164,-0.008147,-0.011672,-0.016817,-12.9,-3.9,-43.38,99.4018,-2.8354,-2.4821,984.7156,55.855694,37.480854,175.0859,NaN,,0.0122,3.0,85.4569,29 / 29,,2199,2021-05-20 22:06:43:732
0.332804,0.354353,9.797373,0.4151,0.478613,9.786164,-0.016088,-0.014727,-0.011319,-12.9,-3.9,-43.38,99.4018,-2.8354,-2.4821,984.7156,55.855694,37.480854,175.0859,NaN,,0.0122,3.0,85.4569,29 / 29,,2210,2021-05-20 22:06:43:743
0.404632,0.373507,9.847652,0.402045,0.467525,9.787245,-0.028306,-0.005564,-0.006432,-14.64,-4.08,-43.38,99.4018,-2.8354,-2.4821,984.7156,55.855694,37.480854,175.0859,NaN,,0.0122,3.0,85.4569,29 / 29,,2220,2021-05-20 22:06:43:753
0.404632,0.373507,9.847652,0.402045,0.467525,9.787245,-0.039912,0.009097,-0.008876,-14.64,-4.08,-43.38,99.4018,-2.8354,-2.4821,984.7156,55.855694,37.480854,175.0859,NaN,,0.0122,3.0,85.4569,29 / 29,,2229,2021-05-20 22:06:43:762
0.411815,0.378295,9.957788,0.39138,0.451173,9.788445,-0.039301,0.022536,-0.008265,-14.52,-4.14,-42.6,98.2528,-2.7326,-2.3523,984.7156,55.855694,37.480854,175.0859,NaN,,0.0122,3.0,85.4569,29 / 29,,2240,2021-05-20 22:06:43:773
0.356747,0.335198,9.964972,0.39138,0.451173,9.788445,-0.030749,0.021314,-3.24E-4,-14.52,-4.14,-42.6,98.2528,-2.7326,-2.3523,984.7156,55.855694,37.480854,175.0859,NaN,,0.0122,3.0,85.4569,29 / 29,,2249,2021-05-20 22:06:43:782
0.378295,0.459701,9.979338,0.380903,0.433603,9.789652,-0.009369,0.019482,0.007617,-13.8,-3.84,-42.66,98.2528,-2.7326,-2.3523,984.7156,55.855694,37.480854,175.0859,NaN,,0.0122,3.0,85.4569,29 / 29,,2259,2021-05-20 22:06:43:792
0.378295,0.459701,9.979338,0.380903,0.433603,9.789652,-0.009369,0.019482,0.007617,-13.8,-3.84,-42.66,98.2528,-2.7326,-2.3523,984.7156,55.855694,37.480854,175.0859,NaN,,0.0122,3.0,85.4569,29 / 29,,2269,2021-05-20 22:06:43:802
0.390267,0.507586,9.871595,0.37348,0.423917,9.790362,0.015677,0.009097,0.003952,-14.22,-3.0,-42.54,94.9794,-2.5342,-2.2282,984.7156,55.855694,37.480854,175.0859,NaN,,0.0122,3.0,85.4569,29 / 29,,2280,2021-05-20 22:06:43:813
0.361536,0.519558,9.730332,0.37348,0.423917,9.790362,0.028505,-0.003731,0.005785,-14.22,-3.0,-42.54,94.9794,-2.5342,-2.2282,984.7156,55.855694,37.480854,175.0859,NaN,,0.0122,3.0,85.4569,29 / 29,,2289,2021-05-20 22:06:43:822
0.354353,0.545895,9.684841,0.371042,0.428314,9.790264,0.023007,-0.016559,0.003952,-14.76,-3.42,-42.6,94.9794,-2.5342,-2.2282,984.7136,55.855694,37.480854,175.0859,NaN,,0.0122,3.0,85.4569,29 / 29,,2300,2021-05-20 22:06:43:833
0.402238,0.57702,9.675264,0.371042,0.428314,9.790264,0.007735,-0.009229,0.007617,-14.76,-3.42,-42.6,94.9794,-2.5342,-2.2282,984.7136,55.855694,37.480854,175.0859,NaN,,0.0122,3.0,85.4569,29 / 29,,2309,2021-05-20 22:06:43:842
0.402238,0.57702,9.675264,0.37208,0.437989,9.789796,-0.006925,0.010319,0.010672,-14.1,-3.9,-43.32,99.6249,-2.5032,-2.1704,984.7136,55.855694,37.480854,175.0859,NaN,,0.0122,3.0,85.4569,29 / 29,,2319,2021-05-20 22:06:43:852
0.454912,0.581809,9.675264,0.37208,0.437989,9.789796,-0.020364,0.012762,0.003952,-14.1,-3.9,-43.32,99.6249,-2.5032,-2.1704,984.7136,55.855694,37.480854,175.0859,NaN,,0.0122,3.0,85.4569,29 / 29,,2330,2021-05-20 22:06:43:863
0.445335,0.557866,9.699207,0.373021,0.447768,9.789318,-0.022197,0.010319,2.87E-4,-13.98,-3.54,-43.68,99.6249,-2.5032,-2.1704,984.7136,55.855698,37.48085,175.3231,NaN,,0.0177,3.0,85.4569,29 / 30,,2339,2021-05-20 22:06:43:872
0.428575,0.514769,9.73991,0.373021,0.447768,9.789318,-0.01731,0.005432,2.87E-4,-13.98,-3.54,-43.68,99.6249,-2.5032,-2.1704,984.7136,55.855698,37.48085,175.3231,NaN,,0.0177,3.0,85.4569,29 / 30,,2349,2021-05-20 22:06:43:882
0.474066,0.52674,9.763853,0.377174,0.456807,9.788741,-0.004482,-0.005564,-0.008876,-14.28,-3.6,-43.38,99.2401,-2.617,-2.1822,984.7136,55.855698,37.48085,175.3231,NaN,,0.0177,3.0,85.4569,29 / 30,,2359,2021-05-20 22:06:43:892
0.474066,0.52674,9.763853,0.377174,0.456807,9.788741,0.005292,-0.01717,-0.017428,-14.28,-3.6,-43.38,99.2401,-2.617,-2.1822,984.7136,55.855698,37.48085,175.3231,NaN,,0.0177,3.0,85.4569,29 / 30,,2369,2021-05-20 22:06:43:902
0.488432,0.493221,9.720756,0.386185,0.46796,9.787863,0.008957,-0.021446,-0.021704,-13.98,-4.2,-43.08,99.2401,-2.617,-2.1822,984.7136,55.855698,37.48085,175.3231,NaN,,0.0177,3.0,85.4569,29 / 30,,2379,2021-05-20 22:06:43:912
0.459701,0.464489,9.711179,0.386185,0.46796,9.787863,-0.002649,-0.022057,-0.022315,-13.98,-4.2,-43.08,99.2401,-2.617,-2.1822,984.7136,55.855698,37.48085,175.3231,NaN,,0.0177,3.0,85.4569,29 / 30,,2389,2021-05-20 22:06:43:922
0.476461,0.411815,9.694419,0.399332,0.477222,9.786888,-0.016088,-0.016559,-0.025369,-13.92,-4.08,-43.14,98.871,-2.7351,-2.2595,984.7136,55.855698,37.48085,175.3231,NaN,,0.0177,3.0,85.4569,29 / 30,,2399,2021-05-20 22:06:43:932
0.445335,0.404632,9.77343,0.399332,0.477222,9.786888,-0.02464,-0.004953,-0.024758,-13.92,-4.08,-43.14,98.871,-2.7351,-2.2595,984.7136,55.855698,37.48085,175.3231,NaN,,0.0177,3.0,85.4569,29 / 30,,2409,2021-05-20 22:06:43:942
0.445335,0.404632,9.77343,0.411192,0.476702,9.786422,-0.029527,-0.00312,-0.024758,-13.74,-3.24,-42.24,98.871,-2.7351,-2.2595,984.7136,55.855698,37.48085,175.3231,NaN,,0.0177,3.0,85.4569,29 / 30,,2419,2021-05-20 22:06:43:952
0.402238,0.368718,9.876384,0.411192,0.476702,9.786422,-0.019143,0.006654,-0.019261,-13.74,-3.24,-42.24,98.871,-2.7351,-2.2595,984.7136,55.855698,37.48085,175.3231,NaN,,0.0177,3.0,85.4569,29 / 30,,2429,2021-05-20 22:06:43:962
0.354353,0.337593,9.893144,0.417752,0.468544,9.786538,-0.019143,0.006654,-0.019261,-13.38,-3.6,-42.18,99.7502,-2.7863,-2.406,984.7136,55.855698,37.48085,175.3231,NaN,,0.0177,3.0,85.4569,29 / 30,,2439,2021-05-20 22:06:43:972
0.328016,0.392661,9.783007,0.417752,0.468544,9.786538,0.002848,-0.004342,-0.010708,-13.38,-3.6,-42.18,99.7502,-2.7863,-2.406,984.7136,55.855698,37.48085,175.3231,NaN,,0.0177,3.0,85.4569,29 / 30,,2450,2021-05-20 22:06:43:983
0.328016,0.392661,9.783007,0.418341,0.460431,9.786899,0.016898,-0.012283,-0.005211,-13.86,-3.36,-42.9,99.7502,-2.7863,-2.406,984.7136,55.855698,37.48085,175.3231,NaN,,0.0177,3.0,85.4569,29 / 30,,2459,2021-05-20 22:06:43:992
0.354353,0.517163,9.593859,0.418341,0.460431,9.786899,0.023618,-0.01717,-0.009487,-13.86,-3.36,-42.9,99.7502,-2.7863,-2.406,984.7136,55.855698,37.48085,175.3231,NaN,,0.0177,3.0,85.4569,29 / 30,,2469,2021-05-20 22:06:44:002
0.373507,0.490826,9.423865,0.417246,0.458704,9.787026,-0.008147,-0.03122,-0.016206,-14.04,-2.94,-43.2,94.4779,-2.6911,-2.4476,984.7136,55.855698,37.48085,175.3231,NaN,,0.0177,3.0,85.4569,29 / 30,,2480,2021-05-20 22:06:44:013
0.390267,0.488432,9.651321,0.417246,0.458704,9.787026,-0.044799,-0.024501,-0.019261,-14.04,-2.94,-43.2,94.4779,-2.6911,-2.4476,984.7136,55.855698,37.48085,175.3231,NaN,,0.0177,3.0,85.4569,29 / 30,,2489,2021-05-20 22:06:44:022
0.390267,0.488432,9.651321,0.417542,0.454917,9.78719,-0.062514,-0.012894,-0.021093,-13.5,-3.54,-43.26,94.4779,-2.6911,-2.4476,984.7207,55.855698,37.48085,175.3231,NaN,,0.0177,3.0,85.4569,29 / 30,,2499,2021-05-20 22:06:44:032
0.359141,0.471672,9.859624,0.417542,0.454917,9.78719,-0.065568,0.00421,-0.012541,-13.5,-3.54,-43.26,94.4779,-2.6911,-2.4476,984.7207,55.855698,37.48085,175.3231,NaN,,0.0177,3.0,85.4569,29 / 30,,2509,2021-05-20 22:06:44:042
0.328016,0.442941,10.000886,0.413291,0.445609,9.787799,-0.042966,0.002377,-0.007654,-13.68,-4.08,-42.78,99.4072,-2.6044,-2.4179,984.7207,55.855698,37.48085,175.3231,NaN,,0.0177,3.0,85.4569,29 / 30,,2519,2021-05-20 22:06:44:052
0.404632,0.440547,9.955395,0.413291,0.445609,9.787799,-0.001428,-0.019614,-0.003989,-13.68,-4.08,-42.78,99.4072,-2.6044,-2.4179,984.7207,55.855698,37.48085,175.3231,NaN,,0.0177,3.0,85.4569,29 / 30,,2529,2021-05-20 22:06:44:062
0.450124,0.454912,9.842864,0.407615,0.443106,9.788151,0.023007,-0.034885,-0.003378,-13.86,-3.66,-42.54,99.4072,-2.6044,-2.4179,984.7207,55.855698,37.48085,175.3231,NaN,,0.0177,3.0,85.4569,29 / 30,,2540,2021-05-20 22:06:44:073
0.450124,0.454912,9.842864,0.407615,0.443106,9.788151,0.023618,-0.040994,-0.008876,-13.86,-3.66,-42.54,99.4072,-2.6044,-2.4179,984.7207,55.855698,37.48085,175.3231,NaN,,0.0177,3.0,85.4569,29 / 30,,2549,2021-05-20 22:06:44:082
0.505192,0.466884,9.761458,0.411682,0.447667,9.787773,0.008957,-0.025722,-0.013763,-13.56,-3.12,-42.9,94.8234,-2.5897,-2.3846,984.7207,55.855698,37.48085,175.3231,NaN,,0.0177,3.0,85.4569,29 / 30,,2559,2021-05-20 22:06:44:092
0.471672,0.442941,9.823709,0.411682,0.447667,9.787773,-0.008758,-0.010451,-0.014374,-13.56,-3.12,-42.9,94.8234,-2.5897,-2.3846,984.7207,55.855698,37.48085,175.3231,NaN,,0.0177,3.0,85.4569,29 / 30,,2570,2021-05-20 22:06:44:103
0.407027,0.471672,9.866806,0.41769,0.448047,9.787501,-0.012423,0.007875,-0.010708,-13.98,-3.36,-42.48,94.8234,-2.5897,-2.3846,984.7207,55.855698,37.48085,175.3231,NaN,,0.0177,3.0,85.4569,29 / 30,,2579,2021-05-20 22:06:44:112
0.407027,0.471672,9.866806,0.41769,0.448047,9.787501,-0.002649,0.007264,-0.010708,-13.98,-3.36,-42.48,94.8234,-2.5897,-2.3846,984.7207,55.855698,37.48085,175.3231,NaN,,0.0177,3.0,85.4569,29 / 30,,2589,2021-05-20 22:06:44:122
0.426181,0.509981,9.797373,0.417736,0.447816,9.787509,0.010179,-6.77E-4,-0.010708,-14.22,-3.3,-42.66,94.7354,-2.6186,-2.4437,984.7268,55.855698,37.48085,175.3231,NaN,,0.0177,3.0,85.4569,29 / 30,,2600,2021-05-20 22:06:44:133
0.445335,0.512375,9.732727,0.417736,0.447816,9.787509,0.018731,-0.014727,-0.019871,-14.22,-3.3,-42.66,94.7354,-2.6186,-2.4437,984.7268,55.855698,37.48085,175.3231,NaN,,0.0177,3.0,85.4569,29 / 30,,2609,2021-05-20 22:06:44:142
0.447729,0.476461,9.675264,0.420682,0.453957,9.7871,0.019953,-0.019614,-0.019261,-14.22,-3.36,-43.32,94.7354,-2.6186,-2.4437,984.7268,55.855698,37.48085,175.3231,NaN,,0.0177,3.0,85.4569,29 / 30,,2619,2021-05-20 22:06:44:152
0.447729,0.476461,9.675264,0.420682,0.453957,9.7871,0.001627,-0.008618,-0.025369,-14.22,-3.36,-43.32,94.7354,-2.6186,-2.4437,984.7268,55.855698,37.48085,175.3231,NaN,,0.0177,3.0,85.4569,29 / 30,,2629,2021-05-20 22:06:44:162
0.466884,0.459701,9.701602,0.426414,0.460016,9.78657,-0.011201,-0.002509,-0.029645,-14.28,-3.3,-43.26,94.6164,-2.6532,-2.4612,984.7268,55.855698,37.48085,175.3231,NaN,,0.0177,3.0,85.4569,29 / 30,,2639,2021-05-20 22:06:44:172
0.457306,0.435758,9.701602,0.426414,0.460016,9.78657,-0.026473,0.007875,-0.032089,-14.28,-3.3,-43.26,94.6164,-2.6532,-2.4612,984.7268,55.855698,37.48085,175.3231,NaN,,0.0177,3.0,85.4569,29 / 30,,2649,2021-05-20 22:06:44:182
0.407027,0.387873,9.754275,0.429613,0.458827,9.786486,-0.030749,0.007875,-0.031478,-14.34,-3.24,-43.14,94.6164,-2.6532,-2.4612,984.7268,55.855698,37.48085,175.3231,NaN,,0.0177,3.0,85.4569,29 / 30,,2659,2021-05-20 22:06:44:192
0.407027,0.34717,9.857229,0.429613,0.458827,9.786486,-0.032582,0.006654,-0.029034,-14.34,-3.24,-43.14,94.6164,-2.6532,-2.4612,984.7268,55.855698,37.48085,175.3231,NaN,,0.0177,3.0,85.4569,29 / 30,,2669,2021-05-20 22:06:44:202
0.385478,0.354353,9.869201,0.429374,0.450894,9.786864,-0.02464,0.010319,-0.021093,-14.4,-3.84,-42.84,99.1865,-2.6817,-2.5136,984.7268,55.855698,37.48085,175.3231,NaN,,0.0177,3.0,85.4569,29 / 30,,2680,2021-05-20 22:06:44:213
0.385478,0.354353,9.869201,0.429374,0.450894,9.786864,-0.00998,0.008486,-0.021093,-14.4,-3.84,-42.84,99.1865,-2.6817,-2.5136,984.7268,55.855698,37.48085,175.3231,NaN,,0.0177,3.0,85.4569,29 / 30,,2689,2021-05-20 22:06:44:222
0.342381,0.375901,9.79019,0.426357,0.441357,9.787432,0.007125,-6.77E-4,-0.009487,-14.34,-3.78,-42.9,99.1865,-2.6817,-2.5136,984.7268,55.855698,37.48085,175.3231,NaN,,0.0177,3.0,85.4569,29 / 30,,2699,2021-05-20 22:06:44:232
0.344776,0.418998,9.696813,0.426357,0.441357,9.787432,0.012011,-0.008618,-0.007654,-14.34,-3.78,-42.9,99.1865,-2.6817,-2.5136,984.7268,55.855698,37.48085,175.3231,NaN,,0.0177,3.0,85.4569,29 / 30,,2709,2021-05-20 22:06:44:242
0.383084,0.438152,9.557945,0.421683,0.435995,9.787874,-0.002038,-0.016559,-0.005822,-13.86,-3.84,-42.9,99.5354,-2.5795,-2.4943,984.7268,55.855698,37.48085,175.3231,NaN,,0.0177,3.0,85.4569,29 / 30,,2719,2021-05-20 22:06:44:252
0.383084,0.438152,9.557945,0.421683,0.435995,9.787874,-0.002038,-0.016559,-0.005822,-13.86,-3.84,-42.9,99.5354,-2.5795,-2.4943,984.7268,55.855698,37.48085,175.3231,NaN,,0.0177,3.0,85.4569,29 / 30,,2729,2021-05-20 22:06:44:262
0.392661,0.459701,9.613013,0.418912,0.432055,9.788168,-0.035636,-0.002509,-0.0046,-14.1,-4.2,-42.72,99.5354,-2.5795,-2.4943,984.7268,55.855698,37.48085,175.3231,NaN,,0.0177,3.0,85.4569,29 / 30,,2739,2021-05-20 22:06:44:272
0.368718,0.464489,9.689631,0.418912,0.432055,9.788168,-0.035636,-0.002509,-0.0046,-14.1,-4.2,-42.72,99.5354,-2.5795,-2.4943,984.7268,55.855698,37.48085,175.3231,NaN,,0.0177,3.0,85.4569,29 / 30,,2750,2021-05-20 22:06:44:283
0.404632,0.445335,9.751882,0.415361,0.426457,9.788565,-0.042966,-0.007396,-3.24E-4,-13.68,-4.02,-42.84,99.7019,-2.5251,-2.4506,984.7268,55.855698,37.48085,175.3231,NaN,,0.0177,3.0,85.4569,29 / 30,,2759,2021-05-20 22:06:44:292
0.481249,0.493221,9.799767,0.415361,0.426457,9.788565,-0.039301,-0.009229,0.00212,-13.68,-4.02,-42.84,99.7019,-2.5251,-2.4506,984.7268,55.855698,37.48085,175.3231,NaN,,0.0177,3.0,85.4569,29 / 30,,2769,2021-05-20 22:06:44:302
0.481249,0.493221,9.799767,0.413419,0.422426,9.788821,-0.032582,-0.012894,-0.008265,-13.26,-3.66,-42.84,99.7019,-2.5251,-2.4506,984.7268,55.855698,37.48085,175.3231,NaN,,0.0177,3.0,85.4569,29 / 30,,2780,2021-05-20 22:06:44:313
0.514769,0.509981,9.835681,0.413419,0.422426,9.788821,-0.020364,-0.015948,-0.021093,-13.26,-3.66,-42.84,99.7019,-2.5251,-2.4506,984.7268,55.855698,37.48085,175.3231,NaN,,0.0177,3.0,85.4569,29 / 30,,2789,2021-05-20 22:06:44:322
0.409421,0.464489,9.785401,0.417754,0.424732,9.788538,-0.01731,-0.025111,-0.021093,-14.28,-3.72,-42.48,100.0427,-2.4688,-2.4184,984.7253,55.855698,37.48085,175.3231,NaN,,0.0177,3.0,85.4569,29 / 30,,2799,2021-05-20 22:06:44:332
0.378295,0.466884,9.794978,0.417754,0.424732,9.788538,-0.020364,-0.02389,-0.01865,-14.28,-3.72,-42.48,100.0427,-2.4688,-2.4184,984.7253,55.855698,37.48085,175.3231,NaN,,0.0177,3.0,85.4569,29 / 30,,2809,2021-05-20 22:06:44:342
0.390267,0.459701,9.850046,0.423014,0.428767,9.788136,-0.025251,-0.011672,-0.014374,-14.28,-3.42,-42.66,100.0427,-2.4688,-2.4184,984.7253,55.855698,37.48085,175.3231,NaN,,0.0177,3.0,85.4569,29 / 30,,2819,2021-05-20 22:06:44:352
0.392661,0.442941,9.888355,0.423014,0.428767,9.788136,-0.030749,-0.004953,-0.012541,-14.28,-3.42,-42.66,100.0427,-2.4688,-2.4184,984.7253,55.855698,37.48085,175.3231,NaN,,0.0177,3.0,85.4569,29 / 30,,2830,2021-05-20 22:06:44:363
0.392661,0.442941,9.888355,0.423178,0.430165,9.788068,-0.032582,-0.002509,-0.008265,-14.04,-3.12,-42.84,95.1459,-2.5059,-2.4746,984.7253,55.855698,37.48085,175.3231,NaN,,0.0177,3.0,85.4569,29 / 30,,2839,2021-05-20 22:06:44:372
0.383084,0.421392,9.929058,0.423178,0.430165,9.788068,-0.021586,-0.004953,-0.005822,-14.04,-3.12,-42.84,95.1459,-2.5059,-2.4746,984.7253,55.855698,37.48085,175.3231,NaN,,0.0177,3.0,85.4569,29 / 30,,2850,2021-05-20 22:06:44:383
0.38069,0.409421,9.91948,0.419913,0.428412,9.788285,-0.005093,-0.015338,-0.005211,-14.34,-3.36,-42.3,95.1459,-2.5059,-2.4746,984.7253,55.855698,37.48085,175.3231,NaN,,0.0177,3.0,85.4569,29 / 30,,2859,2021-05-20 22:06:44:392
0.423787,0.373507,9.888355,0.419913,0.428412,9.788285,-0.005093,-0.015338,-0.005211,-14.34,-3.36,-42.3,95.1459,-2.5059,-2.4746,984.7253,55.855698,37.48085,175.3231,NaN,,0.0177,3.0,85.4569,29 / 30,,2869,2021-05-20 22:06:44:402
0.423787,0.373507,9.888355,0.417176,0.427993,9.78842,-0.001428,-0.015338,-0.005822,-14.28,-3.54,-42.18,99.945,-2.5038,-2.4565,984.7253,55.855698,37.48085,175.3231,NaN,,0.0177,3.0,85.4569,29 / 30,,2879,2021-05-20 22:06:44:412
0.495615,0.361536,9.873989,0.417176,0.427993,9.78842,-0.002649,-0.015948,-0.007654,-14.28,-3.54,-42.18,99.945,-2.5038,-2.4565,984.7253,55.855698,37.48085,175.3231,NaN,,0.0177,3.0,85.4569,29 / 30,,2889,2021-05-20 22:06:44:422
0.486038,0.328016,9.924269,0.418307,0.424478,9.788525,-0.008758,-0.00312,-0.008876,-14.22,-3.48,-42.24,99.945,-2.5038,-2.4565,984.7251,55.855698,37.48085,175.3231,NaN,,0.0177,3.0,85.4569,29 / 30,,2900,2021-05-20 22:06:44:433
0.466884,0.335198,9.988914,0.418307,0.424478,9.788525,-0.005704,0.007264,-0.003989,-14.22,-3.48,-42.24,99.945,-2.5038,-2.4565,984.7251,55.855698,37.48085,175.3231,NaN,,0.0177,3.0,85.4569,29 / 30,,2909,2021-05-20 22:06:44:442
0.486038,0.387873,9.93624,0.420059,0.416151,9.788808,0.005292,0.022536,8.98E-4,-13.62,-3.0,-43.08,95.2277,-2.4808,-2.447,984.7251,55.855698,37.48085,175.3231,NaN,,0.0177,3.0,85.4569,29 / 30,,2919,2021-05-20 22:06:44:452
0.486038,0.387873,9.93624,0.420059,0.416151,9.788808,0.026672,0.033532,0.007007,-13.62,-3.0,-43.08,95.2277,-2.4808,-2.447,984.7251,55.855698,37.48085,175.3231,NaN,,0.0177,3.0,85.4569,29 / 30,,2929,2021-05-20 22:06:44:462
0.483644,0.447729,9.787795,0.420007,0.411265,9.789017,0.0395,0.022536,8.98E-4,-13.56,-2.7,-43.2,95.2277,-2.4808,-2.447,984.7251,55.855698,37.48085,175.3231,NaN,,0.0177,3.0,85.4569,29 / 30,,2939,2021-05-20 22:06:44:472
0.493221,0.536318,9.447808,0.420007,0.411265,9.789017,0.035835,-6.6E-5,-0.010098,-13.56,-2.7,-43.2,95.2277,-2.4808,-2.447,984.7251,55.855698,37.48085,175.3231,NaN,,0.0177,3.0,85.4569,29 / 30,,2949,2021-05-20 22:06:44:482
0.474066,0.538712,9.323306,0.423645,0.417315,9.788604,0.002848,-0.016559,-0.021093,-14.52,-3.18,-42.9,94.9702,-2.4389,-2.4782,984.7251,55.855698,37.48085,175.3231,NaN,,0.0177,3.0,85.4569,29 / 30,,2959,2021-05-20 22:06:44:492
0.445335,0.498009,9.402317,0.423645,0.417315,9.788604,-0.021586,-0.011062,-0.022315,-14.52,-3.18,-42.9,94.9702,-2.4389,-2.4782,984.7251,55.855698,37.48085,175.3231,NaN,,0.0177,3.0,85.4569,29 / 30,,2970,2021-05-20 22:06:44:503
0.445335,0.498009,9.402317,0.433847,0.424767,9.787836,-0.021586,-0.011062,-0.022315,-14.52,-3.48,-43.56,94.9702,-2.4389,-2.4782,984.7251,55.855698,37.48085,175.3231,NaN,,0.0177,3.0,85.4569,29 / 30,,2979,2021-05-20 22:06:44:512
0.390267,0.409421,9.569917,0.433847,0.424767,9.787836,-0.050297,-0.006785,-0.019871,-14.52,-3.48,-43.56,94.9702,-2.4389,-2.4782,984.7251,55.855698,37.48085,175.3231,NaN,,0.0177,3.0,85.4569,29 / 30,,2989,2021-05-20 22:06:44:522
0.411815,0.359141,9.766247,0.438809,0.421435,9.787759,-0.062514,0.008486,-0.003989,-14.52,-3.48,-43.92,94.6678,-2.4825,-2.538,984.7239,55.855698,37.48085,175.3231,NaN,,0.0177,3.0,85.4569,29 / 30,,3000,2021-05-20 22:06:44:533
0.426181,0.395055,9.845258,0.438809,0.421435,9.787759,-0.044799,0.017038,-9.35E-4,-14.52,-3.48,-43.92,94.6678,-2.4825,-2.538,984.7239,55.855698,37.48085,175.3231,NaN,,0.0177,3.0,85.4569,29 / 30,,3010,2021-05-20 22:06:44:543
0.426181,0.395055,9.845258,0.437241,0.413117,9.788184,-0.031971,0.008486,-0.005822,-14.76,-3.18,-43.68,94.6678,-2.4825,-2.538,984.7239,55.855698,37.48085,175.3231,NaN,,0.0177,3.0,85.4569,29 / 30,,3019,2021-05-20 22:06:44:552
0.471672,0.392661,9.780613,0.436683,0.411153,9.788292,-0.025862,0.002377,-0.007654,-14.58,-3.12,-43.62,94.6678,-2.4825,-2.538,984.7239,55.855698,37.48085,175.3231,NaN,,0.0177,3.0,85.4569,29 / 30,,3029,2021-05-20 22:06:44:562
0.471672,0.392661,9.780613,0.436683,0.411153,9.788292,-0.026473,-0.011672,-0.029034,-14.58,-3.12,-43.62,94.6678,-2.4825,-2.538,984.7239,55.855698,37.48085,175.3231,NaN,,0.0177,3.0,85.4569,29 / 30,,3039,2021-05-20 22:06:44:572
0.402238,0.385478,9.759064,0.440458,0.4086,9.788229,-0.035636,-0.008618,-0.027813,-14.7,-2.82,-42.9,95.1085,-2.4029,-2.5544,984.7239,55.855698,37.48085,175.3231,NaN,,0.0177,3.0,85.4569,29 / 30,,3049,2021-05-20 22:06:44:582
0.33041,0.339987,9.79019,0.440458,0.4086,9.788229,-0.035636,-0.008618,-0.027813,-14.7,-2.82,-42.9,95.1085,-2.4029,-2.5544,984.7239,55.855698,37.48085,175.3231,NaN,,0.0177,3.0,85.4569,29 / 30,,3059,2021-05-20 22:06:44:592
0.256187,0.301679,9.881172,0.440683,0.402662,9.788465,-0.050297,-6.77E-4,-0.017428,-14.7,-3.06,-42.84,95.1085,-2.4029,-2.5544,984.7239,55.855698,37.48085,175.3231,NaN,,0.0177,3.0,85.4569,29 / 30,,3069,2021-05-20 22:06:44:602
0.289707,0.31365,9.960183,0.440683,0.402662,9.788465,-0.047853,0.006043,-0.0046,-14.7,-3.06,-42.84,95.1085,-2.4029,-2.5544,984.7239,55.855698,37.48085,175.3231,NaN,,0.0177,3.0,85.4569,29 / 30,,3079,2021-05-20 22:06:44:612
0.289707,0.31365,9.960183,0.429757,0.389831,9.789471,-0.03869,0.014595,0.00945,-14.04,-2.82,-42.9,95.723,-2.3532,-2.5778,984.7239,55.855698,37.48085,175.3231,NaN,,0.0177,3.0,85.4569,29 / 30,,3089,2021-05-20 22:06:44:622
0.361536,0.304073,9.938635,0.429757,0.389831,9.789471,-0.025251,0.009097,0.01617,-14.04,-2.82,-42.9,95.723,-2.3532,-2.5778,984.7202,55.855698,37.48085,175.3231,NaN,,0.0177,3.0,85.4569,29 / 30,,3099,2021-05-20 22:06:44:632
0.421392,0.332804,9.957788,0.416,0.377365,9.790553,-0.013645,0.00421,0.014948,-13.32,-2.88,-42.96,95.723,-2.3532,-2.5778,984.7202,55.855698,37.48085,175.3231,NaN,,0.0177,3.0,85.4569,29 / 30,,3110,2021-05-20 22:06:44:643
0.418998,0.361536,9.890749,0.416,0.377365,9.790553,0.001627,0.00421,0.011894,-13.32,-2.88,-42.96,95.723,-2.3532,-2.5778,984.7202,55.855698,37.48085,175.3231,NaN,,0.0177,3.0,85.4569,29 / 30,,3119,2021-05-20 22:06:44:652
0.383084,0.38069,9.809344,0.408395,0.370063,9.791152,0.01079,0.001767,0.008228,-13.2,-2.76,-42.54,96.7609,-2.2053,-2.433,984.7202,55.855698,37.48085,175.3231,NaN,,0.0177,3.0,85.4569,29 / 30,,3130,2021-05-20 22:06:44:663
0.383084,0.38069,9.809344,0.408395,0.370063,9.791152,0.008346,-0.00312,0.00945,-13.2,-2.76,-42.54,96.7609,-2.2053,-2.433,984.7202,55.855698,37.48085,175.3231,NaN,,0.0177,3.0,85.4569,29 / 30,,3139,2021-05-20 22:06:44:672
0.392661,0.407027,9.787795,0.403854,0.36845,9.791401,0.002238,-0.002509,0.008228,-13.44,-2.58,-42.3,96.7609,-2.2053,-2.433,984.7202,55.855698,37.48085,175.3231,NaN,,0.0177,3.0,85.4569,29 / 30,,3149,2021-05-20 22:06:44:682
0.354353,0.383084,9.814133,0.402125,0.36815,9.791484,-0.008147,-0.001899,0.015559,-13.44,-2.58,-42.3,96.7609,-2.2053,-2.433,984.7202,55.855698,37.48085,175.3231,NaN,,0.0177,3.0,85.4569,29 / 30,,3160,2021-05-20 22:06:44:693
0.385478,0.337593,9.871595,0.402125,0.36815,9.791484,-0.013034,0.005432,0.024111,-13.8,-2.58,-43.08,96.3644,-2.1514,-2.3518,984.7202,55.855698,37.48085,175.3231,NaN,,0.0177,3.0,85.4569,29 / 30,,3170,2021-05-20 22:06:44:703
0.385478,0.337593,9.871595,0.397788,0.365865,9.791746,-0.017921,0.009097,0.027165,-13.8,-2.58,-43.08,96.3644,-2.1514,-2.3518,984.7202,55.855698,37.48085,175.3231,NaN,,0.0177,3.0,85.4569,29 / 30,,3180,2021-05-20 22:06:44:713
0.454912,0.36393,9.955395,0.397788,0.365865,9.791746,-0.008147,0.021314,0.027165,-13.92,-3.12,-42.96,96.3644,-2.1514,-2.3518,984.7202,55.855698,37.48085,175.3231,NaN,,0.0177,3.0,85.4569,29 / 30,,3189,2021-05-20 22:06:44:722
0.56026,0.416604,9.941029,0.39464,0.362744,9.791989,0.003459,0.018871,0.017391,-13.92,-3.12,-42.96,96.3644,-2.1514,-2.3518,984.7202,55.855698,37.48085,175.3231,NaN,,0.0177,3.0,85.4569,29 / 30,,3199,2021-05-20 22:06:44:732
0.569837,0.423787,9.869201,0.39464,0.362744,9.791989,0.016288,0.013373,0.005174,-13.62,-3.6,-42.9,101.0208,-2.1198,-2.3079,984.7253,55.855698,37.48085,175.3231,NaN,,0.0177,3.0,85.4569,29 / 30,,3209,2021-05-20 22:06:44:742
0.569837,0.423787,9.869201,0.39908,0.366075,9.791686,0.024229,0.006654,2.87E-4,-13.62,-3.6,-42.9,101.0208,-2.1198,-2.3079,984.7253,55.855698,37.48085,175.3231,NaN,,0.0177,3.0,85.4569,29 / 30,,3219,2021-05-20 22:06:44:752
0.553077,0.402238,9.785401,0.39908,0.366075,9.791686,0.02545,0.007264,-0.008876,-13.32,-3.36,-43.56,101.0208,-2.1198,-2.3079,984.7253,55.855698,37.48085,175.3231,NaN,,0.0177,3.0,85.4569,29 / 30,,3229,2021-05-20 22:06:44:762
0.471672,0.450124,9.814133,0.41171,0.373431,9.790885,0.023007,0.017649,-0.008876,-13.32,-3.36,-43.56,101.0208,-2.1198,-2.3079,984.7253,55.855698,37.48085,175.3231,NaN,,0.0177,3.0,85.4569,29 / 30,,3240,2021-05-20 22:06:44:773
0.378295,0.478855,9.636956,0.41171,0.373431,9.790885,0.027894,0.022536,-0.0046,-13.98,-3.18,-43.14,96.2752,-2.1823,-2.4079,984.7253,55.855698,37.48085,175.3231,NaN,,0.0177,3.0,85.4569,29 / 30,,3249,2021-05-20 22:06:44:782
0.378295,0.478855,9.636956,0.418599,0.383061,9.790221,0.021174,-0.001288,-0.003989,-13.98,-3.18,-43.14,96.2752,-2.1823,-2.4079,984.7253,55.855698,37.48085,175.3231,NaN,,0.0177,3.0,85.4569,29 / 30,,3259,2021-05-20 22:06:44:792
0.371113,0.478855,9.438231,0.418599,0.383061,9.790221,0.00407,-0.021446,-0.002767,-14.4,-3.42,-42.6,96.2752,-2.1823,-2.4079,984.7253,55.855698,37.48085,175.3231,NaN,,0.0177,3.0,85.4569,29 / 30,,3270,2021-05-20 22:06:44:803
0.36393,0.486038,9.478934,0.421758,0.395626,9.789586,-0.013645,-0.022668,-0.003989,-14.4,-3.42,-42.6,96.2752,-2.1823,-2.4079,984.7253,55.855698,37.48085,175.3231,NaN,,0.0177,3.0,85.4569,29 / 30,,3279,2021-05-20 22:06:44:812
0.399844,0.383084,9.608225,0.421758,0.395626,9.789586,-0.043577,-0.020835,2.87E-4,-13.68,-3.42,-42.72,95.8345,-2.3121,-2.4669,984.7253,55.855698,37.48085,175.3231,NaN,,0.0177,3.0,85.4569,29 / 30,,3289,2021-05-20 22:06:44:822
0.399844,0.354353,9.821315,0.425552,0.401906,9.789165,-0.049075,-0.011672,0.003341,-13.68,-3.42,-42.72,95.8345,-2.3121,-2.4669,984.7258,55.855698,37.48085,175.3231,NaN,,0.0177,3.0,85.4569,29 / 30,,3299,2021-05-20 22:06:44:832
0.399844,0.354353,9.821315,0.425552,0.401906,9.789165,-0.033803,-0.008618,0.002731,-13.32,-3.24,-43.2,95.8345,-2.3121,-2.4669,984.7258,55.855698,37.48085,175.3231,NaN,,0.0177,3.0,85.4569,29 / 30,,3309,2021-05-20 22:06:44:842
0.471672,0.301679,9.98652,0.426071,0.397102,9.789339,-0.008147,-0.019614,-0.0046,-13.68,-3.36,-43.02,95.8345,-2.3121,-2.4669,984.7258,55.855698,37.48085,175.3231,NaN,,0.0177,3.0,85.4569,29 / 30,,3319,2021-05-20 22:06:44:852
0.466884,0.28013,9.979338,0.426071,0.397102,9.789339,0.012622,-0.030609,-0.009487,-13.68,-3.36,-43.02,95.8345,-2.3121,-2.4669,984.7258,55.855698,37.48085,175.3231,NaN,,0.0177,3.0,85.4569,29 / 30,,3329,2021-05-20 22:06:44:862
0.445335,0.301679,9.967366,0.43015,0.392623,9.789342,0.022396,-0.033053,-0.017428,-13.98,-3.3,-43.32,95.8119,-2.3207,-2.4922,984.7258,55.855698,37.48085,175.739,NaN,,0.0087,2.0,85.4569,29 / 29,,3340,2021-05-20 22:06:44:873
0.36393,0.306467,9.924269,0.43015,0.392623,9.789342,0.027894,-0.024501,-0.013152,-13.98,-3.3,-43.32,95.8119,-2.3207,-2.4922,984.7258,55.855698,37.48085,175.739,NaN,,0.0087,2.0,85.4569,29 / 29,,3349,2021-05-20 22:06:44:882
0.36393,0.306467,9.924269,0.436022,0.389243,9.789217,0.021785,-0.020225,-0.008876,-13.74,-3.36,-42.48,95.8119,-2.3207,-2.4922,984.7258,55.855698,37.48085,175.739,NaN,,0.0087,2.0,85.4569,29 / 29,,3359,2021-05-20 22:06:44:892
0.306467,0.277736,9.871595,0.436022,0.389243,9.789217,0.021785,-0.020225,-0.008876,-13.74,-3.36,-42.48,95.8119,-2.3207,-2.4922,984.7258,55.855698,37.48085,175.739,NaN,,0.0087,2.0,85.4569,29 / 29,,3369,2021-05-20 22:06:44:902
0.349564,0.304073,9.814133,0.433461,0.383322,9.789564,0.013844,-0.011062,0.003952,-14.1,-3.42,-42.18,96.1587,-2.2748,-2.5503,984.7258,55.855698,37.48085,175.739,NaN,,0.0087,2.0,85.4569,29 / 29,,3379,2021-05-20 22:06:44:912
0.404632,0.356747,9.893144,0.433461,0.383322,9.789564,0.007125,-0.006175,0.013726,-14.1,-3.42,-42.18,96.1587,-2.2748,-2.5503,984.7258,55.855698,37.48085,175.739,NaN,,0.0087,2.0,85.4569,29 / 29,,3389,2021-05-20 22:06:44:922
0.438152,0.366324,9.814133,0.426611,0.374686,9.790198,0.012011,0.001767,0.01678,-14.94,-3.12,-42.54,96.1587,-2.2748,-2.5503,984.7197,55.855698,37.48085,175.739,NaN,,0.0087,2.0,85.4569,29 / 29,,3399,2021-05-20 22:06:44:932
0.438152,0.366324,9.814133,0.426611,0.374686,9.790198,0.016898,-0.003731,0.012504,-14.94,-3.12,-42.54,96.1587,-2.2748,-2.5503,984.7197,55.855698,37.48085,175.739,NaN,,0.0087,2.0,85.4569,29 / 29,,3409,2021-05-20 22:06:44:942
0.481249,0.390267,9.80695,0.422336,0.370416,9.790546,0.015677,-0.006175,0.005174,-14.22,-2.88,-42.72,96.2798,-2.1897,-2.4951,984.7197,55.855698,37.48085,175.739,NaN,,0.0087,2.0,85.4569,29 / 29,,3419,2021-05-20 22:06:44:952
0.416604,0.452518,9.77343,0.422336,0.370416,9.790546,0.022396,0.001767,-0.006432,-14.22,-2.88,-42.72,96.2798,-2.1897,-2.4951,984.7197,55.855698,37.48085,175.739,NaN,,0.0087,2.0,85.4569,29 / 29,,3429,2021-05-20 22:06:44:962
0.416604,0.452518,9.77343,0.422259,0.371964,9.790492,0.029727,-0.002509,-0.008876,-13.8,-3.54,-42.9,96.2798,-2.1897,-2.4951,984.7197,55.855698,37.48085,175.739,NaN,,0.0087,2.0,85.4569,29 / 29,,3439,2021-05-20 22:06:44:972
0.33041,0.407027,9.591465,0.422259,0.371964,9.790492,0.021174,-0.015338,-0.005211,-13.8,-3.54,-42.9,96.2798,-2.1897,-2.4951,984.7197,55.855698,37.48085,175.739,NaN,,0.0087,2.0,85.4569,29 / 29,,3449,2021-05-20 22:06:44:982
0.41421,0.454912,9.577099,0.421505,0.378316,9.79028,0.006514,-0.014116,-0.008265,-13.98,-3.6,-42.78,100.9369,-2.1737,-2.4696,984.7197,55.855698,37.48085,175.739,NaN,,0.0087,2.0,85.4569,29 / 29,,3460,2021-05-20 22:06:44:993
0.435758,0.418998,9.61062,0.421505,0.378316,9.79028,-0.014256,-0.008007,-0.013152,-13.98,-3.6,-42.78,100.9369,-2.1737,-2.4696,984.7197,55.855698,37.48085,175.739,NaN,,0.0087,2.0,85.4569,29 / 29,,3469,2021-05-20 22:06:45:002
0.435758,0.418998,9.61062,0.421702,0.383438,9.790073,-0.028917,-0.003731,-0.008265,-13.44,-2.88,-43.08,100.9369,-2.1737,-2.4696,984.7197,55.855698,37.48085,175.739,NaN,,0.0087,2.0,85.4569,29 / 29,,3479,2021-05-20 22:06:45:012
0.411815,0.361536,9.687236,0.421702,0.383438,9.790073,-0.028917,-0.003731,-0.008265,-13.44,-2.88,-43.08,100.9369,-2.1737,-2.4696,984.7197,55.855698,37.48085,175.739,NaN,,0.0087,2.0,85.4569,29 / 29,,3490,2021-05-20 22:06:45:023
0.378295,0.325621,9.814133,0.421262,0.382525,9.790128,-0.035636,-0.004342,-0.003989,-13.2,-2.82,-43.2,96.6378,-2.2408,-2.4665,984.7244,55.855698,37.48085,175.739,NaN,,0.0087,2.0,85.4569,29 / 29,,3500,2021-05-20 22:06:45:033
0.41421,0.332804,9.933846,0.421262,0.382525,9.790128,-0.027695,-0.00312,-9.35E-4,-13.2,-2.82,-43.2,96.6378,-2.2408,-2.4665,984.7244,55.855698,37.48085,175.739,NaN,,0.0087,2.0,85.4569,29 / 29,,3509,2021-05-20 22:06:45:042
0.411815,0.342381,9.895537,0.419769,0.377433,9.790389,-0.011812,0.001767,2.87E-4,-13.5,-2.88,-42.78,96.6378,-2.2408,-2.4665,984.7244,55.855698,37.48085,175.739,NaN,,0.0087,2.0,85.4569,29 / 29,,3520,2021-05-20 22:06:45:053
0.411815,0.342381,9.895537,0.419769,0.377433,9.790389,0.010179,-0.007396,-3.24E-4,-13.5,-2.88,-42.78,96.6378,-2.2408,-2.4665,984.7244,55.855698,37.48085,175.739,NaN,,0.0087,2.0,85.4569,29 / 29,,3529,2021-05-20 22:06:45:062
0.359141,0.337593,9.830893,0.417498,0.375188,9.790573,0.02545,-0.017781,0.010061,-13.86,-3.24,-43.02,96.2087,-2.2057,-2.4551,984.7244,55.855698,37.48085,175.739,NaN,,0.0087,2.0,85.4569,29 / 29,,3539,2021-05-20 22:06:45:072
0.411815,0.378295,9.70639,0.417498,0.375188,9.790573,0.026672,-0.024501,0.014948,-13.86,-3.24,-43.02,96.2087,-2.2057,-2.4551,984.7244,55.855698,37.48085,175.739,NaN,,0.0087,2.0,85.4569,29 / 29,,3549,2021-05-20 22:06:45:082
0.478855,0.39745,9.641745,0.416768,0.376404,9.790558,0.017509,-0.024501,0.012504,-14.22,-3.78,-42.96,96.2087,-2.2057,-2.4551,984.7244,55.855698,37.48085,175.739,NaN,,0.0087,2.0,85.4569,29 / 29,,3559,2021-05-20 22:06:45:092
0.478855,0.39745,9.641745,0.416768,0.376404,9.790558,-0.006315,-0.011672,0.008839,-14.22,-3.78,-42.96,96.2087,-2.2057,-2.4551,984.7244,55.855698,37.48085,175.739,NaN,,0.0087,2.0,85.4569,29 / 29,,3570,2021-05-20 22:06:45:103
0.5435,0.438152,9.696813,0.420077,0.376823,9.7904,-0.026473,-0.001288,0.008228,-14.88,-3.6,-42.6,100.015,-2.1997,-2.4375,984.7244,55.855698,37.48085,175.739,NaN,,0.0087,2.0,85.4569,29 / 29,,3579,2021-05-20 22:06:45:112
0.524346,0.407027,9.809344,0.420077,0.376823,9.7904,-0.019754,0.002988,0.005785,-14.88,-3.6,-42.6,100.015,-2.1997,-2.4375,984.7244,55.855698,37.48085,175.739,NaN,,0.0087,2.0,85.4569,29 / 29,,3589,2021-05-20 22:06:45:122
0.512375,0.430969,9.878778,0.425731,0.374076,9.790261,-0.003871,-0.00312,0.00212,-14.46,-3.42,-42.84,100.015,-2.1997,-2.4375,984.7305,55.855698,37.48085,175.739,NaN,,0.0087,2.0,85.4569,29 / 29,,3599,2021-05-20 22:06:45:132
0.5435,0.440547,9.842864,0.425731,0.374076,9.790261,-0.003871,-0.00312,0.00212,-14.46,-3.42,-42.84,100.015,-2.1997,-2.4375,984.7305,55.855698,37.48085,175.739,NaN,,0.0087,2.0,85.4569,29 / 29,,3609,2021-05-20 22:06:45:142
0.5435,0.440547,9.842864,0.433389,0.377246,9.789804,0.012011,-0.008618,-0.005211,-13.44,-3.72,-42.96,101.8683,-2.1861,-2.4899,984.7305,55.855698,37.48085,175.739,NaN,,0.0087,2.0,85.4569,29 / 29,,3619,2021-05-20 22:06:45:152
0.555472,0.457306,9.802161,0.433389,0.377246,9.789804,0.013233,-0.007396,-0.010708,-13.44,-3.72,-42.96,101.8683,-2.1861,-2.4899,984.7305,55.855698,37.48085,175.739,NaN,,0.0087,2.0,85.4569,29 / 29,,3629,2021-05-20 22:06:45:162
0.512375,0.457306,9.737515,0.445638,0.385941,9.788914,0.01079,0.001156,-0.014374,-13.62,-3.48,-42.96,101.8683,-2.1861,-2.4899,984.7305,55.855698,37.48085,175.739,NaN,,0.0087,2.0,85.4569,29 / 29,,3639,2021-05-20 22:06:45:172
0.557866,0.469278,9.727939,0.445638,0.385941,9.788914,-0.002038,0.00421,-0.015595,-13.62,-3.48,-42.96,101.8683,-2.1861,-2.4899,984.7305,55.855698,37.48085,175.739,NaN,,0.0087,2.0,85.4569,29 / 29,,3649,2021-05-20 22:06:45:182
0.5435,0.488432,9.75667,0.455563,0.39367,9.78815,-0.008147,0.013373,-0.022926,-13.68,-3.36,-43.26,96.0834,-2.2555,-2.6066,984.7305,55.855698,37.48085,175.739,NaN,,0.0087,2.0,85.4569,29 / 29,,3660,2021-05-20 22:06:45:193
0.5435,0.488432,9.75667,0.455563,0.39367,9.78815,-0.010591,0.015206,-0.029034,-13.68,-3.36,-43.26,96.0834,-2.2555,-2.6066,984.7305,55.855698,37.48085,175.739,NaN,,0.0087,2.0,85.4569,29 / 29,,3669,2021-05-20 22:06:45:202
0.495615,0.462095,9.735122,0.464446,0.400923,9.787437,-0.005704,0.013984,-0.033921,-13.68,-2.88,-43.08,96.0834,-2.2555,-2.6066,984.7305,55.855698,37.48085,175.739,NaN,,0.0087,2.0,85.4569,29 / 29,,3679,2021-05-20 22:06:45:212
0.447729,0.462095,9.713573,0.464446,0.400923,9.787437,-0.00326,0.006654,-0.035143,-13.68,-2.88,-43.08,96.0834,-2.2555,-2.6066,984.7305,55.855698,37.48085,175.739,NaN,,0.0087,2.0,85.4569,29 / 29,,3690,2021-05-20 22:06:45:223
0.459701,0.433364,9.672871,0.470691,0.409372,9.78679,-0.019143,-0.00312,-0.043084,-13.8,-2.64,-42.6,95.8045,-2.3431,-2.7168,984.7307,55.855698,37.48085,175.739,NaN,,0.0087,2.0,85.4569,29 / 29,,3700,2021-05-20 22:06:45:233
0.459701,0.433364,9.672871,0.470691,0.409372,9.78679,-0.035636,0.006043,-0.04736,-13.8,-2.64,-42.6,95.8045,-2.3431,-2.7168,984.7307,55.855698,37.48085,175.739,NaN,,0.0087,2.0,85.4569,29 / 29,,3710,2021-05-20 22:06:45:243
0.373507,0.407027,9.818921,0.474328,0.413117,9.786457,-0.041134,0.012762,-0.043695,-14.22,-3.36,-42.9,95.8045,-2.3431,-2.7168,984.7307,55.855698,37.48085,175.739,NaN,,0.0087,2.0,85.4569,29 / 29,,3720,2021-05-20 22:06:45:253
0.342381,0.33041,9.871595,0.474328,0.413117,9.786457,-0.03808,0.015817,-0.035754,-14.22,-3.36,-42.9,95.8045,-2.3431,-2.7168,984.7307,55.855698,37.48085,175.739,NaN,,0.0087,2.0,85.4569,29 / 29,,3729,2021-05-20 22:06:45:262
0.337593,0.311256,9.914692,0.468903,0.410406,9.786832,-0.033803,0.009708,-0.028424,-14.82,-3.66,-43.14,99.4901,-2.4144,-2.7748,984.7307,55.855698,37.48085,175.739,NaN,,0.0087,2.0,85.4569,29 / 29,,3740,2021-05-20 22:06:45:273
0.337593,0.311256,9.914692,0.468903,0.410406,9.786832,-0.033803,0.009708,-0.028424,-14.82,-3.66,-43.14,99.4901,-2.4144,-2.7748,984.7307,55.855698,37.48085,175.739,NaN,,0.0087,2.0,85.4569,29 / 29,,3749,2021-05-20 22:06:45:282
0.366324,0.311256,9.912297,0.459588,0.403865,9.787546,-0.016088,0.002988,-0.02598,-14.64,-3.54,-43.02,99.4901,-2.4144,-2.7748,984.7307,55.855698,37.48085,175.739,NaN,,0.0087,2.0,85.4569,29 / 29,,3759,2021-05-20 22:06:45:292
0.366324,0.311256,9.830893,0.459588,0.403865,9.787546,0.004681,-0.00312,-0.013152,-14.64,-3.54,-43.02,99.4901,-2.4144,-2.7748,984.7307,55.855698,37.48085,175.739,NaN,,0.0087,2.0,85.4569,29 / 29,,3769,2021-05-20 22:06:45:302
0.385478,0.34717,9.761458,0.44971,0.39835,9.788231,0.00407,-0.001899,-0.008265,-14.16,-3.42,-43.02,95.733,-2.3603,-2.6884,984.7307,55.855698,37.48085,175.739,NaN,,0.0087,2.0,85.4569,29 / 29,,3780,2021-05-20 22:06:45:313
0.385478,0.34717,9.761458,0.44971,0.39835,9.788231,0.00407,-0.001899,-0.008265,-14.16,-3.42,-43.02,95.733,-2.3603,-2.6884,984.7307,55.855698,37.48085,175.739,NaN,,0.0087,2.0,85.4569,29 / 29,,3789,2021-05-20 22:06:45:322
0.399844,0.392661,9.737515,0.440278,0.392106,9.788912,-0.004482,0.002988,-0.0046,-14.28,-3.24,-42.9,95.733,-2.3603,-2.6884,984.7332,55.855698,37.48085,175.739,NaN,,0.0087,2.0,85.4569,29 / 29,,3799,2021-05-20 22:06:45:332
0.36393,0.41421,9.715967,0.440278,0.392106,9.788912,-0.010591,0.003599,-0.005211,-14.28,-3.24,-42.9,95.733,-2.3603,-2.6884,984.7332,55.855698,37.48085,175.739,NaN,,0.0087,2.0,85.4569,29 / 29,,3809,2021-05-20 22:06:45:342
0.361536,0.407027,9.668081,0.4315,0.386615,9.789521,-0.010591,-0.004953,0.00212,-14.22,-3.54,-42.9,100.5921,-2.2915,-2.5753,984.7332,55.855698,37.48085,175.739,NaN,,0.0087,2.0,85.4569,29 / 29,,3819,2021-05-20 22:06:45:352
0.361536,0.407027,9.668081,0.4315,0.386615,9.789521,-0.011201,-0.011062,0.004563,-14.22,-3.54,-42.9,100.5921,-2.2915,-2.5753,984.7332,55.855698,37.48085,175.739,NaN,,0.0087,2.0,85.4569,29 / 29,,3829,2021-05-20 22:06:45:362
0.404632,0.442941,9.720756,0.425137,0.384225,9.789894,-0.014867,-0.019003,0.002731,-14.4,-3.84,-43.26,100.5921,-2.2915,-2.5753,984.7332,55.855698,37.48085,175.739,NaN,,0.0087,2.0,85.4569,29 / 29,,3839,2021-05-20 22:06:45:372
0.457306,0.41421,9.75667,0.425137,0.384225,9.789894,-0.018532,-0.012894,2.87E-4,-14.4,-3.84,-43.26,100.5921,-2.2915,-2.5753,984.7332,55.855698,37.48085,175.739,NaN,,0.0087,2.0,85.4569,29 / 29,,3849,2021-05-20 22:06:45:382
0.469278,0.409421,9.799767,0.423067,0.383979,9.789993,-0.026473,-0.012283,2.87E-4,-14.34,-3.48,-43.38,96.0783,-2.2454,-2.4866,984.7332,55.855698,37.48085,175.739,NaN,,0.0087,2.0,85.4569,29 / 29,,3860,2021-05-20 22:06:45:393
0.469278,0.409421,9.799767,0.423067,0.383979,9.789993,-0.021586,-0.00984,-0.003378,-14.34,-3.48,-43.38,96.0783,-2.2454,-2.4866,984.7332,55.855698,37.48085,175.739,NaN,,0.0087,2.0,85.4569,29 / 29,,3869,2021-05-20 22:06:45:402
0.457306,0.402238,9.866806,0.424201,0.383145,9.789977,-0.008147,-0.015338,-0.007654,-13.8,-3.42,-43.02,96.0783,-2.2454,-2.4866,984.7332,55.855698,37.48085,175.739,NaN,,0.0087,2.0,85.4569,29 / 29,,3879,2021-05-20 22:06:45:412
0.418998,0.392661,9.866806,0.424201,0.383145,9.789977,0.002238,-0.014727,-0.012541,-13.8,-3.42,-43.02,96.0783,-2.2454,-2.4866,984.7332,55.855698,37.48085,175.739,NaN,,0.0087,2.0,85.4569,29 / 29,,3890,2021-05-20 22:06:45:423
0.426181,0.375901,9.838076,0.426606,0.385654,9.789774,0.007735,-0.015338,-0.011319,-13.62,-2.88,-43.08,96.0989,-2.2391,-2.4811,984.7268,55.855698,37.48085,175.739,NaN,,0.0087,2.0,85.4569,29 / 29,,3899,2021-05-20 22:06:45:432
0.392661,0.373507,9.744699,0.426606,0.385654,9.789774,0.007735,-0.015338,-0.011319,-13.62,-2.88,-43.08,96.0989,-2.2391,-2.4811,984.7268,55.855698,37.48085,175.739,NaN,,0.0087,2.0,85.4569,29 / 29,,3909,2021-05-20 22:06:45:442
0.392661,0.373507,9.744699,0.428278,0.38917,9.789561,0.004681,-0.012894,-0.012541,-13.8,-2.82,-43.08,96.0989,-2.2391,-2.4811,984.7268,55.855698,37.48085,175.739,NaN,,0.0087,2.0,85.4569,29 / 29,,3919,2021-05-20 22:06:45:452
0.41421,0.392661,9.684841,0.428278,0.38917,9.789561,-0.006925,-0.009229,-0.011319,-13.8,-2.82,-43.08,96.0989,-2.2391,-2.4811,984.7268,55.855698,37.48085,175.739,NaN,,0.0087,2.0,85.4569,29 / 29,,3929,2021-05-20 22:06:45:462
0.440547,0.385478,9.677659,0.428825,0.390012,9.789504,-0.02403,-0.001288,-0.010098,-13.92,-3.6,-43.02,100.609,-2.2743,-2.505,984.7268,55.855698,37.48085,175.739,NaN,,0.0087,2.0,85.4569,29 / 29,,3940,2021-05-20 22:06:45:473
0.471672,0.366324,9.761458,0.428825,0.390012,9.789504,-0.044799,0.001767,-0.014374,-13.92,-3.6,-43.02,100.609,-2.2743,-2.505,984.7268,55.855698,37.48085,175.739,NaN,,0.0087,2.0,85.4569,29 / 29,,3949,2021-05-20 22:06:45:482
0.471672,0.366324,9.761458,0.428475,0.384603,9.789733,-0.049075,0.014595,-0.017428,-14.04,-3.84,-43.02,100.609,-2.2743,-2.505,984.7268,55.855698,37.48085,175.739,NaN,,0.0087,2.0,85.4569,29 / 29,,3959,2021-05-20 22:06:45:492
0.409421,0.368718,9.830893,0.428475,0.384603,9.789733,-0.040523,0.013984,-0.021704,-14.04,-3.84,-43.02,100.609,-2.2743,-2.505,984.7268,55.855698,37.48085,175.739,NaN,,0.0087,2.0,85.4569,29 / 29,,3969,2021-05-20 22:06:45:502
0.385478,0.301679,9.802161,0.426388,0.376893,9.790124,-0.025251,0.001156,-0.023537,-14.16,-3.54,-42.72,100.7027,-2.2476,-2.5061,984.7268,55.855698,37.48085,175.739,NaN,,0.0087,2.0,85.4569,29 / 29,,3980,2021-05-20 22:06:45:513
0.38069,0.284919,9.778218,0.426388,0.376893,9.790124,-0.020364,-0.00312,-0.031478,-14.16,-3.54,-42.72,100.7027,-2.2476,-2.5061,984.7268,55.855698,37.48085,175.739,NaN,,0.0087,2.0,85.4569,29 / 29,,3990,2021-05-20 22:06:45:523
0.385478,0.284919,9.75667,0.425383,0.3703,9.79042,-0.023419,-0.001288,-0.0327,-14.16,-3.24,-42.9,100.7027,-2.2476,-2.5061,984.729,55.855698,37.48085,175.739,NaN,,0.0087,2.0,85.4569,29 / 29,,4000,2021-05-20 22:06:45:533
0.385478,0.284919,9.75667,0.425383,0.3703,9.79042,-0.023419,-0.001288,-0.0327,-14.16,-3.24,-42.9,100.7027,-2.2476,-2.5061,984.729,55.855698,37.48085,175.739,NaN,,0.0087,2.0,85.4569,29 / 29,,4009,2021-05-20 22:06:45:542
0.292102,0.234639,9.785401,0.422824,0.36112,9.790873,-0.036858,0.010319,-0.025369,-14.28,-3.12,-42.96,96.3685,-2.164,-2.4879,984.729,55.855698,37.48085,175.739,NaN,,0.0087,2.0,85.4569,29 / 29,,4019,2021-05-20 22:06:45:552
0.189148,0.237033,9.749487,0.422824,0.36112,9.790873,-0.036858,0.022536,-0.011319,-14.28,-3.12,-42.96,96.3685,-2.164,-2.4879,984.729,55.855698,37.48085,175.739,NaN,,0.0087,2.0,85.4569,29 / 29,,4029,2021-05-20 22:06:45:562
0.189148,0.237033,9.749487,0.410443,0.345445,9.791965,-0.030749,0.020703,0.003952,-14.04,-2.76,-42.78,96.3685,-2.164,-2.4879,984.729,55.855698,37.48085,175.739,NaN,,0.0087,2.0,85.4569,29 / 29,,4039,2021-05-20 22:06:45:572
0.174782,0.301679,9.624985,0.410443,0.345445,9.791965,-0.02403,0.002988,0.020446,-14.04,-2.76,-42.78,96.3685,-2.164,-2.4879,984.729,55.855698,37.48085,175.739,NaN,,0.0087,2.0,85.4569,29 / 29,,4050,2021-05-20 22:06:45:583
0.222668,0.323227,9.553157,0.391464,0.332062,9.793205,-0.025251,-0.012894,0.027165,-13.56,-3.6,-43.56,101.3067,-2.0187,-2.4002,984.729,55.855698,37.48085,175.739,NaN,,0.0087,2.0,85.4569,29 / 29,,4059,2021-05-20 22:06:45:592
0.301679,0.31365,9.562734,0.391464,0.332062,9.793205,-0.04541,-0.020225,0.033885,-13.56,-3.6,-43.56,101.3067,-2.0187,-2.4002,984.729,55.855698,37.48085,175.739,NaN,,0.0087,2.0,85.4569,29 / 29,,4069,2021-05-20 22:06:45:602
0.390267,0.29689,9.732727,0.376824,0.321469,9.794133,-0.071677,-0.020225,0.033885,-13.2,-3.78,-43.68,101.3067,-2.0187,-2.4002,984.729,55.855698,37.48085,175.739,NaN,,0.0087,2.0,85.4569,29 / 29,,4079,2021-05-20 22:06:45:612
0.390267,0.29689,9.732727,0.376824,0.321469,9.794133,-0.080229,-0.012283,0.039382,-13.2,-3.78,-43.68,101.3067,-2.0187,-2.4002,984.729,55.855698,37.48085,175.739,NaN,,0.0087,2.0,85.4569,29 / 29,,4090,2021-05-20 22:06:45:623
0.464489,0.258582,9.962578,0.368958,0.306731,9.794906,-0.065568,-0.006175,0.041826,-13.92,-2.76,-42.72,97.2629,-1.8785,-2.2033,984.7295,55.855698,37.48085,175.739,NaN,,0.0087,2.0,85.4569,29 / 29,,4100,2021-05-20 22:06:45:633
0.445335,0.272947,10.063137,0.368958,0.306731,9.794906,-0.03869,-0.011062,0.036328,-13.92,-2.76,-42.72,97.2629,-1.8785,-2.2033,984.7295,55.855698,37.48085,175.739,NaN,,0.0087,2.0,85.4569,29 / 29,,4109,2021-05-20 22:06:45:642
0.476461,0.251399,10.048771,0.367285,0.293293,9.79538,0.005292,-0.027555,0.036328,-14.16,-2.94,-42.6,97.2629,-1.8785,-2.2033,984.7295,55.855698,37.48085,175.739,NaN,,0.0087,2.0,85.4569,29 / 29,,4119,2021-05-20 22:06:45:652
0.476461,0.251399,10.048771,0.367285,0.293293,9.79538,0.005292,-0.027555,0.036328,-14.16,-2.94,-42.6,97.2629,-1.8785,-2.2033,984.7295,55.855698,37.48085,175.739,NaN,,0.0087,2.0,85.4569,29 / 29,,4129,2021-05-20 22:06:45:662
0.521952,0.351958,9.955395,0.375916,0.290915,9.795123,0.031559,-0.041605,0.036328,-14.28,-2.94,-43.14,97.8097,-1.7138,-2.1473,984.7295,55.855698,37.48085,175.739,NaN,,0.0087,2.0,85.4569,29 / 29,,4139,2021-05-20 22:06:45:672
0.555472,0.402238,9.823709,0.375916,0.290915,9.795123,0.040722,-0.040994,0.028998,-14.28,-2.94,-43.14,97.8097,-1.7138,-2.1473,984.7295,55.855698,37.48085,175.739,NaN,,0.0087,2.0,85.4569,29 / 29,,4150,2021-05-20 22:06:45:683
0.52674,0.466884,9.720756,0.392772,0.299281,9.79421,0.033392,-0.040994,0.022278,-14.46,-2.52,-43.26,97.8097,-1.7138,-2.1473,984.7295,55.855698,37.48085,175.739,NaN,,0.0087,2.0,85.4569,29 / 29,,4159,2021-05-20 22:06:45:692
0.581809,0.462095,9.713573,0.392772,0.299281,9.79421,0.019342,-0.034885,0.019835,-14.46,-2.52,-43.26,97.8097,-1.7138,-2.1473,984.7295,55.855698,37.48085,175.739,NaN,,0.0087,2.0,85.4569,29 / 29,,4169,2021-05-20 22:06:45:702
0.581809,0.462095,9.713573,0.405653,0.306739,9.793454,0.001627,-0.028166,0.018613,-14.04,-2.76,-43.08,97.7544,-1.7488,-2.2965,984.7295,55.855698,37.48085,175.739,NaN,,0.0087,2.0,85.4569,29 / 29,,4179,2021-05-20 22:06:45:712
0.634483,0.459701,9.799767,0.405653,0.306739,9.793454,-0.011201,-0.026333,0.007007,-14.04,-2.76,-43.08,97.7544,-1.7488,-2.2965,984.7295,55.855698,37.48085,175.739,NaN,,0.0087,2.0,85.4569,29 / 29,,4189,2021-05-20 22:06:45:722
0.620117,0.421392,9.921875,0.411233,0.30598,9.793244,-0.010591,-0.015338,-0.003378,-14.16,-2.34,-43.08,97.7544,-1.7488,-2.2965,984.7319,55.855698,37.48085,175.739,NaN,,0.0087,2.0,85.4569,29 / 29,,4199,2021-05-20 22:06:45:732
0.636877,0.418998,9.90272,0.411233,0.30598,9.793244,-2.06E-4,-0.005564,-0.008876,-14.16,-2.34,-43.08,97.7544,-1.7488,-2.2965,984.7319,55.855698,37.48085,175.739,NaN,,0.0087,2.0,85.4569,29 / 29,,4209,2021-05-20 22:06:45:742
0.636877,0.418998,9.90272,0.413495,0.305146,9.793176,0.012011,-0.006785,-0.027813,-14.82,-2.22,-42.48,92.9007,-1.788,-2.4045,984.7319,55.855698,37.48085,175.739,NaN,,0.0087,2.0,85.4569,29 / 29,,4219,2021-05-20 22:06:45:752
0.64406,0.445335,9.821315,0.413495,0.305146,9.793176,0.014455,-0.003731,-0.049804,-14.82,-2.22,-42.48,92.9007,-1.788,-2.4045,984.7319,55.855698,37.48085,175.739,NaN,,0.0087,2.0,85.4569,29 / 29,,4230,2021-05-20 22:06:45:763
0.572232,0.402238,9.763853,0.414675,0.308371,9.793026,0.016288,-0.005564,-0.060189,-14.82,-2.7,-42.12,92.9007,-1.788,-2.4045,984.7319,55.855698,37.48085,175.739,NaN,,0.0087,2.0,85.4569,29 / 29,,4239,2021-05-20 22:06:45:772
0.426181,0.328016,9.718362,0.414675,0.308371,9.793026,0.008957,-0.002509,-0.058356,-14.82,-2.7,-42.12,92.9007,-1.788,-2.4045,984.7319,55.855698,37.48085,175.739,NaN,,0.0087,2.0,85.4569,29 / 29,,4249,2021-05-20 22:06:45:782
0.426181,0.328016,9.718362,0.415565,0.311766,9.79288,-2.06E-4,5.45E-4,-0.054691,-14.04,-2.94,-42.72,97.6248,-1.802,-2.4247,984.7319,55.855698,37.48085,175.739,NaN,,0.0087,2.0,85.4569,29 / 29,,4260,2021-05-20 22:06:45:793
0.416604,0.311256,9.684841,0.415565,0.311766,9.79288,-0.00998,0.002377,-0.052247,-14.04,-2.94,-42.72,97.6248,-1.802,-2.4247,984.7319,55.855698,37.48085,175.739,NaN,,0.0087,2.0,85.4569,29 / 29,,4269,2021-05-20 22:06:45:802
0.383084,0.275342,9.660899,0.415123,0.312358,9.792879,-0.012423,-6.77E-4,-0.045528,-13.8,-2.7,-42.78,97.6248,-1.802,-2.4247,984.7319,55.855698,37.48085,175.739,NaN,,0.0087,2.0,85.4569,29 / 29,,4279,2021-05-20 22:06:45:812
0.38069,0.268159,9.737515,0.415123,0.312358,9.792879,-0.008758,-0.006175,-0.041252,-13.8,-2.7,-42.78,97.6248,-1.802,-2.4247,984.7319,55.855698,37.48085,175.739,NaN,,0.0087,2.0,85.4569,29 / 29,,4289,2021-05-20 22:06:45:822
0.38069,0.268159,9.737515,0.414946,0.31022,9.792954,-0.008758,-0.006175,-0.041252,-13.98,-2.04,-42.6,92.8783,-1.8253,-2.4273,984.7202,55.855698,37.48085,175.739,NaN,,0.0087,2.0,85.4569,29 / 29,,4299,2021-05-20 22:06:45:832
0.36393,0.265765,9.737515,0.414946,0.31022,9.792954,4.05E-4,-0.010451,-0.038808,-13.98,-2.04,-42.6,92.8783,-1.8253,-2.4273,984.7202,55.855698,37.48085,175.739,NaN,,0.0087,2.0,85.4569,29 / 29,,4309,2021-05-20 22:06:45:842
0.445335,0.205908,9.708784,0.416893,0.309911,9.792882,-0.003871,-0.01717,-0.029645,-13.98,-2.46,-42.6,92.8783,-1.8253,-2.4273,984.7202,55.855698,37.48085,175.739,NaN,,0.0087,2.0,85.4569,29 / 29,,4319,2021-05-20 22:06:45:852
0.466884,0.241822,9.778218,0.416893,0.309911,9.792882,-0.013645,-0.010451,-0.02598,-13.98,-2.46,-42.6,92.8783,-1.8253,-2.4273,984.7202,55.855698,37.48085,175.739,NaN,,0.0087,2.0,85.4569,29 / 29,,4330,2021-05-20 22:06:45:863
0.462095,0.22985,9.735122,0.422754,0.306977,9.792724,-0.011201,-0.001899,-0.026591,-13.86,-3.24,-42.72,97.5988,-1.811,-2.4377,984.7202,55.855698,37.48085,175.739,NaN,,0.0087,2.0,85.4569,29 / 29,,4339,2021-05-20 22:06:45:872
0.462095,0.22985,9.735122,0.422754,0.306977,9.792724,-0.013034,-0.002509,-0.023537,-13.86,-3.24,-42.72,97.5988,-1.811,-2.4377,984.7202,55.855698,37.48085,175.739,NaN,,0.0087,2.0,85.4569,29 / 29,,4349,2021-05-20 22:06:45:882
0.442941,0.258582,9.780613,0.429635,0.299951,9.792642,-0.013645,-0.005564,-0.023537,-14.1,-3.12,-42.66,97.5988,-1.811,-2.4377,984.7202,55.855698,37.48085,175.739,NaN,,0.0087,2.0,85.4569,29 / 29,,4360,2021-05-20 22:06:45:893
0.411815,0.306467,9.79019,0.429635,0.299951,9.792642,-0.002649,-0.012894,-0.019261,-14.1,-3.12,-42.66,97.5988,-1.811,-2.4377,984.7202,55.855698,37.48085,175.739,NaN,,0.0087,2.0,85.4569,29 / 29,,4369,2021-05-20 22:06:45:902
0.442941,0.356747,9.761458,0.434838,0.295204,9.792556,0.002848,-0.012894,-0.015595,-13.92,-2.46,-42.96,93.1516,-1.7527,-2.5121,984.7202,55.855698,37.48085,175.739,NaN,,0.0087,2.0,85.4569,29 / 29,,4379,2021-05-20 22:06:45:912
0.459701,0.387873,9.672871,0.434838,0.295204,9.792556,0.001016,-0.011672,-0.01865,-13.92,-2.46,-42.96,93.1516,-1.7527,-2.5121,984.7202,55.855698,37.48085,175.739,NaN,,0.0087,2.0,85.4569,29 / 29,,4389,2021-05-20 22:06:45:922
0.459701,0.387873,9.672871,0.438088,0.296952,9.792358,-0.008758,-0.015948,-0.018039,-13.5,-2.7,-42.78,93.1516,-1.7527,-2.5121,984.7161,55.855698,37.48085,175.739,NaN,,0.0087,2.0,85.4569,29 / 29,,4399,2021-05-20 22:06:45:932
0.524346,0.361536,9.684841,0.438088,0.296952,9.792358,-0.032582,-0.009229,-0.018039,-13.5,-2.7,-42.78,93.1516,-1.7527,-2.5121,984.7161,55.855698,37.48085,175.739,NaN,,0.0087,2.0,85.4569,29 / 29,,4409,2021-05-20 22:06:45:942
0.555472,0.320833,9.830893,0.444521,0.29777,9.792044,-0.047242,0.005432,-0.018039,-13.38,-3.12,-42.48,98.7527,-1.7352,-2.5616,984.7161,55.855698,37.48085,175.739,NaN,,0.0087,2.0,85.4569,29 / 29,,4419,2021-05-20 22:06:45:952
0.6273,0.299284,9.984126,0.444521,0.29777,9.792044,-0.052129,0.014595,-0.023537,-13.38,-3.12,-42.48,98.7527,-1.7352,-2.5616,984.7161,55.855698,37.48085,175.739,NaN,,0.0087,2.0,85.4569,29 / 29,,4429,2021-05-20 22:06:45:962
0.6273,0.299284,9.984126,0.451658,0.293213,9.791854,-0.029527,0.01826,-0.029645,-13.68,-3.12,-42.6,98.7527,-1.7352,-2.5616,984.7161,55.855698,37.48085,175.739,NaN,,0.0087,2.0,85.4569,29 / 29,,4439,2021-05-20 22:06:45:972
0.620117,0.306467,10.048771,0.451658,0.293213,9.791854,0.007125,0.01093,-0.04003,-13.68,-3.12,-42.6,98.7527,-1.7352,-2.5616,984.7161,55.855698,37.48085,175.739,NaN,,0.0087,2.0,85.4569,29 / 29,,4449,2021-05-20 22:06:45:982
0.548289,0.339987,9.909904,0.461657,0.293633,9.791375,0.028505,-0.004953,-0.044306,-14.52,-3.06,-42.42,97.5243,-1.7134,-2.6409,984.7161,55.855698,37.48085,175.739,NaN,,0.0087,2.0,85.4569,29 / 29,,4459,2021-05-20 22:06:45:992
0.517163,0.368718,9.696813,0.461657,0.293633,9.791375,0.03217,-0.015338,-0.041252,-14.52,-3.06,-42.42,97.5243,-1.7134,-2.6409,984.7161,55.855698,37.48085,175.739,NaN,,0.0087,2.0,85.4569,29 / 29,,4469,2021-05-20 22:06:46:002
0.517163,0.395055,9.57231,0.474539,0.30399,9.790443,0.015066,-0.01717,-0.042473,-14.16,-3.54,-42.3,97.5243,-1.7134,-2.6409,984.7161,55.855698,37.48085,175.739,NaN,,0.0087,2.0,85.4569,29 / 29,,4480,2021-05-20 22:06:46:013
0.517163,0.395055,9.57231,0.474539,0.30399,9.790443,-0.016088,-0.008618,-0.042473,-14.16,-3.54,-42.3,97.5243,-1.7134,-2.6409,984.7161,55.855698,37.48085,175.739,NaN,,0.0087,2.0,85.4569,29 / 29,,4490,2021-05-20 22:06:46:023
0.517163,0.399844,9.598648,0.486776,0.314386,9.789515,-0.016088,-0.008618,-0.042473,-13.5,-3.36,-42.72,98.5936,-1.7764,-2.7749,984.7229,55.855698,37.48085,175.739,NaN,,0.0087,2.0,85.4569,29 / 29,,4499,2021-05-20 22:06:46:032
0.512375,0.387873,9.680053,0.486776,0.314386,9.789515,-0.042966,0.00421,-0.038197,-13.5,-3.36,-42.72,98.5936,-1.7764,-2.7749,984.7229,55.855698,37.48085,175.739,NaN,,0.0087,2.0,85.4569,29 / 29,,4510,2021-05-20 22:06:46:043
0.512375,0.387873,9.680053,0.493968,0.31786,9.789042,-0.050297,-0.009229,-0.038197,-13.8,-2.76,-43.14,98.5936,-1.7764,-2.7749,984.7229,55.855698,37.48085,175.739,NaN,,0.0087,2.0,85.4569,29 / 29,,4519,2021-05-20 22:06:46:052
0.536318,0.33041,9.842864,0.493968,0.31786,9.789042,-0.040523,-0.011672,-0.040641,-13.8,-2.76,-43.14,98.5936,-1.7764,-2.7749,984.7229,55.855698,37.48085,175.739,NaN,,0.0087,2.0,85.4569,29 / 29,,4529,2021-05-20 22:06:46:062
0.512375,0.34717,9.998491,0.502092,0.318669,9.788603,-0.014867,-0.015948,-0.04736,-14.16,-3.36,-42.66,97.6338,-1.8574,-2.8888,984.7229,55.855698,37.48085,175.739,NaN,,0.0087,2.0,85.4569,29 / 29,,4540,2021-05-20 22:06:46:073
0.483644,0.332804,9.821315,0.502092,0.318669,9.788603,0.016898,-0.024501,-0.055302,-14.16,-3.36,-42.66,97.6338,-1.8574,-2.8888,984.7229,55.855698,37.48085,175.739,NaN,,0.0087,2.0,85.4569,29 / 29,,4549,2021-05-20 22:06:46:082
0.483644,0.332804,9.821315,0.508564,0.325405,9.788047,0.024229,-0.035496,-0.057745,-14.4,-3.3,-42.3,97.6338,-1.8574,-2.8888,984.7229,55.855698,37.48085,175.739,NaN,,0.0087,2.0,85.4569,29 / 29,,4560,2021-05-20 22:06:46:093
0.423787,0.356747,9.687236,0.508564,0.325405,9.788047,0.017509,-0.042827,-0.058356,-14.4,-3.3,-42.3,97.6338,-1.8574,-2.8888,984.7229,55.855698,37.48085,175.739,NaN,,0.0087,2.0,85.4569,29 / 29,,4570,2021-05-20 22:06:46:103
0.383084,0.359141,9.593859,0.51317,0.334491,9.7875,4.05E-4,-0.040994,-0.048582,-14.16,-2.76,-42.78,97.5116,-1.9015,-2.9743,984.7229,55.855698,37.48085,175.739,NaN,,0.0087,2.0,85.4569,29 / 29,,4579,2021-05-20 22:06:46:112
0.409421,0.33041,9.584282,0.51317,0.334491,9.7875,-0.020975,-0.037329,-0.04003,-14.16,-2.76,-42.78,97.5116,-1.9015,-2.9743,984.7229,55.855698,37.48085,175.739,NaN,,0.0087,2.0,85.4569,29 / 29,,4589,2021-05-20 22:06:46:122
0.486038,0.323227,9.665688,0.512603,0.33886,9.787379,-0.047242,-0.024501,-0.037587,-13.98,-2.76,-42.66,97.5116,-1.9015,-2.9743,984.7178,55.855698,37.48085,175.739,NaN,,0.0087,2.0,85.4569,29 / 29,,4600,2021-05-20 22:06:46:133
0.486038,0.323227,9.665688,0.512603,0.33886,9.787379,-0.063736,-0.015338,-0.040641,-13.98,-2.76,-42.66,97.5116,-1.9015,-2.9743,984.7178,55.855698,37.48085,175.739,NaN,,0.0087,2.0,85.4569,29 / 29,,4609,2021-05-20 22:06:46:142
0.567443,0.275342,9.900327,0.509399,0.333633,9.787726,-0.063736,-0.015338,-0.040641,-14.28,-3.42,-42.48,97.3671,-1.9802,-2.9981,984.7178,55.855698,37.48085,175.739,NaN,,0.0087,2.0,85.4569,29 / 29,,4620,2021-05-20 22:06:46:153
0.569837,0.244216,10.048771,0.509399,0.333633,9.787726,-0.058238,-0.007396,-0.046139,-14.28,-3.42,-42.48,97.3671,-1.9802,-2.9981,984.7178,55.855698,37.48085,175.739,NaN,,0.0087,2.0,85.4569,29 / 29,,4629,2021-05-20 22:06:46:162
0.509981,0.208302,10.10384,0.508407,0.322917,9.788137,-0.036247,-0.00984,-0.050415,-14.7,-3.72,-43.32,97.3671,-1.9802,-2.9981,984.7178,55.855698,37.48085,175.739,NaN,,0.0087,2.0,85.4569,29 / 29,,4640,2021-05-20 22:06:46:173
0.509981,0.208302,10.10384,0.508407,0.322917,9.788137,0.001627,-0.014116,-0.047971,-14.7,-3.72,-43.32,97.3671,-1.9802,-2.9981,984.7178,55.855698,37.48085,175.739,NaN,,0.0087,2.0,85.4569,29 / 29,,4649,2021-05-20 22:06:46:182
0.462095,0.193936,10.089474,0.508466,0.313656,9.788435,0.014455,-0.016559,-0.043084,-14.64,-3.42,-43.5,96.9704,-1.887,-2.9733,984.7178,55.855698,37.48085,175.739,NaN,,0.0087,2.0,85.4569,29 / 29,,4659,2021-05-20 22:06:46:192
0.495615,0.234639,9.962578,0.508466,0.313656,9.788435,0.034613,-0.004953,-0.035143,-14.64,-3.42,-43.5,96.9704,-1.887,-2.9733,984.7178,55.855698,37.48085,175.739,NaN,,0.0087,2.0,85.4569,29 / 29,,4669,2021-05-20 22:06:46:202
0.476461,0.282524,9.732727,0.506163,0.308094,9.788732,0.029116,-0.007396,-0.037587,-14.34,-3.06,-42.72,96.9704,-1.887,-2.9733,984.7178,55.855698,37.48085,175.739,NaN,,0.0087,2.0,85.4569,29 / 29,,4679,2021-05-20 22:06:46:212
0.512375,0.337593,9.586677,0.504292,0.307074,9.78886,0.015677,-0.011672,-0.035754,-14.64,-3.24,-43.26,96.9704,-1.887,-2.9733,984.7178,55.855698,37.48085,175.739,NaN,,0.0087,2.0,85.4569,29 / 29,,4690,2021-05-20 22:06:46:223
0.512375,0.337593,9.586677,0.504292,0.307074,9.78886,-0.008147,-0.010451,-0.043084,-14.64,-3.24,-43.26,96.9704,-1.887,-2.9733,984.7214,55.855698,37.48085,175.739,NaN,,0.0087,2.0,85.4569,29 / 29,,4699,2021-05-20 22:06:46:232
0.488432,0.335198,9.577099,0.506006,0.31101,9.788648,-0.023419,-0.002509,-0.042473,-14.52,-3.12,-43.14,97.2003,-1.8174,-2.9592,984.7214,55.855698,37.48085,175.739,NaN,,0.0087,2.0,85.4569,29 / 29,,4709,2021-05-20 22:06:46:242
0.447729,0.299284,9.665688,0.506006,0.31101,9.788648,-0.03136,-6.77E-4,-0.039419,-14.52,-3.12,-43.14,97.2003,-1.8174,-2.9592,984.7214,55.855698,37.48085,175.739,NaN,,0.0087,2.0,85.4569,29 / 29,,4720,2021-05-20 22:06:46:253
0.407027,0.241822,9.73991,0.50341,0.305077,9.788968,-0.03136,0.002377,-0.030256,-14.52,-2.88,-42.72,97.2003,-1.8174,-2.9592,984.7214,55.855698,37.48085,175.739,NaN,,0.0087,2.0,85.4569,29 / 29,,4729,2021-05-20 22:06:46:262
0.407027,0.241822,9.73991,0.500639,0.300622,9.789248,-0.03136,0.002377,-0.030256,-14.58,-3.12,-43.02,97.2003,-1.8174,-2.9592,984.7214,55.855698,37.48085,175.739,NaN,,0.0087,2.0,85.4569,29 / 29,,4739,2021-05-20 22:06:46:272
0.440547,0.217879,9.802161,0.500639,0.300622,9.789248,-0.018532,-0.008007,-0.024758,-14.58,-3.12,-43.02,97.2003,-1.8174,-2.9592,984.7214,55.855698,37.48085,175.739,NaN,,0.0087,2.0,85.4569,29 / 29,,4749,2021-05-20 22:06:46:282
0.507586,0.225062,9.842864,0.494839,0.291536,9.789818,-0.012423,-0.011672,-0.020482,-14.34,-3.36,-43.02,98.0185,-1.7567,-2.9277,984.7214,55.855698,37.48085,175.739,NaN,,0.0087,2.0,85.4569,29 / 29,,4759,2021-05-20 22:06:46:292
0.488432,0.222668,9.804555,0.494839,0.291536,9.789818,-0.005093,-6.77E-4,-0.026591,-14.34,-3.36,-43.02,98.0185,-1.7567,-2.9277,984.7214,55.855698,37.48085,175.739,NaN,,0.0087,2.0,85.4569,29 / 29,,4770,2021-05-20 22:06:46:303
0.488432,0.222668,9.804555,0.491839,0.283847,9.790195,-0.005093,5.45E-4,-0.02598,-13.92,-3.42,-42.78,98.0185,-1.7567,-2.9277,984.7214,55.855698,37.48085,175.739,NaN,,0.0087,2.0,85.4569,29 / 29,,4779,2021-05-20 22:06:46:312
0.435758,0.191542,9.754275,0.491839,0.283847,9.790195,-0.008147,-0.00312,-0.022315,-13.92,-3.42,-42.78,98.0185,-1.7567,-2.9277,984.7214,55.855698,37.48085,175.739,NaN,,0.0087,2.0,85.4569,29 / 29,,4789,2021-05-20 22:06:46:322
0.387873,0.172388,9.783007,0.487724,0.275142,9.790648,-0.008758,-0.00312,-0.013152,-14.16,-3.24,-42.96,98.3489,-1.6586,-2.876,984.7205,55.855698,37.48085,175.739,NaN,,0.0087,2.0,85.4569,29 / 29,,4799,2021-05-20 22:06:46:332
0.390267,0.169994,9.75667,0.487724,0.275142,9.790648,-0.002038,-0.001288,8.98E-4,-14.16,-3.24,-42.96,98.3489,-1.6586,-2.876,984.7205,55.855698,37.48085,175.739,NaN,,0.0087,2.0,85.4569,29 / 29,,4810,2021-05-20 22:06:46:343
0.390267,0.169994,9.75667,0.480223,0.264426,9.791315,-0.002649,0.004821,0.011283,-14.1,-2.82,-42.84,98.3489,-1.6586,-2.876,984.7205,55.855698,37.48085,175.739,NaN,,0.0087,2.0,85.4569,29 / 29,,4819,2021-05-20 22:06:46:352
0.459701,0.232245,9.675264,0.480223,0.264426,9.791315,-0.002038,5.45E-4,0.00945,-14.1,-2.82,-42.84,98.3489,-1.6586,-2.876,984.7205,55.855698,37.48085,175.739,NaN,,0.0087,2.0,85.4569,29 / 29,,4829,2021-05-20 22:06:46:362
0.498009,0.335198,9.569917,0.472258,0.255879,9.791929,-0.005704,-0.003731,0.001509,-14.28,-2.82,-42.78,98.7234,-1.5451,-2.8079,984.7205,55.855698,37.48085,175.739,NaN,,0.0087,2.0,85.4569,29 / 29,,4839,2021-05-20 22:06:46:372
0.502798,0.268159,9.579494,0.472258,0.255879,9.791929,-0.034414,-0.020225,-0.003378,-14.28,-2.82,-42.78,98.7234,-1.5451,-2.8079,984.7205,55.855698,37.48085,175.739,NaN,,0.0087,2.0,85.4569,29 / 29,,4849,2021-05-20 22:06:46:382
0.502798,0.268159,9.579494,0.472058,0.252038,9.792039,-0.052129,-0.013505,-0.0046,-14.64,-3.54,-42.84,98.7234,-1.5451,-2.8079,984.7205,55.855698,37.48085,175.739,NaN,,0.0087,2.0,85.4569,29 / 29,,4859,2021-05-20 22:06:46:392
0.457306,0.253793,9.780613,0.472058,0.252038,9.792039,-0.055184,-0.004342,0.00212,-14.64,-3.54,-42.84,98.7234,-1.5451,-2.8079,984.7205,55.855698,37.48085,175.739,NaN,,0.0087,2.0,85.4569,29 / 29,,4869,2021-05-20 22:06:46:402
0.452518,0.203513,9.924269,0.473481,0.244055,9.792172,-0.044799,5.45E-4,0.011283,-15.12,-3.36,-42.06,98.3501,-1.4727,-2.76,984.7205,55.855698,37.48085,175.739,NaN,,0.0087,2.0,85.4569,29 / 29,,4879,2021-05-20 22:06:46:412
0.483644,0.155628,9.976943,0.473481,0.244055,9.792172,-0.026473,-0.001288,0.013726,-15.12,-3.36,-42.06,98.3501,-1.4727,-2.76,984.7205,55.855698,37.48085,175.739,NaN,,0.0087,2.0,85.4569,29 / 29,,4889,2021-05-20 22:06:46:422
0.615329,0.215485,9.981731,0.471648,0.23429,9.792499,-0.026473,-0.001288,0.013726,-15.0,-2.52,-41.82,98.3501,-1.4727,-2.76,984.7253,55.855698,37.48085,175.739,NaN,,0.0087,2.0,85.4569,29 / 29,,4899,2021-05-20 22:06:46:432
0.615329,0.215485,9.981731,0.471648,0.23429,9.792499,-0.007536,-0.001899,0.00212,-15.0,-2.52,-41.82,98.3501,-1.4727,-2.76,984.7253,55.855698,37.48085,175.739,NaN,,0.0087,2.0,85.4569,29 / 29,,4910,2021-05-20 22:06:46:443
0.591386,0.179571,9.90272,0.475661,0.230007,9.792406,-8.17E-4,-0.010451,-0.007043,-14.52,-2.7,-42.42,98.6835,-1.369,-2.7575,984.7253,55.855698,37.48085,175.739,NaN,,0.0087,2.0,85.4569,29 / 29,,4920,2021-05-20 22:06:46:453
0.486038,0.172388,9.929058,0.475661,0.230007,9.792406,0.002238,-0.007396,2.87E-4,-14.52,-2.7,-42.42,98.6835,-1.369,-2.7575,984.7253,55.855698,37.48085,175.739,NaN,,0.0087,2.0,85.4569,29 / 29,,4929,2021-05-20 22:06:46:462
0.445335,0.181965,9.921875,0.483737,0.226383,9.792095,0.005292,0.002988,0.008228,-14.28,-2.88,-42.9,98.6835,-1.369,-2.7575,984.7253,55.855698,37.48085,175.739,NaN,,0.0087,2.0,85.4569,29 / 29,,4939,2021-05-20 22:06:46:472
0.469278,0.24661,9.862018,0.483737,0.226383,9.792095,0.012011,0.012762,0.022278,-14.28,-2.88,-42.9,98.6835,-1.369,-2.7575,984.7253,55.855698,37.48085,175.739,NaN,,0.0087,2.0,85.4569,29 / 29,,4949,2021-05-20 22:06:46:482
0.469278,0.24661,9.862018,0.484845,0.222907,9.79212,0.021174,0.008486,0.025333,-14.52,-2.82,-43.02,98.7993,-1.3228,-2.8282,984.7253,55.855698,37.48085,175.739,NaN,,0.0087,2.0,85.4569,29 / 29,,4959,2021-05-20 22:06:46:492
0.505192,0.311256,9.787795,0.484845,0.222907,9.79212,0.029727,-0.001288,0.019224,-14.52,-2.82,-43.02,98.7993,-1.3228,-2.8282,984.7253,55.855698,37.48085,175.739,NaN,,0.0087,2.0,85.4569,29 / 29,,4970,2021-05-20 22:06:46:503
0.600963,0.325621,9.644139,0.485256,0.226353,9.792022,0.01812,-0.009229,0.010672,-15.0,-2.58,-42.36,98.7993,-1.3228,-2.8282,984.7253,55.855698,37.48085,175.739,NaN,,0.0087,2.0,85.4569,29 / 29,,4980,2021-05-20 22:06:46:513
0.586597,0.38069,9.665688,0.485256,0.226353,9.792022,0.007735,-0.007396,8.98E-4,-15.0,-2.58,-42.36,98.7993,-1.3228,-2.8282,984.7253,55.855698,37.48085,175.739,NaN,,0.0087,2.0,85.4569,29 / 29,,4989,2021-05-20 22:06:46:522
0.586597,0.38069,9.665688,0.493647,0.234752,9.791404,-0.004482,-0.003731,-0.002767,-14.58,-2.76,-42.12,98.871,-1.3226,-2.837,984.7302,55.855698,37.48085,175.739,NaN,,0.0087,2.0,85.4569,29 / 29,,4999,2021-05-20 22:06:46:532
0.533923,0.311256,9.672871,0.493647,0.234752,9.791404,-0.016088,-0.005564,-0.002767,-14.58,-2.76,-42.12,98.871,-1.3226,-2.837,984.7302,55.855698,37.48085,175.739,NaN,,0.0087,2.0,85.4569,29 / 29,,5009,2021-05-20 22:06:46:542
0.572232,0.323227,9.768641,0.502034,0.243734,9.790758,-0.02403,-6.6E-5,-0.008265,-14.4,-2.82,-42.54,98.871,-1.3226,-2.837,984.7302,55.855698,37.48085,175.739,NaN,,0.0087,2.0,85.4569,29 / 29,,5019,2021-05-20 22:06:46:552
0.56026,0.272947,9.979338,0.502034,0.243734,9.790758,-0.013645,0.013984,-0.011319,-14.4,-2.82,-42.54,98.871,-1.3226,-2.837,984.7302,55.855698,37.48085,175.739,NaN,,0.0087,2.0,85.4569,29 / 29,,5029,2021-05-20 22:06:46:562
0.495615,0.268159,9.98652,0.509601,0.24935,9.790226,0.005903,0.013373,-0.008876,-14.7,-3.0,-42.3,98.5878,-1.4242,-2.9353,984.7302,55.855698,37.48085,175.739,NaN,,0.0087,2.0,85.4569,29 / 29,,5040,2021-05-20 22:06:46:573
0.495615,0.268159,9.98652,0.509601,0.24935,9.790226,0.018731,0.001156,-0.008265,-14.7,-3.0,-42.3,98.5878,-1.4242,-2.9353,984.7302,55.855698,37.48085,175.739,NaN,,0.0087,2.0,85.4569,29 / 29,,5049,2021-05-20 22:06:46:582
0.548289,0.29689,9.900327,0.513571,0.256831,9.789824,0.029116,0.005432,-0.014985,-14.34,-3.48,-42.24,98.5878,-1.4242,-2.9353,984.7302,55.855698,37.48085,175.739,NaN,,0.0087,2.0,85.4569,29 / 29,,5059,2021-05-20 22:06:46:592
0.56026,0.344776,9.850046,0.513571,0.256831,9.789824,0.030337,0.008486,-0.019871,-14.34,-3.48,-42.24,98.5878,-1.4242,-2.9353,984.7302,55.855698,37.48085,175.739,NaN,,0.0087,2.0,85.4569,29 / 29,,5070,2021-05-20 22:06:46:603
0.488432,0.344776,9.689631,0.517949,0.267276,9.789315,0.02484,0.01093,-0.024148,-14.4,-3.36,-42.78,98.9886,-1.5007,-3.003,984.7302,55.855698,37.48085,175.739,NaN,,0.0087,2.0,85.4569,29 / 29,,5080,2021-05-20 22:06:46:613
0.430969,0.301679,9.670476,0.519244,0.273004,9.789087,0.013233,0.006043,-0.018039,-14.52,-3.3,-43.26,98.9886,-1.5007,-3.003,984.7302,55.855698,37.48085,175.739,NaN,,0.0087,2.0,85.4569,29 / 29,,5089,2021-05-20 22:06:46:622
0.430969,0.301679,9.670476,0.519244,0.273004,9.789087,4.05E-4,0.006043,-0.017428,-14.52,-3.3,-43.26,98.9886,-1.5007,-3.003,984.7354,55.855698,37.48085,175.739,NaN,,0.0087,2.0,85.4569,29 / 29,,5099,2021-05-20 22:06:46:632
0.445335,0.33041,9.737515,0.518395,0.281634,9.788888,-0.008758,0.019482,-0.01865,-14.7,-3.06,-42.96,98.9886,-1.5007,-3.003,984.7354,55.855698,37.48085,175.739,NaN,,0.0087,2.0,85.4569,29 / 29,,5109,2021-05-20 22:06:46:642
0.454912,0.29689,9.775824,0.518395,0.281634,9.788888,-0.006315,0.024369,-0.019871,-14.7,-3.06,-42.96,98.9886,-1.5007,-3.003,984.7354,55.855698,37.48085,175.739,NaN,,0.0087,2.0,85.4569,29 / 29,,5119,2021-05-20 22:06:46:652
0.450124,0.265765,9.75667,0.511007,0.286253,9.789143,-0.00326,0.01154,-0.016817,-14.94,-2.64,-43.02,97.8108,-1.6457,-3.0314,984.7354,55.855698,37.48085,175.739,NaN,,0.0087,2.0,85.4569,29 / 29,,5129,2021-05-20 22:06:46:662
0.440547,0.21309,9.830893,0.511007,0.286253,9.789143,-8.17E-4,0.005432,-0.018039,-14.94,-2.64,-43.02,97.8108,-1.6457,-3.0314,984.7354,55.855698,37.48085,175.739,NaN,,0.0087,2.0,85.4569,29 / 29,,5139,2021-05-20 22:06:46:672
0.440547,0.21309,9.830893,0.503418,0.288528,9.78947,0.008346,0.004821,-0.014374,-14.82,-2.16,-43.14,97.8108,-1.6457,-3.0314,984.7354,55.855698,37.48085,175.739,NaN,,0.0087,2.0,85.4569,29 / 29,,5150,2021-05-20 22:06:46:683
0.407027,0.181965,9.897932,0.503418,0.288528,9.78947,0.008346,0.004821,-0.014374,-14.82,-2.16,-43.14,97.8108,-1.6457,-3.0314,984.7354,55.855698,37.48085,175.739,NaN,,0.0087,2.0,85.4569,29 / 29,,5159,2021-05-20 22:06:46:692
0.402238,0.153234,9.794978,0.495602,0.286344,9.789932,0.016898,0.009097,0.002731,-14.34,-2.34,-42.48,93.5998,-1.686,-2.9438,984.7354,55.855698,37.48085,175.739,NaN,,0.0087,2.0,85.4569,29 / 29,,5170,2021-05-20 22:06:46:703
0.459701,0.203513,9.814133,0.495602,0.286344,9.789932,0.013233,0.00421,0.002731,-14.34,-2.34,-42.48,93.5998,-1.686,-2.9438,984.7354,55.855698,37.48085,175.739,NaN,,0.0087,2.0,85.4569,29 / 29,,5179,2021-05-20 22:06:46:712
0.459701,0.203513,9.814133,0.485922,0.279705,9.790609,0.011401,0.004821,0.004563,-14.58,-2.82,-42.66,93.5998,-1.686,-2.9438,984.7354,55.855698,37.48085,175.739,NaN,,0.0087,2.0,85.4569,29 / 29,,5189,2021-05-20 22:06:46:722
0.450124,0.244216,9.797373,0.485922,0.279705,9.790609,0.012622,0.006654,0.00945,-14.58,-2.82,-42.66,93.5998,-1.686,-2.9438,984.7297,55.855698,37.48085,175.739,NaN,,0.0087,2.0,85.4569,29 / 29,,5199,2021-05-20 22:06:46:732
0.438152,0.265765,9.735122,0.478722,0.27193,9.791183,0.01079,0.005432,0.007617,-14.52,-2.46,-43.02,93.3538,-1.6344,-2.8413,984.7297,55.855698,37.48085,175.739,NaN,,0.0087,2.0,85.4569,29 / 29,,5210,2021-05-20 22:06:46:743
0.41421,0.31365,9.70639,0.478722,0.27193,9.791183,0.013844,-0.002509,0.015559,-14.52,-2.46,-43.02,93.3538,-1.6344,-2.8413,984.7297,55.855698,37.48085,175.739,NaN,,0.0087,2.0,85.4569,29 / 29,,5219,2021-05-20 22:06:46:752
0.440547,0.337593,9.658504,0.47346,0.268408,9.791536,0.017509,-0.006175,0.022278,-13.92,-2.34,-43.26,93.3538,-1.6344,-2.8413,984.7297,55.855698,37.48085,175.739,NaN,,0.0087,2.0,85.4569,29 / 29,,5229,2021-05-20 22:06:46:762
0.440547,0.337593,9.658504,0.47346,0.268408,9.791536,0.012622,-0.005564,0.018002,-13.92,-2.34,-43.26,93.3538,-1.6344,-2.8413,984.7297,55.855698,37.48085,175.739,NaN,,0.0087,2.0,85.4569,29 / 29,,5239,2021-05-20 22:06:46:772
0.474066,0.366324,9.646533,0.470056,0.27029,9.791649,0.007735,-0.006785,0.018002,-13.92,-3.0,-43.14,98.6193,-1.5684,-2.7683,984.7297,55.855698,37.48085,175.739,NaN,,0.0087,2.0,85.4569,29 / 29,,5249,2021-05-20 22:06:46:782
0.519558,0.36393,9.608225,0.470056,0.27029,9.791649,4.05E-4,-0.014727,0.011894,-13.92,-3.0,-43.14,98.6193,-1.5684,-2.7683,984.7297,55.855698,37.48085,175.739,NaN,,0.0087,2.0,85.4569,29 / 29,,5259,2021-05-20 22:06:46:792
0.634483,0.385478,9.708784,0.471278,0.276045,9.79143,-0.016088,-0.020225,-3.24E-4,-14.28,-3.3,-42.06,98.6193,-1.5684,-2.7683,984.7297,55.855698,37.48085,175.739,NaN,,0.0087,2.0,85.4569,29 / 29,,5270,2021-05-20 22:06:46:803
0.5435,0.361536,9.895537,0.471278,0.276045,9.79143,-0.02403,-0.006785,-0.014985,-14.28,-3.3,-42.06,98.6193,-1.5684,-2.7683,984.7297,55.855698,37.48085,175.739,NaN,,0.0087,2.0,85.4569,29 / 29,,5280,2021-05-20 22:06:46:813
0.5435,0.361536,9.895537,0.479119,0.281311,9.790898,-0.020975,0.00421,-0.020482,-14.28,-3.12,-41.88,98.5509,-1.613,-2.7556,984.7297,55.855698,37.48085,175.739,NaN,,0.0087,2.0,85.4569,29 / 29,,5289,2021-05-20 22:06:46:822
0.454912,0.275342,9.883567,0.481394,0.284204,9.790704,-0.00998,-0.001288,-0.016206,-14.4,-3.12,-41.88,98.5509,-1.613,-2.7556,984.7234,55.855698,37.48085,175.739,NaN,,0.0087,2.0,85.4569,29 / 29,,5300,2021-05-20 22:06:46:833
0.450124,0.284919,9.909904,0.481394,0.284204,9.790704,0.004681,-6.6E-5,-0.007654,-14.4,-3.12,-41.88,98.5509,-1.613,-2.7556,984.7234,55.855698,37.480846,176.3456,NaN,,0.0057,2.0,85.4569,29 / 30,,5309,2021-05-20 22:06:46:842
0.466884,0.270553,9.852441,0.4833,0.289601,9.790451,0.009568,0.004821,-0.007043,-14.28,-3.6,-42.3,98.5509,-1.613,-2.7556,984.7234,55.855698,37.480846,176.3456,NaN,,0.0057,2.0,85.4569,29 / 30,,5319,2021-05-20 22:06:46:852
0.478855,0.29689,9.744699,0.4833,0.289601,9.790451,0.011401,0.005432,-0.005211,-14.28,-3.6,-42.3,98.5509,-1.613,-2.7556,984.7234,55.855698,37.480846,176.3456,NaN,,0.0057,2.0,85.4569,29 / 30,,5329,2021-05-20 22:06:46:862
