ACCELEROMETER X (m/s²),ACCELEROMETER Y (m/s²),ACCELEROMETER Z (m/s²),GYROSCOPE X (rad/s),GYROSCOPE Y (rad/s),GYROSCOPE Z (rad/s),MAGNETIC FIELD X (μT),MAGNETIC FIELD Y (μT),MAGNETIC FIELD Z (μT),ORIENTATION Z (azimuth °),ORIENTATION X (pitch °),ORIENTATION Y (roll °),LOCATION Latitude : ,LOCATION Longitude : ,LOCATION Altitude ( m),LOCATION Speed ( m/s),Time since start in ms 
0.007183,0.011971,9.727939,0.001178,-0.00119,0.004827,-1.38,-14.1,-48.9,172.3904,0.0994,-0.1352,55.814037,37.500313,219.4777,0.0878,21
0.047885,0.026337,9.783007,0.001178,-0.00119,0.004827,-1.38,-14.1,-48.9,172.3904,0.0994,-0.1352,55.814037,37.500313,219.4777,0.0878,30
0.057463,0,9.816526,-0.009207,-0.001801,0.003605,-1.8,-14.22,-48.84,172.2608,0.0953,-0.1009,55.814037,37.500313,219.4777,0.0878,40
0.057463,0,9.816526,-0.012872,-0.000579,-0.000671,-1.8,-14.22,-48.84,172.2608,0.0953,-0.1009,55.814037,37.500313,219.4777,0.0878,51
0.004789,-0.031126,9.833286,-0.012261,-0.002412,-0.003114,-1.98,-14.28,-49.92,172.2608,0.0953,-0.1009,55.814037,37.500313,219.4777,0.0878,61
0.011971,-0.038308,9.876384,-4.4E-05,-0.00119,-6E-05,-1.98,-14.28,-49.92,172.2608,0.0953,-0.1009,55.814037,37.500313,219.4777,0.0878,70
0.007183,-0.01676,9.862018,0.007897,3.2E-05,-0.001282,-1.5,-13.68,-50.1,176.3134,0.088,-0.1066,55.814037,37.500313,219.4777,0.0878,81
0.021548,-0.011971,9.754275,0.007897,0.001253,-0.001892,-1.5,-13.68,-50.1,176.3134,0.088,-0.1066,55.814037,37.500313,219.4777,0.0878,91
0.021548,-0.011971,9.754275,0.007897,3.2E-05,-0.000671,-1.98,-13.74,-49.14,176.3134,0.088,-0.1066,55.814037,37.500313,219.4777,0.0878,100
0.076617,0.014366,9.828498,-0.002487,-0.007299,-0.003725,-1.98,-13.74,-49.14,176.3134,0.088,-0.1066,55.814037,37.500313,219.4777,0.0878,110
0.026337,0.019154,9.811738,-0.009818,0.000643,-0.003114,-2.04,-14.34,-48.78,172.2529,0.08,-0.1007,55.814037,37.500313,219.4777,0.0878,121
0.011971,-0.038308,9.854836,-0.01104,3.2E-05,-0.004336,-2.04,-14.34,-48.78,172.2529,0.08,-0.1007,55.814037,37.500313,219.4777,0.0878,130
0.011971,-0.038308,9.854836,-0.006763,-0.001801,-0.005558,-1.74,-14.58,-49.5,172.2529,0.08,-0.1007,55.814037,37.500313,219.4777,0.0878,141
0.031126,-0.03352,9.895537,0.000567,3.2E-05,-0.00739,-1.74,-14.58,-49.5,172.2529,0.08,-0.1007,55.814037,37.500313,219.4777,0.0878,150
-0.011971,-0.095771,9.869201,0.004232,0.00553,-0.003114,-1.92,-14.1,-49.5,172.305,0.0828,-0.1155,55.814037,37.500313,219.4777,0.0878,160
-0.004789,-0.028731,9.778218,0.004843,0.002475,0.000551,-1.92,-14.1,-49.5,172.305,0.0828,-0.1155,55.814037,37.500313,219.4777,0.0878,170
-0.011971,-0.035914,9.866806,0.003621,-0.003633,0.005438,-2.46,-13.32,-48.6,172.305,0.0828,-0.1155,55.814037,37.500313,219.4777,0.0878,181
0.031126,-0.045491,9.818921,0.002399,0.003086,0.004827,-2.4,-13.38,-49.08,172.305,0.0828,-0.1155,55.814037,37.500313,219.4777,0.0878,191
0.031126,-0.045491,9.818921,-0.003098,-0.003633,0.007271,-2.4,-13.38,-49.08,172.305,0.0828,-0.1155,55.814037,37.500313,219.4777,0.0878,201
0.045491,0.06704,9.838076,-0.000655,0.001864,0.002384,-1.86,-13.38,-48.6,171.734,0.0942,-0.1166,55.814037,37.500313,219.4777,0.0878,211
-0.06704,-0.141262,9.838076,-0.001877,0.001864,-0.003114,-1.86,-13.38,-48.6,171.734,0.0942,-0.1166,55.814037,37.500313,219.4777,0.0878,220
0.01676,-0.114925,9.835681,-0.006763,-0.012186,0.004216,-1.74,-13.74,-48.72,171.734,0.0942,-0.1166,55.814037,37.500313,219.4777,0.0878,231
0.01676,-0.114925,9.835681,-0.006153,0.003086,0.004827,-1.74,-13.74,-48.72,171.734,0.0942,-0.1166,55.814037,37.500313,219.4777,0.0878,241
0.095771,0.102954,9.876384,0.001789,0.008584,-0.001282,-1.8,-14.28,-49.68,172.3021,0.1039,-0.1093,55.814037,37.500313,219.4777,0.0878,251
0,0.086194,9.857229,0.001789,0.008584,-0.001282,-1.8,-14.28,-49.68,172.3021,0.1039,-0.1093,55.814037,37.500313,219.4777,0.0878,260
-0.057463,-0.148445,9.785401,0.004843,-0.00119,0.002994,-1.5,-14.58,-49.86,172.3021,0.1039,-0.1093,55.814037,37.500313,219.4777,0.0878,270
0.059857,-0.119714,9.869201,-0.001877,-0.004244,0.002994,-1.86,-14.88,-49.8,172.3021,0.1039,-0.1093,55.814037,37.500313,219.4777,0.0878,281
0.059857,-0.119714,9.869201,-0.006763,-0.007299,0.002384,-1.86,-14.88,-49.8,172.3021,0.1039,-0.1093,55.814037,37.500313,219.4777,0.0878,291
0.040703,0.05028,9.878778,-0.001877,0.008584,-0.001892,-1.92,-15,-50.1,172.799,0.1605,-0.0998,55.814037,37.500313,219.4777,0.0878,301
0.011971,0.028731,9.751882,0.004843,-0.001801,-0.000671,-1.92,-15,-50.1,172.799,0.1605,-0.0998,55.814037,37.500313,219.4777,0.0878,311
0.055068,-0.045491,9.943423,0.001789,-0.003633,0.001773,-1.68,-14.64,-49.26,172.799,0.1605,-0.0998,55.814037,37.500313,219.4777,0.0878,320
-0.03352,-0.023943,9.821315,0.002399,0.00553,0.005438,-1.68,-14.64,-49.26,172.799,0.1605,-0.0998,55.814037,37.500313,219.4777,0.0878,330
-0.03352,-0.023943,9.821315,0.00301,0.003697,0.010325,-1.5,-13.62,-48.36,176.3074,0.1968,-0.1025,55.814037,37.500313,219.4777,0.0878,340
-0.045491,-0.021548,9.811738,0.004232,3.2E-05,0.015212,-1.5,-13.62,-48.36,176.3074,0.1968,-0.1025,55.814037,37.500313,219.4777,0.0878,351
-0.021548,-0.01676,9.883567,-0.003098,0.007362,0.02132,-1.8,-13.62,-48.48,176.3074,0.1968,-0.1025,55.814037,37.500313,219.4777,0.0878,360
-0.069434,0.031126,9.797373,-0.001877,3.2E-05,0.024375,-1.8,-13.62,-48.48,176.3074,0.1968,-0.1025,55.814037,37.500313,219.4777,0.0878,371
-0.122108,0.007183,9.847652,-0.00432,0.003697,0.024986,-1.68,-13.98,-48.84,172.2293,0.1938,-0.0782,55.814037,37.500313,219.4777,0.0878,381
-0.122108,0.007183,9.847652,-0.002487,-0.000579,0.028651,-1.68,-13.98,-48.84,172.2293,0.1938,-0.0782,55.814037,37.500313,219.4777,0.0878,391
-0.076617,-0.076617,9.768641,-0.009207,-0.012796,0.026818,-1.32,-14.04,-48.78,172.2293,0.1938,-0.0782,55.814037,37.500313,219.4777,0.0878,400
0.122108,-0.110137,9.845258,-0.010429,-0.009742,0.020099,-1.32,-14.04,-48.78,172.2293,0.1938,-0.0782,55.814037,37.500313,219.4777,0.0878,411
0.153234,-0.028731,9.890749,-0.006153,-0.000579,0.012157,-1.8,-14.16,-48.48,171.9455,0.1695,0.0015,55.814037,37.500313,219.4777,0.0878,420
0.155628,0.002394,9.850046,-4.4E-05,-0.007299,0.004216,-1.8,-14.16,-48.48,171.9455,0.1695,0.0015,55.814037,37.500313,219.4777,0.0878,431
0.155628,0.002394,9.850046,0.008508,0.000643,-0.001282,-2.46,-14.16,-48.9,171.9455,0.1695,0.0015,55.814037,37.500313,219.4777,0.0878,440
0.117319,0.01676,9.828498,0.006676,0.004308,-6E-05,-2.46,-14.16,-48.9,171.9455,0.1695,0.0015,55.814037,37.500313,219.4777,0.0878,450
0.009577,-0.014366,9.809344,-4.4E-05,0.001253,0.003605,-2.16,-14.22,-49.02,172.0277,0.1789,-0.0209,55.814037,37.500313,219.4777,0.0878,461
0.009577,-0.014366,9.809344,-4.4E-05,0.001253,0.003605,-2.16,-14.22,-49.02,172.0277,0.1789,-0.0209,55.814037,37.500313,219.4777,0.0878,470
-0.059857,0.011971,9.809344,-0.006153,0.004308,0.016433,-2.22,-14.22,-49.02,172.0277,0.1789,-0.0209,55.814037,37.500313,219.4777,0.0878,481
0,-0.004789,9.802161,-0.006153,0.004308,0.016433,-2.22,-14.22,-49.02,172.0277,0.1789,-0.0209,55.814037,37.500313,219.4777,0.0878,491
-0.150839,-0.021548,9.893144,-0.001877,0.002475,0.029873,-2.34,-14.04,-49.5,172.2916,0.1246,-0.1059,55.814037,37.500313,219.4777,0.0878,500
-0.167599,-0.081405,9.823709,-0.001877,0.004919,0.039036,-2.34,-14.04,-49.5,172.2916,0.1246,-0.1059,55.814037,37.500313,219.4777,0.0878,511
-0.167599,-0.081405,9.823709,-0.003709,-0.001801,0.048809,-2.22,-14.34,-49.5,172.2916,0.1246,-0.1059,55.814037,37.500313,219.4777,0.0878,520
-0.148445,-0.153234,9.869201,-0.002487,-0.004855,0.055529,-2.22,-14.34,-49.5,172.2916,0.1246,-0.1059,55.814037,37.500313,219.4777,0.0878,530
-0.112531,-0.110137,9.845258,-0.001877,-0.00119,0.060416,-2.52,-14.64,-49.56,168.8946,0.1413,-0.0361,55.814037,37.500313,219.4777,0.0878,541
-0.01676,0.004789,9.852441,0.006676,-0.005466,0.068357,-2.52,-14.64,-49.56,168.8946,0.1413,-0.0361,55.814037,37.500313,219.4777,0.0878,551
-0.01676,0.004789,9.852441,0.009119,-0.006077,0.071411,-2.22,-14.1,-49.8,168.8946,0.1413,-0.0361,55.814037,37.500313,219.4777,0.0878,561
0.088588,0.009577,9.833286,0.00973,0.001253,0.07019,-2.22,-14.1,-49.8,168.8946,0.1413,-0.0361,55.814037,37.500313,219.4777,0.0878,571
0.026337,0.01676,9.794978,0.005454,0.001864,0.07019,-2.04,-13.8,-49.56,171.5257,0.2424,0.1345,55.814037,37.500313,219.4777,0.0878,580
-0.019154,0.023943,9.79019,0.003621,3.2E-05,0.07019,-2.04,-13.8,-49.56,171.5257,0.2424,0.1345,55.814037,37.500313,219.4777,0.0878,590
-0.004789,-0.014366,9.809344,-0.002487,-0.004244,0.07019,-2.22,-14.1,-49.8,171.5257,0.2424,0.1345,55.814037,37.500313,219.4777,0.0878,601
-0.004789,-0.014366,9.809344,-0.003709,-0.004244,0.069579,-2.22,-14.1,-49.8,171.5257,0.2424,0.1345,55.814037,37.500313,219.4777,0.0878,610
-0.009577,-0.004789,9.833286,0.000567,-0.002412,0.079963,-1.86,-14.16,-49.56,171.4783,0.2492,0.1493,55.814037,37.500313,219.4777,0.0878,621
0.009577,0.009577,9.814133,0.001789,-0.004244,0.079353,-1.86,-14.16,-49.56,171.4783,0.2492,0.1493,55.814037,37.500313,219.4777,0.0878,630
0.026337,-0.007183,9.80695,0.001789,-0.001801,0.074466,-1.44,-13.92,-49.38,171.4783,0.2492,0.1493,55.814037,37.500313,219.4777,0.0878,641
0.026337,-0.007183,9.80695,-0.001877,-0.000579,0.079353,-1.44,-13.92,-49.38,171.4783,0.2492,0.1493,55.814037,37.500313,219.4777,0.0878,651
0.040703,-0.038308,9.818921,-0.005542,-0.001801,0.079963,-1.56,-14.52,-49.8,172.0956,0.2244,0.1258,55.814037,37.500313,219.4777,0.0878,661
0.011971,-0.064645,9.833286,-0.005542,-0.001801,0.079963,-1.56,-14.52,-49.8,172.0956,0.2244,0.1258,55.814037,37.500313,219.4777,0.0878,670
-0.009577,-0.023943,9.840469,-0.002487,-0.002412,0.079353,-2.4,-15.24,-49.68,172.0956,0.2244,0.1258,55.814037,37.500313,219.4777,0.0878,681
-0.009577,-0.023943,9.840469,0.002399,-0.007299,0.079353,-2.4,-15.24,-49.68,172.0956,0.2244,0.1258,55.814037,37.500313,219.4777,0.0878,691
0.043097,0.002394,9.835681,0.004232,-0.003023,0.07752,-2.28,-14.94,-49.44,172.2619,0.2042,0.0724,55.814037,37.500313,219.4777,0.0878,701
0.134079,-0.019154,9.821315,0.00301,-0.001801,0.071411,-2.28,-14.94,-49.44,172.2619,0.2042,0.0724,55.814037,37.500313,219.4777,0.0878,711
0.110137,-0.0838,9.826104,-0.001877,-0.002412,0.069579,-1.92,-14.4,-49.62,172.2619,0.2042,0.0724,55.814037,37.500313,219.4777,0.0878,721
-0.0838,-0.035914,9.811738,-0.005542,0.00553,0.065914,-1.92,-14.4,-49.62,172.2619,0.2042,0.0724,55.814037,37.500313,219.4777,0.0878,730
-0.03352,0.047885,9.804555,0.000567,-0.005466,0.071411,-1.68,-14.1,-49.62,171.9507,0.1772,0.002,55.814037,37.500313,219.4777,0.0878,742
-0.03352,0.047885,9.804555,0.003621,-0.011575,0.069579,-1.68,-14.1,-49.62,171.9507,0.1772,0.002,55.814037,37.500313,219.4777,0.0878,750
0.110137,-0.004789,9.823709,0.002399,0.00553,0.068357,-1.56,-14.34,-49.26,171.9507,0.1772,0.002,55.814037,37.500313,219.4777,0.0878,761
0.055068,-0.059857,9.804555,-0.006763,-0.002412,0.073855,-1.56,-14.34,-49.26,171.9507,0.1772,0.002,55.814037,37.500313,219.4777,0.0878,771
-0.093377,-0.038308,9.816526,-0.007985,-0.000579,0.078742,-2.1,-14.7,-49.56,172.6978,0.1672,-0.0678,55.814037,37.500313,219.4777,0.0878,781
-0.093377,-0.038308,9.816526,-0.003098,-0.000579,0.083018,-2.1,-14.7,-49.56,172.6978,0.1672,-0.0678,55.814037,37.500313,219.4777,0.0878,791
-0.134079,-0.071828,9.833286,-0.003098,-0.000579,0.083018,-1.98,-14.34,-49.8,172.6978,0.1672,-0.0678,55.814037,37.500313,219.4777,0.0878,801
-0.047885,-0.081405,9.835681,0.003621,-0.009742,0.086683,-2.16,-13.62,-50.04,172.6978,0.1672,-0.0678,55.814037,37.500313,219.4777,0.0878,811
-0.047885,-0.081405,9.835681,0.009119,-0.00119,0.09157,-2.16,-13.62,-50.04,172.6978,0.1672,-0.0678,55.814037,37.500313,219.4777,0.0878,821
0.035914,0.047885,9.794978,0.004843,-0.000579,0.095846,-1.74,-13.92,-49.44,172.1855,0.1719,-0.0683,55.814037,37.500313,219.4777,0.0878,830
0.038308,-0.028731,9.77343,-0.001877,-0.003633,0.09157,-1.74,-13.92,-49.44,172.1855,0.1719,-0.0683,55.814037,37.500313,219.4777,0.0878,841
0.201119,-0.03352,9.804555,-0.008596,-0.011575,0.087294,-1.2,-14.16,-49.02,172.1855,0.1719,-0.0683,55.814037,37.500313,219.4777,0.0878,851
0.201119,-0.03352,9.804555,-0.005542,-0.006077,0.089737,-1.2,-14.16,-49.02,172.1855,0.1719,-0.0683,55.814037,37.500313,219.4777,0.0878,861
-0.026337,0,9.941029,-0.000655,0.023245,0.092181,-1.5,-14.1,-49.86,176.0647,0.1736,-0.0304,55.814037,37.500313,219.4777,0.0878,870
-0.299284,-0.059857,9.699207,0.004232,0.002475,0.100122,-1.5,-14.1,-49.86,176.0647,0.1736,-0.0304,55.814037,37.500313,219.4777,0.0878,881
-0.062251,-0.057463,9.75667,0.004843,-0.029901,0.109896,-2.34,-14.82,-51,176.0647,0.1736,-0.0304,55.814037,37.500313,219.4777,0.0878,891
0.131685,-0.055068,9.929058,-0.003098,0.003086,0.106231,-2.34,-14.82,-51,176.0647,0.1736,-0.0304,55.814037,37.500313,219.4777,0.0878,901
0.131685,-0.055068,9.929058,-0.003098,-0.001801,0.106842,-2.52,-15,-50.16,168.9024,0.1576,-0.0353,55.814037,37.500313,219.4777,0.0878,911
0.10056,-0.014366,9.737515,-0.001877,-0.012186,0.101344,-2.52,-15,-50.16,168.9024,0.1576,-0.0353,55.814037,37.500313,219.4777,0.0878,920
0.064645,0.045491,9.862018,-4.4E-05,0.00614,0.102566,-2.4,-14.4,-49.44,168.9024,0.1576,-0.0353,55.814037,37.500313,219.4777,0.0878,930
0.026337,0.009577,9.79019,0.003621,0.001864,0.103787,-2.4,-14.4,-49.44,168.9024,0.1576,-0.0353,55.814037,37.500313,219.4777,0.0878,941
0.026337,0.009577,9.79019,0.002399,-0.011575,0.105009,-1.8,-14.34,-49.44,172.0699,0.1697,-0.0346,55.814037,37.500313,219.4777,0.0878,951
-0.019154,-0.055068,9.761458,-0.001266,0.001253,0.104398,-1.8,-14.34,-49.44,172.0699,0.1697,-0.0346,55.814037,37.500313,219.4777,0.0878,961
-0.014366,-0.043097,9.845258,-0.001877,-0.009131,0.10562,-1.62,-14.64,-48.96,172.0699,0.1697,-0.0346,55.814037,37.500313,219.2891,0.0011,970
0.059857,-0.057463,9.833286,-0.003709,-0.006688,0.106842,-2.1,-14.4,-49.08,172.0699,0.1697,-0.0346,55.814037,37.500313,219.2891,0.0011,980
0.059857,-0.057463,9.833286,0.000567,0.000643,0.106842,-2.1,-14.4,-49.08,172.0699,0.1697,-0.0346,55.814037,37.500313,219.2891,0.0011,990
0.03352,0.069434,9.77343,0.00301,-0.00852,0.103176,-2.28,-14.4,-50.04,172.1768,0.1464,-0.0675,55.814037,37.500313,219.2891,0.0011,1000
0.198725,-0.019154,9.816526,-0.003098,-0.011575,0.090348,-2.28,-14.4,-50.04,172.1768,0.1464,-0.0675,55.814037,37.500313,219.2891,0.0011,1011
0.289707,-0.10056,9.816526,-0.008596,-0.010964,0.081185,-2.04,-13.92,-49.74,172.1768,0.1464,-0.0675,55.814037,37.500313,219.2891,0.0011,1021
0.289707,-0.10056,9.816526,-0.006763,0.012249,0.074466,-2.4,-13.92,-49.44,172.1768,0.1464,-0.0675,55.814037,37.500313,219.2891,0.0011,1031
0.155628,-0.05028,9.931452,-0.006763,0.012249,0.074466,-2.4,-13.92,-49.44,172.1768,0.1464,-0.0675,55.814037,37.500313,219.2891,0.0011,1040
-0.122108,-0.028731,9.814133,0.00301,0.010416,0.072633,-2.34,-14.52,-49.62,173.0754,0.1133,-0.1905,55.814037,37.500313,219.2891,0.0011,1050
-0.081405,-0.05028,9.823709,0.010341,-0.003633,0.075077,-2.22,-14.76,-49.86,173.0754,0.1133,-0.1905,55.814037,37.500313,219.2891,0.0011,1061
-0.081405,-0.05028,9.823709,0.012173,-0.002412,0.07752,-2.22,-14.76,-49.86,173.0754,0.1133,-0.1905,55.814037,37.500313,219.2891,0.0011,1070
0.081405,-0.019154,9.838076,0.009119,-0.003633,0.07752,-2.1,-14.46,-50.82,173.0754,0.1133,-0.1905,55.814037,37.500313,219.2891,0.0011,1081
0.148445,0.069434,9.751882,-0.001877,-0.006077,0.075687,-2.1,-14.46,-50.82,173.0754,0.1133,-0.1905,55.814037,37.500313,219.2891,0.0011,1091
0.138868,0.06704,9.799767,-0.006153,-0.002412,0.073855,-2.1,-14.16,-50.28,172.9963,0.0898,-0.3099,55.814037,37.500313,219.2891,0.0011,1100
0.138868,0.06704,9.799767,-0.009207,0.00614,0.081185,-2.1,-14.16,-50.28,172.9963,0.0898,-0.3099,55.814037,37.500313,219.2891,0.0011,1111
-0.110137,-0.002394,9.897932,-0.001266,0.019579,0.096457,-2.1,-14.34,-49.74,172.9963,0.0898,-0.3099,55.814037,37.500313,219.2891,0.0011,1121
-0.462095,-0.177176,9.780613,-0.002487,0.004919,0.116005,-2.1,-14.34,-49.74,172.9963,0.0898,-0.3099,55.814037,37.500313,219.2891,0.0011,1131
-0.466884,-0.167599,9.842864,-4.4E-05,-0.003633,0.141661,-2.04,-14.16,-49.74,173.0529,0.0586,-0.3299,55.814037,37.500313,219.2891,0.0011,1140
-0.318439,-0.122108,9.869201,0.004843,-0.00852,0.170372,-2.04,-14.16,-49.74,173.0529,0.0586,-0.3299,55.814037,37.500313,219.2891,0.0011,1151
-0.318439,-0.122108,9.869201,0.001178,-0.00852,0.193584,-1.56,-14.22,-49.56,173.0529,0.0586,-0.3299,55.814037,37.500313,219.2891,0.0011,1161
-0.251399,-0.052674,9.840469,0.002399,-0.011575,0.214965,-1.56,-14.22,-49.56,173.0529,0.0586,-0.3299,55.814037,37.500313,219.2891,0.0011,1170
-0.294496,-0.031126,9.835681,-0.001266,-0.003633,0.250395,-1.32,-14.46,-49.62,175.9256,0.1233,0.0056,55.814037,37.500313,219.2891,0.0011,1181
-0.294496,-0.031126,9.835681,-0.001266,-0.003633,0.250395,-1.32,-14.46,-49.62,175.9256,0.1233,0.0056,55.814037,37.500313,219.2891,0.0011,1190
-0.344776,-0.052674,9.780613,-0.002487,-0.007299,0.279716,-1.74,-14.76,-49.14,175.9256,0.1233,0.0056,55.814037,37.500313,219.2891,0.0011,1201
-0.244216,-0.172388,9.828498,-0.007374,-0.016462,0.299875,-2.22,-14.94,-48.72,175.9256,0.1233,0.0056,55.814037,37.500313,219.2891,0.0011,1212
-0.031126,-0.184359,9.888355,-0.008596,-0.017072,0.313925,-2.22,-14.94,-48.72,175.9256,0.1233,0.0056,55.814037,37.500313,219.2891,0.0011,1221
0.026337,-0.045491,9.878778,-0.003098,-0.014629,0.31759,-2.04,-15,-49.62,172.4624,0.1242,-0.001,55.814037,37.500313,219.2891,0.0011,1231
0.026337,-0.045491,9.878778,0.016449,-0.007299,0.323699,-2.04,-15,-49.62,172.4624,0.1242,-0.001,55.814037,37.500313,219.2891,0.0011,1240
0.102954,0.043097,9.854836,0.018282,-0.004855,0.321255,-1.8,-14.94,-49.98,172.4624,0.1242,-0.001,55.814037,37.500313,219.2891,0.0011,1250
0.052674,0.05028,9.778218,0.014617,0.002475,0.328586,-1.8,-14.94,-49.98,172.4624,0.1242,-0.001,55.814037,37.500313,219.2891,0.0011,1260
-0.10056,-0.01676,9.744699,-0.001877,-0.004244,0.335916,-2.34,-14.88,-49.2,172.5536,0.1174,-0.0308,55.814037,37.500313,219.2891,0.0011,1271
-0.203513,-0.138868,9.842864,-0.017759,-0.010964,0.351799,-2.58,-14.7,-49.2,172.5536,0.1174,-0.0308,55.814037,37.500313,219.2891,0.0011,1280
-0.203513,-0.138868,9.842864,-0.017759,-0.010964,0.351799,-2.58,-14.7,-49.2,172.5536,0.1174,-0.0308,55.814037,37.500313,219.2891,0.0011,1291
-0.225062,-0.160416,9.876384,-0.017759,-0.014018,0.365848,-2.46,-14.88,-49.2,172.5536,0.1174,-0.0308,55.814037,37.500313,219.2891,0.0011,1300
-0.179571,-0.086194,9.945818,-0.000655,-0.014629,0.381731,-2.46,-14.88,-49.2,172.5536,0.1174,-0.0308,55.814037,37.500313,219.2891,0.0011,1311
-0.174782,-0.035914,9.857229,0.01706,-0.004244,0.398835,-1.98,-14.76,-49.98,172.587,0.1275,-0.0389,55.814037,37.500313,219.2891,0.0011,1321
-0.174782,-0.035914,9.857229,0.021336,-0.007909,0.418383,-1.98,-14.76,-49.98,172.587,0.1275,-0.0389,55.814037,37.500313,219.2891,0.0011,1330
-0.110137,-0.038308,9.761458,0.010952,-0.014018,0.433044,-1.8,-15.06,-49.8,172.587,0.1275,-0.0389,55.814037,37.500313,219.2891,0.0011,1341
-0.172388,-0.086194,9.783007,-0.004931,-0.009131,0.449537,-1.8,-15.06,-49.8,172.587,0.1275,-0.0389,55.814037,37.500313,219.2891,0.0011,1351
-0.210696,-0.124502,9.835681,-0.021424,-0.015851,0.467863,-1.8,-14.88,-49.2,172.619,0.1089,-0.0524,55.814037,37.500313,219.2891,0.0011,1361
-0.191542,-0.107742,9.873989,-0.019592,-0.021349,0.482524,-1.8,-14.88,-49.2,172.619,0.1089,-0.0524,55.814037,37.500313,219.2891,0.0011,1371
-0.191542,-0.107742,9.873989,-0.004931,-0.012186,0.497795,-1.38,-14.88,-49.32,172.619,0.1089,-0.0524,55.814037,37.500313,219.2891,0.0011,1380
-0.117319,-0.102954,9.912297,0.012173,-0.012186,0.511845,-1.38,-14.88,-49.32,172.619,0.1089,-0.0524,55.814037,37.500313,219.2891,0.0011,1390
-0.098165,-0.10056,9.854836,0.014617,-0.012796,0.521619,-1.2,-15.06,-49.68,176.4798,0.1322,-0.0804,55.814037,37.500313,219.2891,0.0011,1401
-0.019154,-0.141262,9.80695,0.010952,-0.018294,0.531393,-1.2,-15.06,-49.68,176.4798,0.1322,-0.0804,55.814037,37.500313,219.2891,0.0011,1412
0,-0.088588,9.814133,0.010952,-0.018294,0.531393,-2.34,-15.6,-50.04,176.4798,0.1322,-0.0804,55.814037,37.500313,219.2891,0.0011,1420
0,-0.088588,9.814133,-0.004931,-0.012186,0.540556,-2.34,-15.6,-50.04,176.4798,0.1322,-0.0804,55.814037,37.500313,219.2891,0.0011,1430
-0.062251,-0.045491,9.838076,-0.012872,-0.009131,0.547275,-2.88,-15.6,-49.8,169.772,0.1222,-0.1075,55.814037,37.500313,219.2891,0.0011,1441
-0.131685,-0.076617,9.857229,-0.010429,-0.014018,0.554606,-2.88,-15.6,-49.8,169.772,0.1222,-0.1075,55.814037,37.500313,219.2891,0.0011,1451
-0.165205,-0.114925,9.881172,0.001178,-0.013407,0.57843,-2.82,-14.88,-49.74,169.772,0.1222,-0.1075,55.814037,37.500313,219.2891,0.0011,1460
-0.165205,-0.114925,9.881172,0.007286,-0.009742,0.591869,-2.82,-14.88,-49.74,169.772,0.1222,-0.1075,55.814037,37.500313,219.2891,0.0011,1471
-0.210696,-0.169993,9.850046,0.005454,-0.014018,0.612027,-2.52,-15.48,-50.1,169.2037,0.1375,-0.1338,55.814037,37.500313,219.2891,0.0011,1480
-0.191542,-0.160416,9.821315,0.005454,-0.014018,0.612027,-2.52,-15.48,-50.1,169.2037,0.1375,-0.1338,55.814037,37.500313,219.2891,0.0011,1491
-0.143656,-0.122108,9.840469,0.000567,-0.02257,0.637683,-2.34,-15.18,-49.8,169.2037,0.1375,-0.1338,55.814037,37.500313,219.2891,0.0011,1501
-0.0838,-0.112531,9.826104,-0.00432,-0.021349,0.653566,-2.34,-15.18,-49.8,169.2037,0.1375,-0.1338,55.814037,37.500313,219.2891,0.0011,1510
-0.0838,-0.112531,9.826104,-0.003098,-0.020127,0.664562,-2.64,-15.24,-49.14,169.287,0.1322,-0.1646,55.814037,37.500313,219.2891,0.0011,1521
0.007183,-0.102954,9.845258,-0.001877,-0.021959,0.673725,-2.64,-15.24,-49.14,169.287,0.1322,-0.1646,55.814037,37.500313,219.2891,0.0011,1531
0.047885,-0.102954,9.845258,0.001178,-0.014629,0.680444,-2.4,-15.54,-49.08,169.287,0.1322,-0.1646,55.814037,37.500313,219.2891,0.0011,1540
0.007183,-0.114925,9.833286,-0.001266,-0.016462,0.688385,-2.4,-15.54,-49.08,169.287,0.1322,-0.1646,55.814037,37.500313,219.2891,0.0011,1551
0.059857,-0.162811,9.854836,0.000567,-0.016462,0.69144,-2.1,-14.94,-49.44,173.1277,0.1415,-0.2076,55.814037,37.500313,219.2891,0.0011,1560
0.059857,-0.162811,9.854836,-0.01837,-0.026846,0.685942,-2.1,-14.94,-49.44,173.1277,0.1415,-0.2076,55.814037,37.500313,219.2891,0.0011,1571
0.318439,0.086194,11.60505,-0.01837,-0.026846,0.685942,-2.7,-15.72,-49.8,173.1277,0.1415,-0.2076,55.814037,37.500313,219.2891,0.0011,1580
0.126897,-0.143656,8.648121,0.002399,0.174739,0.637683,-2.7,-15.72,-49.8,173.1277,0.1415,-0.2076,55.814037,37.500313,219.2891,0.0011,1591
-0.418998,0.256187,10.735929,0.067762,-0.103204,0.632186,-3.48,-15.48,-50.04,169.6803,0.1529,-0.28,55.814037,37.500313,219.2891,0.0011,1600
-0.725465,0.086194,9.27542,0.071427,0.061729,0.674946,-3.48,-15.48,-50.04,169.6803,0.1529,-0.28,55.814037,37.500313,219.2891,0.0011,1613
-0.725465,0.086194,9.27542,0.071427,0.061729,0.674946,-3.24,-15.36,-49.92,169.6803,0.1529,-0.28,55.814037,37.500313,219.2891,0.0011,1621
-0.26337,-0.270553,9.61062,0.014006,-0.169178,0.696327,-3.24,-15.36,-49.92,169.6803,0.1529,-0.28,55.814037,37.500313,219.2891,0.0011,1630
-0.550683,-0.126897,10.029617,-0.073959,0.11915,0.72687,-3,-16.38,-49.92,169.6082,0.0529,-0.0657,55.814037,37.500313,219.2891,0.0011,1641
-0.332804,-0.035914,9.189227,-0.077013,-0.065942,0.742141,-3,-16.38,-49.92,169.6082,0.0529,-0.0657,55.814037,37.500313,219.2891,0.0011,1651
-0.332804,-0.035914,9.189227,-0.039139,-0.114811,0.759857,-3.12,-16.2,-49.56,169.6082,0.0529,-0.0657,55.814037,37.500313,219.2891,0.0011,1660
0.337593,-0.129291,10.187639,-0.039139,-0.114811,0.759857,-3.12,-16.2,-49.56,169.6082,0.0529,-0.0657,55.814037,37.500313,219.2891,0.0011,1670
0.411815,-0.181965,10.106234,-0.003098,0.06234,0.75558,-3.06,-16.02,-49.38,169.8788,0.1189,-0.147,55.814037,37.500313,219.2891,0.0011,1681
0.351958,-0.055068,9.828498,0.040884,-0.081824,0.736033,-3.06,-16.02,-49.38,169.8788,0.1189,-0.147,55.814037,37.500313,219.2891,0.0011,1691
0.351958,-0.055068,9.828498,0.050047,0.018358,0.727481,-3.12,-16.26,-49.26,169.8788,0.1189,-0.147,55.814037,37.500313,219.2891,0.0011,1700
-0.007183,0.045491,9.761458,0.028667,0.010416,0.717096,-3.12,-16.26,-49.26,169.8788,0.1189,-0.147,55.814037,37.500313,219.2891,0.0011,1710
0.174782,-0.10056,9.660899,-0.014094,-0.074494,0.710376,-3.06,-16.32,-49.2,170.1014,0.1196,-0.2223,55.814037,37.500313,219.2891,0.0011,1720
0.328016,-0.122108,9.73991,-0.028755,-0.014018,0.714042,-3.06,-16.32,-49.2,170.1014,0.1196,-0.2223,55.814037,37.500313,219.2891,0.0011,1731
-0.023943,-0.102954,9.885961,-0.033031,-0.010353,0.713431,-2.94,-16.14,-49.56,170.1014,0.1196,-0.2223,55.814037,37.500313,219.2891,0.0011,1740
-0.023943,-0.102954,9.885961,-0.007374,-0.050059,0.717707,-2.94,-16.14,-49.56,170.1014,0.1196,-0.2223,55.814037,37.500313,219.2891,0.0011,1751
0.05028,-0.069434,9.998491,0.017671,-0.003633,0.721983,-2.82,-15.9,-49.32,170.146,0.1076,-0.2394,55.814037,37.500313,219.2891,0.0011,1761
0.0838,-0.107742,9.73991,0.034164,-0.014629,0.729313,-2.82,-15.9,-49.32,170.146,0.1076,-0.2394,55.814037,37.500313,219.2891,0.0011,1771
0.040703,-0.107742,9.895537,0.021336,-0.029901,0.733589,-3.24,-16.14,-49.2,170.146,0.1076,-0.2394,55.814037,37.500313,219.2891,0.0011,1781
0.10056,-0.114925,9.653716,0.000567,-0.002412,0.732978,-3.24,-16.14,-49.2,170.146,0.1076,-0.2394,55.814037,37.500313,219.2891,0.0011,1791
0.10056,-0.114925,9.653716,-0.016537,-0.035398,0.729924,-3.72,-16.08,-49.5,166.8177,0.1144,-0.2683,55.814037,37.500313,219.2891,0.0011,1800
0.136474,-0.071828,9.641745,-0.023868,-0.043951,0.721372,-3.72,-16.08,-49.5,166.8177,0.1144,-0.2683,55.814037,37.500313,219.2891,0.0011,1811
0.292102,-0.076617,9.984126,-0.021424,-0.017072,0.710987,-3.48,-16.44,-49.62,166.8177,0.1144,-0.2683,55.814037,37.500313,219.2891,0.0011,1820
0.404632,-0.129291,9.816526,-0.021424,-0.017072,0.710987,-3.48,-16.44,-49.62,166.8177,0.1144,-0.2683,55.814037,37.500313,219.2891,0.0011,1830
0.29689,-0.114925,9.917087,-0.006153,-0.02257,0.698159,-3,-16.92,-49.68,170.9806,0.1236,-0.3259,55.814037,37.500313,219.2891,0.0011,1841
0.29689,-0.114925,9.917087,0.012784,-0.011575,0.682277,-3,-16.92,-49.68,170.9806,0.1236,-0.3259,55.814037,37.500313,219.2891,0.0011,1851
0.122108,-0.102954,9.885961,0.020115,-0.000579,0.681055,-2.52,-16.98,-49.14,170.9806,0.1236,-0.3259,55.814037,37.500313,219.2891,0.0011,1863
0.464489,-0.167599,9.72315,0.015839,-0.02929,0.679222,-2.52,-16.98,-49.14,170.9806,0.1236,-0.3259,55.814037,37.500313,219.2891,0.0011,1871
0.371113,-0.191542,9.900327,-0.001266,0.029353,0.67067,-2.82,-17.46,-49.14,171.0732,0.1431,-0.363,55.814037,37.500313,219.2891,0.0011,1881
0.253793,-0.102954,9.653716,-0.009207,0.003086,0.663951,-2.82,-17.46,-49.14,171.0732,0.1431,-0.363,55.814037,37.500313,219.2891,0.0011,1890
0.06704,-0.01676,10.020041,-0.003709,-0.003023,0.660896,-3.3,-17.34,-49.44,171.0732,0.1431,-0.363,55.814037,37.500313,219.2891,0.0011,1901
0.06704,-0.01676,10.020041,0.007286,0.044014,0.667616,-3.3,-17.34,-49.44,171.0732,0.1431,-0.363,55.814037,37.500313,219.2891,0.0011,1911
-0.047885,-0.129291,9.627379,0.015839,-0.031733,0.67739,-3.6,-16.68,-49.2,168.4687,0.224,-0.5757,55.814037,37.500313,219.2891,0.0011,1921
-0.22985,-0.165205,9.830893,0.015839,-0.031733,0.67739,-3.6,-16.68,-49.2,168.4687,0.224,-0.5757,55.814037,37.500313,219.2891,0.0011,1931
-0.33041,-0.143656,9.620196,-4.4E-05,-0.014629,0.715874,-4.02,-17.04,-49.32,168.4687,0.224,-0.5757,55.814037,37.500313,219.2891,0.0011,1941
-0.33041,-0.143656,9.620196,-4.4E-05,-0.014629,0.715874,-4.02,-17.04,-49.32,168.4687,0.224,-0.5757,55.814037,37.500313,219.066,0.0274,1952
-0.081405,-0.169993,9.917087,-0.002487,-0.054946,0.729924,-3.84,-17.34,-48.84,168.8248,0.339,-0.6829,55.814037,37.500313,219.066,0.0274,1960
-0.081405,-0.169993,9.917087,-0.009207,-0.007909,0.748861,-3.84,-17.34,-48.84,168.8248,0.339,-0.6829,55.814037,37.500313,219.066,0.0274,1970
0.088588,-0.119714,9.761458,-0.000655,-0.042118,0.754359,-3.72,-16.98,-48.48,168.8248,0.339,-0.6829,55.814037,37.500313,219.066,0.0274,1981
0.21309,-0.064645,9.850046,0.004843,-0.019516,0.753137,-3.72,-16.98,-48.48,168.8248,0.339,-0.6829,55.814037,37.500313,219.066,0.0274,1990
0.179571,-0.076617,9.821315,0.006065,-0.007299,0.75497,-3.78,-16.86,-49.2,168.2081,0.4986,-0.4232,55.814037,37.500313,219.066,0.0274,2000
0.105348,-0.107742,9.75667,0.004843,-0.032344,0.75558,-3.78,-16.86,-49.2,168.2081,0.4986,-0.4232,55.814037,37.500313,219.066,0.0274,2011
0.105348,-0.107742,9.75667,-0.007374,-0.018294,0.750694,-3.9,-17.88,-49.92,168.2081,0.4986,-0.4232,55.814037,37.500313,219.066,0.0274,2021
0.169994,-0.143656,9.830893,-0.01104,-0.009742,0.752526,-3.9,-17.88,-49.92,168.2081,0.4986,-0.4232,55.814037,37.500313,219.066,0.0274,2031
0.141262,-0.148445,9.778218,-0.009818,-0.034177,0.753137,-4.38,-18.96,-49.56,169.371,0.5692,-0.3909,55.814037,37.500313,219.066,0.0274,2042
0.134079,-0.158022,9.90272,-0.000655,-0.012796,0.75497,-4.38,-18.96,-49.56,169.371,0.5692,-0.3909,55.814037,37.500313,219.066,0.0274,2050
0.124502,-0.177176,9.854836,-0.000655,-0.012796,0.75497,-3.54,-18.72,-48.9,169.371,0.5692,-0.3909,55.814037,37.500313,219.066,0.0274,2060
0.124502,-0.177176,9.854836,0.009119,-0.020127,0.759246,-3.54,-18.72,-48.9,169.371,0.5692,-0.3909,55.814037,37.500313,219.066,0.0274,2070
0.095771,-0.181965,9.850046,0.009119,-0.023792,0.760467,-2.76,-17.82,-49.44,171.8816,0.6038,-0.4194,55.814037,37.500313,219.066,0.0274,2080
0.076617,-0.172388,9.797373,0.006065,-0.011575,0.768409,-2.76,-17.82,-49.44,171.8816,0.6038,-0.4194,55.814037,37.500313,219.066,0.0274,2091
0.469278,-0.22985,9.847652,0.001178,-0.020738,0.771463,-3.78,-17.28,-50.04,171.8816,0.6038,-0.4194,55.814037,37.500313,219.066,0.0274,2101
0.407027,-0.225062,10.032011,-0.00432,-0.014018,0.76963,-3.78,-17.28,-50.04,171.8816,0.6038,-0.4194,55.814037,37.500313,219.066,0.0274,2110
0.407027,-0.225062,10.032011,-0.000655,0.042792,0.763522,-4.32,-17.76,-49.44,168.9596,0.6287,-0.4479,55.814037,37.500313,219.066,0.0274,2121
0.268159,-0.047885,9.759064,0.020115,-0.027457,0.761689,-4.32,-17.76,-49.44,168.9596,0.6287,-0.4479,55.814037,37.500313,219.066,0.0274,2131
-0.093377,-0.045491,9.948212,0.027445,0.014082,0.764133,-4.08,-17.58,-49.2,168.9596,0.6287,-0.4479,55.814037,37.500313,219.066,0.0274,2140
-0.225062,-0.169993,9.505271,0.025612,0.042792,0.772074,-4.08,-17.58,-49.2,168.9596,0.6287,-0.4479,55.814037,37.500313,219.066,0.0274,2151
-0.225062,-0.169993,9.505271,0.010341,-0.048227,0.781237,-4.14,-17.82,-49.86,169.6405,0.7383,-0.678,55.814037,37.500313,219.066,0.0274,2161
-0.24661,-0.237033,9.941029,-0.009818,-0.012186,0.79773,-4.14,-17.82,-49.86,169.6405,0.7383,-0.678,55.814037,37.500313,219.066,0.0274,2170
-0.172388,-0.186753,9.627379,-0.022035,-0.026235,0.811169,-4.26,-18.12,-49.14,169.6405,0.7383,-0.678,55.814037,37.500313,219.066,0.0274,2181
0.203513,-0.169993,10.017646,-0.013483,-0.067163,0.819721,-4.26,-18.12,-49.14,169.6405,0.7383,-0.678,55.814037,37.500313,219.066,0.0274,2191
0.203513,-0.169993,10.017646,0.000567,-0.012186,0.821554,-4.44,-17.82,-48.96,169.3698,0.7664,-0.583,55.814037,37.500313,219.066,0.0274,2201
0.337593,-0.189148,9.912297,0.00973,-0.014629,0.820332,-4.44,-17.82,-48.96,169.3698,0.7664,-0.583,55.814037,37.500313,219.066,0.0274,2211
0.356747,-0.131685,9.77343,0.01706,-0.044561,0.811169,-4.62,-17.52,-49.14,169.3698,0.7664,-0.583,55.814037,37.500313,219.066,0.0274,2221
0.232245,-0.107742,9.871595,0.010341,0.008584,0.812391,-4.62,-17.52,-49.14,169.3698,0.7664,-0.583,55.814037,37.500313,219.066,0.0274,2231
0.090982,-0.146051,9.730332,-0.000655,-0.028679,0.810558,-5.1,-18.12,-48.66,166.2389,0.8379,-0.4869,55.814037,37.500313,219.066,0.0274,2241
0.090982,-0.146051,9.730332,-0.01165,-0.037842,0.814224,-5.04,-18.3,-49.08,166.2389,0.8379,-0.4869,55.814037,37.500313,219.066,0.0274,2251
0.064645,-0.191542,9.840469,-0.015316,-0.010964,0.817889,-5.04,-18.3,-49.08,166.2389,0.8379,-0.4869,55.814037,37.500313,219.066,0.0274,2261
0.064645,-0.227456,9.847652,-0.006153,-0.03662,0.82583,-5.46,-18.6,-49.44,166.2389,0.8379,-0.4869,55.814037,37.500313,219.066,0.0274,2271
0.138868,-0.198725,9.907509,0.006676,-0.025014,0.827663,-5.46,-18.6,-49.44,166.2389,0.8379,-0.4869,55.814037,37.500313,219.066,0.0274,2280
0.138868,-0.198725,9.907509,0.006676,-0.025014,0.827663,-5.88,-18.9,-49.32,164.5169,0.8712,-0.6203,55.814037,37.500313,219.066,0.0274,2291
0.241822,-0.205908,9.828498,0.013395,-0.012186,0.829495,-5.46,-18.9,-49.56,164.5169,0.8712,-0.6203,55.814037,37.500313,219.066,0.0274,2301
0.514769,-0.217879,10.0368,0.00973,-0.019516,0.833771,-5.46,-18.9,-49.56,164.5169,0.8712,-0.6203,55.814037,37.500313,219.066,0.0274,2310
0.383084,-0.155628,9.680053,0.000567,0.037295,0.8185,-5.04,-18.24,-48.66,164.5169,0.8712,-0.6203,55.814037,37.500313,219.066,0.0274,2320
0.383084,-0.155628,9.680053,0.007286,-0.021959,0.815445,-5.04,-18.24,-48.66,164.5169,0.8712,-0.6203,55.814037,37.500313,219.066,0.0274,2330
0.169994,-0.112531,9.885961,0.010341,0.015914,0.822165,-5.1,-18.54,-48.42,167.5263,0.9536,-0.7403,55.814037,37.500313,219.066,0.0274,2341
-0.098165,-0.186753,9.751882,0.008508,0.01286,0.831328,-5.1,-18.54,-48.42,167.5263,0.9536,-0.7403,55.814037,37.500313,219.066,0.0274,2351
-0.268159,-0.253793,9.778218,0.007286,-0.021959,0.855152,-5.22,-18.78,-49.44,167.5263,0.9536,-0.7403,55.814037,37.500313,219.066,0.0274,2360
-0.268159,-0.253793,9.778218,0.007286,-0.021959,0.855152,-5.22,-18.78,-49.44,167.5263,0.9536,-0.7403,55.814037,37.500313,219.066,0.0274,2370
-0.155628,-0.217879,9.850046,-0.004931,-0.023181,0.870423,-5.4,-18.06,-49.56,167.3026,0.9943,-0.8579,55.814037,37.500313,219.066,0.0274,2381
-0.026337,-0.172388,9.763853,-0.003098,-0.02929,0.876532,-5.4,-18.06,-49.56,167.3026,0.9943,-0.8579,55.814037,37.500313,219.066,0.0274,2390
0.210696,-0.210696,9.804555,-0.002487,-0.045172,0.885695,-5.28,-17.52,-48.96,167.3026,0.9943,-0.8579,55.814037,37.500313,219.066,0.0274,2401
0.304073,-0.220273,9.933846,-4.4E-05,-0.024403,0.891193,-5.28,-17.52,-48.96,167.3026,0.9943,-0.8579,55.814037,37.500313,219.066,0.0274,2411
0.184359,-0.217879,9.79019,-4.4E-05,-0.013407,0.890582,-5.22,-17.94,-49.2,166.8268,1.0652,-0.6711,55.814037,37.500313,219.066,0.0274,2421
0.184359,-0.217879,9.79019,0.002399,-0.025625,0.893636,-5.22,-17.94,-49.2,166.8268,1.0652,-0.6711,55.814037,37.500313,219.066,0.0274,2430
0.059857,-0.191542,9.866806,0.003621,-0.010353,0.909519,-5.7,-18.66,-50.04,166.8268,1.0652,-0.6711,55.814037,37.500313,219.066,0.0274,2441
-0.095771,-0.244216,9.854836,0.001789,-0.030511,0.929066,-5.7,-18.66,-50.04,166.8268,1.0652,-0.6711,55.814037,37.500313,219.066,0.0274,2451
-0.095771,-0.244216,9.854836,0.001789,-0.030511,0.929066,-6.24,-18.18,-49.92,164.0558,1.1188,-0.6633,55.814037,37.500313,219.066,0.0274,2460
-0.038308,-0.251399,9.794978,0.000567,-0.028679,0.932731,-6.24,-18.18,-49.92,164.0558,1.1188,-0.6633,55.814037,37.500313,219.066,0.0274,2471
0.227456,-0.21309,9.842864,-0.005542,-0.036009,0.937007,-6.6,-18.06,-48.78,164.0558,1.1188,-0.6633,55.814037,37.500313,219.066,0.0274,2481
0.416604,-0.191542,9.845258,-0.003098,-0.035398,0.933342,-6.6,-18.06,-48.78,164.0558,1.1188,-0.6633,55.814037,37.500313,219.066,0.0274,2490
0.421392,-0.196331,9.792584,-0.003098,-0.02257,0.927844,-6.78,-18.96,-48.36,162.1156,1.1522,-0.6657,55.814037,37.500313,219.066,0.0274,2501
0.421392,-0.196331,9.792584,0.002399,-0.020738,0.922347,-6.78,-18.96,-48.36,162.1156,1.1522,-0.6657,55.814037,37.500313,219.066,0.0274,2510
0.29689,-0.26337,9.869201,-4.4E-05,-0.015851,0.923568,-7.08,-19.02,-48.84,162.1156,1.1522,-0.6657,55.814037,37.500313,219.066,0.0274,2520
0.452518,-0.328016,9.80695,-0.001266,-0.02257,0.927234,-7.08,-19.02,-48.84,162.1156,1.1522,-0.6657,55.814037,37.500313,219.066,0.0274,2530
0.337593,-0.342381,10.36721,-0.003709,0.028132,0.925401,-7.44,-18.96,-48.96,162.2372,1.1838,-0.6891,55.814037,37.500313,219.066,0.0274,2540
0.354353,-0.359141,9.222747,0.006676,0.073946,0.912573,-7.44,-18.96,-48.96,162.2372,1.1838,-0.6891,55.814037,37.500313,219.066,0.0274,2551
0.354353,-0.359141,9.222747,0.028056,-0.042118,0.916238,-7.26,-19.14,-50.04,162.2372,1.1838,-0.6891,55.814037,37.500313,219.066,0.0274,2560
0.114925,-0.110137,10.340873,0.023169,0.103879,0.937618,-7.26,-19.14,-50.04,162.2372,1.1838,-0.6891,55.814037,37.500313,219.066,0.0274,2570
-0.447729,-0.325621,9.184438,0.021336,0.035462,0.952279,-7.32,-19.2,-50.34,162.6768,1.2819,-0.8307,55.814037,37.500313,219.066,0.0274,2581
-0.447729,-0.325621,9.184438,0.002399,-0.063498,0.977325,-7.32,-19.2,-50.34,162.6768,1.2819,-0.8307,55.814037,37.500313,219.066,0.0274,2590
-0.277736,-0.232245,10.225947,-0.016537,0.053177,1.006646,-7.68,-19.32,-48.9,162.6768,1.2819,-0.8307,55.814037,37.500313,219.066,0.0274,2601
-0.311256,-0.177176,9.601042,-0.013483,-0.077548,1.023139,-7.68,-19.32,-48.9,162.6768,1.2819,-0.8307,55.814037,37.500313,219.066,0.0274,2611
0.009577,-0.31365,9.761458,-0.013483,-0.077548,1.023139,-7.62,-19.38,-48.42,160.1323,1.3024,-0.8831,55.814037,37.500313,219.066,0.0274,2621
0.009577,-0.31365,9.761458,-0.003709,-0.04334,1.043909,-7.62,-19.38,-48.42,160.1323,1.3024,-0.8831,55.814037,37.500313,219.066,0.0274,2631
0.234639,-0.325621,10.187639,-0.005542,0.023856,1.047574,-7.5,-19.08,-48.36,160.1323,1.3024,-0.8831,55.814037,37.500313,219.066,0.0274,2641
0.29689,-0.299284,9.692024,0.005454,-0.076326,1.047574,-7.68,-19.32,-48.48,160.1323,1.3024,-0.8831,55.814037,37.500313,219.066,0.0274,2651
0.29689,-0.299284,9.692024,0.006065,-0.002412,1.048796,-7.68,-19.32,-48.48,160.1323,1.3024,-0.8831,55.814037,37.500313,219.066,0.0274,2660
0.268159,-0.299284,9.909904,-0.000655,-0.018905,1.04452,-7.8,-19.14,-48.48,160.216,1.3806,-0.8948,55.814037,37.500313,219.066,0.0274,2671
0.284919,-0.292102,9.720756,-0.001877,-0.065942,1.031081,-7.8,-19.14,-48.48,160.216,1.3806,-0.8948,55.814037,37.500313,219.066,0.0274,2680
0.375901,-0.308861,9.885961,-0.005542,-0.002412,1.031081,-8.22,-18.78,-48.42,160.216,1.3806,-0.8948,55.814037,37.500313,219.066,0.0274,2691
0.392661,-0.287313,9.802161,-0.005542,-0.002412,1.031081,-7.68,-18.78,-48.24,160.216,1.3806,-0.8948,55.814037,37.500313,219.066,0.0274,2700
0.392661,-0.287313,9.802161,0.003621,-0.047005,1.020085,-7.68,-18.78,-48.24,160.216,1.3806,-0.8948,55.814037,37.500313,219.066,0.0274,2711
0.395055,-0.272947,9.888355,0.00973,-0.021349,1.014587,-7.5,-18.54,-48.24,162.7953,1.4201,-0.8936,55.814037,37.500313,219.066,0.0274,2721
0.201119,-0.258582,9.749487,0.010952,0.001864,1.015809,-7.5,-18.54,-48.24,162.7953,1.4201,-0.8936,55.814037,37.500313,219.066,0.0274,2731
0.196331,-0.256187,9.818921,0.009119,-0.03662,1.01642,-8.16,-18.78,-48.9,162.7953,1.4201,-0.8936,55.814037,37.500313,219.066,0.0274,2741
0.368718,-0.289707,9.921875,-0.003709,-0.025014,1.017031,-8.16,-18.78,-48.9,162.7953,1.4201,-0.8936,55.814037,37.500313,219.066,0.0274,2751
0.368718,-0.311256,9.751882,-0.010429,0.015303,1.014587,-8.4,-18.84,-48.6,160.3052,1.4474,-0.8841,55.814037,37.500313,219.066,0.0274,2761
0.318439,-0.311256,9.751882,-0.001877,-0.035398,1.008479,-8.4,-18.84,-48.6,160.3052,1.4474,-0.8841,55.814037,37.500313,219.066,0.0274,2770
0.316044,-0.378295,9.93624,0.005454,-0.003023,1.010922,-8.28,-19.02,-48.06,160.3052,1.4474,-0.8841,55.814037,37.500313,219.066,0.0274,2781
0.141262,-0.308861,9.883567,0.014006,0.004308,1.019474,-8.28,-19.02,-48.06,160.3052,1.4474,-0.8841,55.814037,37.500313,219.066,0.0274,2791
0.057463,-0.332804,9.62259,0.014006,0.004308,1.019474,-8.82,-19.2,-48.24,157.7848,1.4947,-0.8705,55.814037,37.500313,219.066,0.0274,2800
0.057463,-0.332804,9.62259,0.018282,-0.040285,1.021918,-8.82,-19.2,-48.24,157.7848,1.4947,-0.8705,55.814037,37.500313,219.066,0.0274,2810
0.0838,-0.277736,9.881172,0.010952,-0.006077,1.029859,-9.6,-19.38,-49.02,157.7848,1.4947,-0.8705,55.814037,37.500313,219.066,0.0274,2821
0.098165,-0.270553,9.668081,0.000567,-0.021959,1.037189,-9.6,-19.38,-49.02,157.7848,1.4947,-0.8705,55.814037,37.500313,219.066,0.0274,2831
0.191542,-0.277736,9.761458,-0.006153,-0.040896,1.039633,-9.66,-19.08,-48.3,155.5486,1.5475,-0.9206,55.814037,37.500313,219.066,0.0274,2841
0.258582,-0.308861,9.873989,-0.01104,-0.019516,1.040244,-9.66,-19.08,-48.3,155.5486,1.5475,-0.9206,55.814037,37.500313,219.066,0.0274,2850
0.258582,-0.308861,9.873989,-0.005542,-0.031733,1.035968,-9.24,-18.66,-47.82,155.5486,1.5475,-0.9206,55.814037,37.500313,219.066,0.0274,2861
0.299284,-0.33041,9.828498,-0.000655,-0.03662,1.033524,-9.24,-18.66,-47.82,155.5486,1.5475,-0.9206,55.814037,37.500313,219.066,0.0274,2870
0.31365,-0.339987,9.869201,0.003621,-0.018294,1.031692,-9.06,-18.54,-48.24,158.0885,1.6292,-0.9655,55.814037,37.500313,219.066,0.0274,2881
0.292102,-0.373507,9.804555,0.004843,-0.028679,1.029248,-9.06,-18.54,-48.24,158.0885,1.6292,-0.9655,55.814037,37.500313,219.066,0.0274,2890
0.292102,-0.373507,9.804555,0.00301,-0.034177,1.026805,-9.18,-18.54,-48.24,158.0885,1.6292,-0.9655,55.814037,37.500313,219.066,0.0274,2900
0.277736,-0.354353,9.816526,-0.001266,-0.019516,1.029859,-9.18,-18.54,-48.24,158.0885,1.6292,-0.9655,55.814037,37.500313,219.066,0.0274,2911
0.277736,-0.354353,9.816526,-0.001266,-0.019516,1.029859,-9.96,-18.72,-48.18,156.029,1.7113,-1.0915,55.814037,37.500313,219.066,0.0274,2920
0.342381,-0.339987,9.869201,0.001789,-0.013407,1.017031,-9.96,-18.72,-48.18,156.029,1.7113,-1.0915,55.814037,37.500313,219.066,0.0274,2931
0.517163,-0.385478,9.878778,0.001789,-0.013407,1.017031,-10.32,-18.9,-48.06,156.029,1.7113,-1.0915,55.814037,37.500313,219.066,0.0274,2941
0.486038,-0.375901,9.895537,0.00973,-0.003633,1.00909,-10.32,-18.9,-48.06,156.029,1.7113,-1.0915,55.814037,37.500313,219.066,0.0274,2950
0.349564,-0.323227,9.778218,0.016449,3.2E-05,1.007257,-9.66,-19.02,-47.94,156.4461,1.8234,-1.254,55.814037,37.500313,219.066,0.0274,2961
0.349564,-0.323227,9.778218,0.025001,0.007973,1.006035,-9.72,-18.72,-47.88,156.4461,1.8234,-1.254,55.814037,37.500313,219.066,0.0274,2970
0.146051,-0.289707,9.811738,0.019504,0.00614,1.008479,-9.72,-18.72,-47.88,156.4461,1.8234,-1.254,55.814037,37.500313,219.066,0.0274,2981
-0.052674,-0.306467,9.725544,0.010341,-0.00852,1.018253,-9.84,-18.42,-47.82,156.4461,1.8234,-1.254,55.814037,37.500313,219.066,0.0274,2990
-0.126897,-0.304073,9.737515,0.00301,-0.016462,1.029248,-9.84,-18.42,-47.82,156.4461,1.8234,-1.254,55.814037,37.500313,219.066,0.0274,3000
-0.052674,-0.22985,9.766247,-0.003709,-0.029901,1.042076,-10.98,-18.48,-47.82,153.5336,1.9114,-1.4785,55.814037,37.500313,219.066,0.0274,3011
-0.052674,-0.22985,9.766247,-0.004931,-0.039674,1.048185,-10.98,-18.48,-47.82,153.5336,1.9114,-1.4785,55.814037,37.500313,219.066,0.0274,3021
0.153234,-0.239427,9.778218,-0.007374,-0.042118,1.05185,-11.28,-18.42,-48.06,153.5336,1.9114,-1.4785,55.814037,37.500313,219.066,0.0274,3031
0.153234,-0.239427,9.778218,-0.007374,-0.042118,1.05185,-11.28,-18.42,-48.06,153.5336,1.9114,-1.4785,55.814037,37.500313,219.066,0.0274,3040
0.289707,-0.342381,9.826104,-0.008596,-0.031733,1.048185,-10.86,-18.54,-48.06,154.3237,1.9476,-1.2892,55.814037,37.500313,219.066,0.0274,3051
0.486038,-0.409421,9.871595,-0.007985,-0.027457,1.035968,-10.74,-18.12,-48,154.3237,1.9476,-1.2892,55.814037,37.500313,219.066,0.0274,3060
0.387873,-0.440547,9.842864,-0.001877,-0.023792,1.026805,-10.74,-18.12,-48,154.3237,1.9476,-1.2892,55.814037,37.500313,219.066,0.0274,3071
0.387873,-0.440547,9.842864,0.003621,-0.025625,1.019474,-10.56,-18.42,-48.06,154.3237,1.9476,-1.2892,55.814037,37.500313,219.066,0.0274,3080
0.306467,-0.426181,9.890749,0.010341,-0.023792,1.018253,-10.56,-18.42,-48.06,154.3237,1.9476,-1.2892,55.814037,37.500313,219.066,0.0274,3090
0.287313,-0.371113,9.840469,0.008508,-0.028679,1.012144,-10.56,-18.54,-47.52,154.4146,2.0119,-1.3066,55.814037,37.500313,219.066,0.0274,3101
0.368718,-0.316044,9.749487,0.004232,-0.027457,1.013976,-10.56,-18.54,-47.52,154.4146,2.0119,-1.3066,55.814037,37.500313,219.066,0.0274,3112
0.368718,-0.316044,9.749487,0.003621,-0.020738,1.010922,-10.8,-18.54,-47.34,154.4146,2.0119,-1.3066,55.814037,37.500313,219.066,0.0274,3121
0.418998,-0.306467,9.847652,-0.001266,-0.019516,1.000537,-10.8,-18.54,-47.34,154.4146,2.0119,-1.3066,55.814037,37.500313,219.066,0.0274,3131
0.418998,-0.318439,9.811738,-0.000655,-0.025014,0.994429,-10.86,-18.54,-47.7,154.7216,2.0938,-1.4295,55.814037,37.500313,219.066,0.0274,3141
0.418998,-0.318439,9.811738,0.004232,-0.014018,0.987709,-10.86,-18.54,-47.7,154.7216,2.0938,-1.4295,55.814037,37.500313,219.066,0.0274,3151
0.373507,-0.325621,9.797373,0.004232,-0.014018,0.987709,-11.34,-17.94,-47.76,154.7216,2.0938,-1.4295,55.814037,37.500313,219.066,0.0274,3160
0.282524,-0.351958,9.794978,0.006065,-0.017072,0.977325,-11.34,-17.94,-47.76,154.7216,2.0938,-1.4295,55.814037,37.500313,219.066,0.0274,3170
0.24661,-0.385478,9.881172,0.002399,-0.018905,0.979157,-11.7,-17.7,-47.88,151.6505,2.1119,-1.5869,55.814037,37.500313,219.066,0.0274,3180
0.289707,-0.395055,9.794978,-4.4E-05,-0.018294,0.977935,-11.7,-17.7,-47.88,151.6505,2.1119,-1.5869,55.814037,37.500313,219.066,0.0274,3191
0.289707,-0.395055,9.794978,0.002399,-0.023181,0.977325,-11.76,-17.58,-48.36,151.6505,2.1119,-1.5869,55.814037,37.500313,219.066,0.0274,3200
0.304073,-0.407027,9.816526,0.006676,-0.014629,0.970605,-11.76,-17.58,-48.36,151.6505,2.1119,-1.5869,55.814037,37.500313,219.066,0.0274,3211
0.272947,-0.423787,9.912297,0.004232,-0.019516,0.972438,-11.64,-17.58,-48.18,151.8249,2.1346,-1.6666,55.814037,37.500313,219.066,0.0274,3220
0.22985,-0.418998,9.866806,0.007897,-0.02257,0.97427,-11.64,-17.58,-48.18,151.8249,2.1346,-1.6666,55.814037,37.500313,219.066,0.0274,3231
0.270553,-0.361535,9.780613,0.00973,-0.025625,0.971216,-12.12,-17.1,-47.4,151.8249,2.1346,-1.6666,55.814037,37.500313,219.066,0.0274,3240
0.33041,-0.289707,9.763853,0.009119,-0.030511,0.967551,-12.12,-17.34,-47.4,151.8249,2.1346,-1.6666,55.814037,37.500313,219.066,0.0274,3251
0.33041,-0.289707,9.763853,0.009119,-0.030511,0.967551,-12.12,-17.34,-47.4,151.8249,2.1346,-1.6666,55.814037,37.500313,219.066,0.0274,3260
0.366324,-0.284919,9.785401,0.001178,-0.02929,0.953501,-12.06,-17.64,-47.58,151.8673,2.2037,-1.6525,55.814037,37.500313,219.066,0.0274,3271
0.483644,-0.292102,9.830893,-0.004931,-0.028068,0.941284,-11.88,-18.06,-47.64,151.8673,2.2037,-1.6525,55.814037,37.500313,219.066,0.0274,3280
0.483644,-0.292102,9.830893,-0.009207,-0.031122,0.925401,-11.88,-18.06,-47.64,151.8673,2.2037,-1.6525,55.814037,37.500313,219.066,0.0274,3291
0.531529,-0.332804,9.835681,-0.005542,-0.021349,0.907686,-11.82,-18.18,-47.34,151.8673,2.2037,-1.6525,55.814037,37.500313,219.066,0.0274,3300
0.514769,-0.335198,9.814133,0.001178,-0.021349,0.88936,-11.82,-18.18,-47.34,151.8673,2.2037,-1.6525,55.814037,37.500313,219.066,0.0274,3311
0.409421,-0.361535,9.893144,0.00301,-0.020127,0.883251,-12.3,-17.82,-47.46,151.9115,2.1901,-1.7428,55.814037,37.500313,219.066,0.0274,3321
0.409421,-0.361535,9.893144,-4.4E-05,-0.017683,0.871034,-12.3,-17.82,-47.46,151.9115,2.1901,-1.7428,55.814037,37.500313,219.066,0.0274,3330
0.447729,-0.464489,9.852441,-0.002487,-0.01524,0.857595,-12.72,-17.52,-47.7,151.9115,2.1901,-1.7428,55.814037,37.500313,219.066,0.0274,3340
0.471672,-0.411815,9.909904,0.005454,-0.004244,0.849654,-12.72,-17.52,-47.7,151.9115,2.1901,-1.7428,55.814037,37.500313,219.066,0.0274,3350
0.462095,-0.457306,9.811738,0.018282,-0.017683,0.841713,-12.9,-17.28,-48.3,148.7067,2.2056,-1.8332,55.814037,37.500313,219.066,0.0274,3361
0.462095,-0.457306,9.811738,0.018893,-0.001801,0.833771,-12.9,-17.28,-48.3,148.7067,2.2056,-1.8332,55.814037,37.500313,219.066,0.0274,3370
0.371113,-0.41421,10.010463,0.022558,-0.000579,0.828273,-12.96,-17.1,-48.72,148.7067,2.2056,-1.8332,55.814037,37.500313,219.066,0.0274,3380
0.284919,-0.356747,9.684841,0.021947,-0.01524,0.826441,-12.96,-17.1,-48.72,148.7067,2.2056,-1.8332,55.814037,37.500313,219.066,0.0274,3391
0.208302,-0.265764,9.859624,0.018282,3.2E-05,0.823997,-12.78,-17.04,-48.42,148.6629,2.2438,-1.7871,55.814037,37.500313,219.066,0.0274,3400
0.208302,-0.265764,9.859624,0.007286,-0.016462,0.8185,-12.78,-17.04,-48.42,148.6629,2.2438,-1.7871,55.814037,37.500313,219.066,0.0274,3411
0.256187,-0.22985,9.713573,0.001178,-0.025625,0.813613,-13.02,-17.34,-48.18,148.6629,2.2438,-1.7871,55.814037,37.500313,219.066,0.0274,3420
0.232245,-0.208302,9.761458,-0.007374,-0.012186,0.808726,-13.02,-17.34,-48.18,148.6629,2.2438,-1.7871,55.814037,37.500313,219.066,0.0274,3431
0.284919,-0.301679,9.811738,-0.007374,-0.012186,0.808726,-13.62,-17.1,-48.06,146.4109,2.257,-1.7268,55.814037,37.500313,219.066,0.0274,3440
0.284919,-0.301679,9.811738,-0.010429,-0.034788,0.803228,-13.62,-17.1,-48.06,146.4109,2.257,-1.7268,55.814037,37.500313,219.066,0.0274,3450
0.433364,-0.308861,9.828498,-0.01165,-0.030511,0.786124,-13.08,-16.44,-47.94,146.4109,2.257,-1.7268,55.814037,37.500313,219.066,0.0274,3461
0.490826,-0.351958,9.823709,-0.007985,-0.018905,0.775739,-13.08,-16.44,-47.94,146.4109,2.257,-1.7268,55.814037,37.500313,219.066,0.0274,3470
0.584203,-0.426181,9.921875,-0.001877,-0.02929,0.753748,-12.36,-16.08,-47.52,149.5224,2.3207,-1.7121,55.814037,37.500313,219.066,0.0274,3481
0.612934,-0.41421,9.816526,0.002399,-0.020127,0.730535,-12.36,-16.08,-47.52,149.5224,2.3207,-1.7121,55.814037,37.500313,219.066,0.0274,3490
0.612934,-0.41421,9.816526,0.004843,-0.017683,0.711598,-12.9,-15.54,-46.98,149.5224,2.3207,-1.7121,55.814037,37.500313,219.066,0.0274,3501
0.572232,-0.378295,9.876384,0.007286,-0.015851,0.696327,-12.9,-15.54,-46.98,149.5224,2.3207,-1.7121,55.814037,37.500313,219.066,0.0274,3510
0.483644,-0.325621,9.871595,0.003621,-0.014629,0.676779,-13.5,-15.48,-47.22,145.6153,2.3791,-1.6982,55.814037,37.500313,219.066,0.0274,3520
0.416604,-0.289707,9.761458,0.005454,-0.019516,0.660896,-13.5,-15.48,-47.22,145.6153,2.3791,-1.6982,55.814037,37.500313,219.066,0.0274,3531
0.469278,-0.323227,9.876384,0.003621,-0.017683,0.651733,-13.56,-15.78,-47.88,145.6153,2.3791,-1.6982,55.814037,37.500313,219.066,0.0274,3540
0.469278,-0.323227,9.876384,0.001789,-0.011575,0.637683,-13.56,-15.78,-47.88,145.6153,2.3791,-1.6982,55.814037,37.500313,219.066,0.0274,3551
0.505192,-0.354353,9.962578,0.005454,0.000643,0.626077,-13.74,-15.3,-48.12,143.5016,2.408,-1.6723,55.814037,37.500313,219.066,0.0274,3561
0.445335,-0.323227,9.70639,0.014617,-0.005466,0.612638,-13.74,-15.3,-48.12,143.5016,2.408,-1.6723,55.814037,37.500313,219.066,0.0274,3571
0.445335,-0.323227,9.70639,0.014617,-0.005466,0.612638,-13.56,-15.24,-48.18,143.5016,2.408,-1.6723,55.814037,37.500313,219.066,0.0274,3581
0.316044,-0.325621,9.897932,0.01706,0.003086,0.607751,-13.56,-15.24,-48.18,143.5016,2.408,-1.6723,55.814037,37.500313,219.066,0.0274,3591
0.210696,-0.28013,9.672871,0.010341,-0.009742,0.59981,-13.44,-15.48,-47.94,145.7011,2.4355,-1.6361,55.814037,37.500313,219.066,0.0274,3600
0.215485,-0.272947,9.792584,0.003621,-0.011575,0.597977,-13.44,-15.48,-47.94,145.7011,2.4355,-1.6361,55.814037,37.500313,219.066,0.0274,3611
0.215485,-0.272947,9.792584,-0.000655,-0.012796,0.593701,-13.92,-15.72,-47.64,145.7011,2.4355,-1.6361,55.814037,37.500313,219.066,0.0274,3621
0.308861,-0.325621,9.816526,-0.006763,-0.024403,0.591869,-13.92,-15.72,-47.64,145.7011,2.4355,-1.6361,55.814037,37.500313,219.066,0.0274,3631
0.356747,-0.320833,9.792584,-0.006763,-0.014018,0.582706,-13.98,-15.48,-47.64,143.4115,2.4489,-1.5939,55.814037,37.500313,219.066,0.0274,3641
0.328016,-0.34717,9.835681,-0.001877,-0.011575,0.574764,-13.98,-15.48,-47.64,143.4115,2.4489,-1.5939,55.814037,37.500313,219.066,0.0274,3650
0.328016,-0.344776,9.900327,0.004843,-0.014629,0.566823,-13.26,-15.06,-47.16,143.4115,2.4489,-1.5939,55.814037,37.500313,219.066,0.0274,3661
0.328016,-0.344776,9.900327,0.007286,-0.010353,0.565601,-13.26,-15.06,-47.16,143.4115,2.4489,-1.5939,55.814037,37.500313,219.066,0.0274,3670
0.301679,-0.34717,9.775824,0.004232,-0.014018,0.558882,-13.38,-15,-46.68,145.5219,2.4915,-1.5738,55.814037,37.500313,219.066,0.0274,3681
0.270553,-0.342381,9.842864,0.001789,-0.014629,0.558882,-13.8,-15,-47.04,145.5219,2.4915,-1.5738,55.814037,37.500313,219.066,0.0274,3690
0.292102,-0.34717,9.792584,-0.00432,-0.017072,0.548497,-13.8,-15,-47.04,145.5219,2.4915,-1.5738,55.814037,37.500313,219.066,0.0274,3701
0.292102,-0.34717,9.792584,-0.00432,-0.017072,0.548497,-13.26,-15.6,-47.64,145.5219,2.4915,-1.5738,55.814037,37.500313,219.066,0.0274,3711
0.306467,-0.335198,9.842864,-0.001266,-0.015851,0.548497,-13.26,-15.6,-47.64,145.5219,2.4915,-1.5738,55.814037,37.500313,219.066,0.0274,3721
0.294496,-0.356747,9.852441,0.001789,-0.011575,0.547275,-13.32,-16.08,-48,147.1406,2.5317,-1.5419,55.814037,37.500313,219.066,0.0274,3730
0.294496,-0.392661,9.859624,0.006065,-0.012186,0.546665,-13.32,-16.08,-48,147.1406,2.5317,-1.5419,55.814037,37.500313,219.066,0.0274,3741
0.294496,-0.392661,9.859624,0.007897,-0.005466,0.544832,-14.16,-15.48,-47.7,147.1406,2.5317,-1.5419,55.814037,37.500313,219.066,0.0274,3751
0.237033,-0.38069,9.859624,0.007897,0.002475,0.544221,-14.16,-15.48,-47.7,147.1406,2.5317,-1.5419,55.814037,37.500313,219.066,0.0274,3760
0.169994,-0.387873,9.725544,0.010341,-0.009131,0.547275,-13.92,-14.52,-47.46,143.2113,2.4133,-1.5805,55.814037,37.500313,219.066,0.0274,3771
0.117319,-0.351958,9.823709,0.006676,-0.006688,0.548497,-13.92,-14.52,-47.46,143.2113,2.4133,-1.5805,55.814037,37.500313,219.066,0.0274,3780
0.117319,-0.351958,9.823709,0.001178,-0.018294,0.553995,-13.8,-14.1,-47.58,143.2113,2.4133,-1.5805,55.814037,37.500313,219.066,0.0274,3791
0.158022,-0.378295,9.775824,-0.001877,-0.02257,0.555217,-14.16,-14.1,-47.46,143.2113,2.4133,-1.5805,55.814037,37.500313,219.066,0.0274,3802
0.234639,-0.34717,9.79019,-4.4E-05,-0.012186,0.55766,-14.16,-14.1,-47.46,143.2113,2.4133,-1.5805,55.814037,37.500313,219.066,0.0274,3811
0.260976,-0.342381,9.830893,0.00301,-0.014629,0.558882,-14.28,-14.58,-47.82,143.0963,2.322,-1.5154,55.814037,37.500313,219.066,0.0274,3821
0.208302,-0.344776,9.818921,0.004232,-0.00852,0.561936,-14.28,-14.58,-47.82,143.0963,2.322,-1.5154,55.814037,37.500313,219.066,0.0274,3831
0.208302,-0.344776,9.818921,0.004232,-0.00852,0.561936,-13.86,-15.54,-46.86,143.0963,2.322,-1.5154,55.814037,37.500313,219.066,0.0274,3841
0.148445,-0.399844,9.787795,0.006676,-0.004244,0.569877,-13.2,-15.66,-47.4,143.0963,2.322,-1.5154,55.814037,37.500313,219.066,0.0274,3851
0.138868,-0.41421,9.866806,0.003621,-0.009742,0.57904,-13.2,-15.66,-47.4,143.0963,2.322,-1.5154,55.814037,37.500313,219.066,0.0274,3861
0.055068,-0.41421,9.718362,0.003621,0.001253,0.590036,-14.16,-14.76,-47.46,142.7066,2.2492,-1.4209,55.814037,37.500313,219.066,0.0274,3871
0.055068,-0.41421,9.718362,0.008508,-0.004855,0.599199,-14.04,-14.16,-48.18,142.7066,2.2492,-1.4209,55.814037,37.500313,219.066,0.0274,3881
-0.03352,-0.385478,9.754275,0.007286,-0.011575,0.608973,-14.04,-14.16,-48.18,142.7066,2.2492,-1.4209,55.814037,37.500313,219.066,0.0274,3891
0.052674,-0.306467,9.780613,0.004232,-0.019516,0.621801,-14.82,-14.28,-48.12,142.7066,2.2492,-1.4209,55.814037,37.500313,219.066,0.0274,3901
0.189148,-0.277736,9.730332,-0.003098,-0.025625,0.625466,-14.82,-14.28,-48.12,142.7066,2.2492,-1.4209,55.814037,37.500313,219.066,0.0274,3910
0.239427,-0.335198,9.828498,-0.013483,-0.016462,0.626077,-14.4,-14.46,-47.64,140.7306,2.2447,-1.2093,55.814037,37.500313,219.066,0.0274,3922
0.239427,-0.335198,9.828498,-0.017759,-0.018905,0.626688,-14.4,-14.46,-47.64,140.7306,2.2447,-1.2093,55.814037,37.500313,219.066,0.0274,3930
0.251399,-0.428575,9.799767,-0.017759,-0.018905,0.626688,-14.28,-14.22,-47.58,140.7306,2.2447,-1.2093,55.814037,37.500313,219.066,0.0274,3940
0.174782,-0.476461,9.873989,-0.01104,-0.016462,0.634629,-14.28,-14.22,-47.58,140.7306,2.2447,-1.2093,55.814037,37.500313,219.066,0.0274,3950
0.062251,-0.505192,9.862018,-0.003098,-0.010353,0.637683,-14.58,-13.98,-47.88,138.3219,2.2179,-1.0504,55.814037,37.500313,219.066,0.0274,3961
0.062251,-0.505192,9.862018,0.006065,-0.013407,0.646846,-14.58,-13.98,-47.88,138.3219,2.2179,-1.0504,55.814037,37.500313,219.066,0.0274,3970
0.01676,-0.490826,9.842864,0.00973,-0.017683,0.655399,-14.22,-13.92,-47.46,138.3219,2.2179,-1.0504,55.814037,37.500313,219.066,0.0274,3981
0.105348,-0.459701,9.785401,0.009119,-0.015851,0.665783,-14.22,-13.92,-47.46,138.3219,2.2179,-1.0504,55.814037,37.500313,219.066,0.0274,3990
0.205908,-0.426181,9.823709,0.003621,-0.021349,0.676779,-13.8,-13.86,-47.04,140.2504,2.2389,-1.0099,55.814037,37.500313,219.066,0.0274,4000
0.287313,-0.409421,9.883567,-0.000655,-0.017072,0.680444,-13.8,-13.86,-47.04,140.2504,2.2389,-1.0099,55.814037,37.500313,219.066,0.0274,4011
0.287313,-0.409421,9.883567,0.000567,-0.004855,0.687774,-13.5,-13.98,-46.98,140.2504,2.2389,-1.0099,55.814037,37.500313,219.066,0.0274,4021
0.256187,-0.399844,9.778218,0.006676,-0.009742,0.681666,-13.5,-13.98,-46.98,140.2504,2.2389,-1.0099,55.814037,37.500313,219.066,0.0274,4031
0.167599,-0.39745,9.771035,0.019504,-0.005466,0.689607,-13.74,-14.16,-47.34,140.2431,2.2565,-0.9914,55.814037,37.500313,219.066,0.0274,4040
0.107742,-0.354353,9.845258,0.014617,-0.00119,0.692661,-13.74,-14.16,-47.34,140.2431,2.2565,-0.9914,55.814037,37.500313,219.066,0.0274,4051
0.107742,-0.354353,9.845258,0.007897,-0.019516,0.696327,-13.92,-13.26,-47.76,140.2431,2.2565,-0.9914,55.814037,37.500313,219.066,0.0274,4060
0.0838,-0.375901,9.677659,-0.003098,-0.021959,0.696327,-13.92,-13.26,-47.76,140.2431,2.2565,-0.9914,55.814037,37.500313,219.066,0.0274,4071
0.146051,-0.404632,9.785401,-0.01104,-0.02929,0.695716,-14.04,-12.9,-47.94,138.4192,2.2577,-0.9399,55.814037,37.500313,219.066,0.0274,4081
0.332804,-0.404632,9.823709,-0.01104,-0.02929,0.695716,-14.04,-12.9,-47.94,138.4192,2.2577,-0.9399,55.814037,37.500313,219.066,0.0274,4090
0.442941,-0.39745,9.869201,-0.008596,-0.028068,0.69144,-14.88,-12.96,-47.76,138.4192,2.2577,-0.9399,55.814037,37.500313,219.066,0.0274,4101
0.442941,-0.39745,9.869201,0.000567,-0.015851,0.679833,-14.88,-12.96,-47.76,138.4192,2.2577,-0.9399,55.814037,37.500313,219.066,0.0274,4111
0.371113,-0.407027,9.845258,0.009119,-0.012186,0.670059,-15.42,-12.9,-47.88,136.402,2.3145,-0.9243,55.814037,37.500313,219.066,0.0274,4121
0.244216,-0.423787,9.828498,0.00973,-0.014018,0.668838,-15.42,-12.9,-47.88,136.402,2.3145,-0.9243,55.814037,37.500313,219.066,0.0274,4130
0.217879,-0.411815,9.763853,0.004843,-0.01524,0.665172,-14.88,-13.38,-47.94,136.402,2.3145,-0.9243,55.814037,37.500313,219.066,0.0274,4141
0.251399,-0.41421,9.802161,-0.006153,-0.02257,0.662729,-14.88,-13.38,-47.94,136.402,2.3145,-0.9243,55.814037,37.500313,219.066,0.0274,4150
0.251399,-0.41421,9.802161,-0.010429,-0.021959,0.652955,-14.4,-13.8,-47.82,140.7095,2.3524,-1.1115,55.814037,37.500313,219.066,0.0274,4160
0.311256,-0.430969,9.830893,-0.006153,-0.023181,0.648679,-14.4,-13.8,-47.82,140.7095,2.3524,-1.1115,55.814037,37.500313,219.066,0.0274,4170
0.385478,-0.418998,9.859624,-0.006153,-0.023181,0.648679,-14.28,-13.5,-47.88,140.7095,2.3524,-1.1115,55.814037,37.500313,219.066,0.0274,4181
0.351958,-0.392661,9.838076,0.00301,-0.020127,0.638294,-14.28,-13.5,-47.88,140.7095,2.3524,-1.1115,55.814037,37.500313,219.066,0.0274,4190
0.337593,-0.402238,9.823709,0.012173,-0.012186,0.62791,-14.16,-12.72,-47.46,139.1007,2.4036,-1.253,55.814037,37.500313,219.066,0.0274,4201
0.323227,-0.375901,9.783007,0.009119,-0.015851,0.626077,-14.16,-12.72,-47.46,139.1007,2.4036,-1.253,55.814037,37.500313,219.066,0.0274,4211
0.323227,-0.375901,9.783007,0.003621,-0.017072,0.61386,-14.52,-12.54,-47.76,139.1007,2.4036,-1.253,55.814037,37.500313,219.066,0.0274,4221
0.301679,-0.375901,9.814133,-0.006153,-0.01524,0.606529,-14.52,-12.54,-47.76,139.1007,2.4036,-1.253,55.814037,37.500313,219.066,0.0274,4230
0.270553,-0.399844,9.835681,-0.006153,-0.01524,0.604697,-15.06,-12.9,-48,137.3235,2.4031,-1.374,55.814037,37.500313,219.066,0.0274,4241
0.696734,-0.498009,9.854836,-0.00432,-0.026235,0.601642,-15.06,-12.9,-48,137.3235,2.4031,-1.374,55.814037,37.500313,219.066,0.0274,4252
0.756591,-0.421392,10.213976,-0.00432,0.008584,0.588203,-15.06,-12.9,-47.28,137.3235,2.4031,-1.374,55.814037,37.500313,219.066,0.0274,4260
0.756591,-0.421392,10.213976,-0.00432,0.008584,0.588203,-15.06,-12.9,-47.28,137.3235,2.4031,-1.374,55.814037,37.500313,219.066,0.0274,4270
0.308861,-0.337593,9.512454,0.018893,0.025077,0.561325,-14.46,-12.18,-47.28,137.66,2.4208,-1.5213,55.814037,37.500313,219.066,0.0274,4280
0.040703,-0.411815,10.029617,0.026834,0.010416,0.554606,-14.46,-12.18,-47.28,137.66,2.4208,-1.5213,55.814037,37.500313,219.066,0.0274,4291
-0.052674,-0.36393,9.859624,0.017671,0.04096,0.563158,-14.22,-12,-47.1,137.66,2.4208,-1.5213,55.814037,37.500313,219.066,0.0274,4302
-0.052674,-0.36393,9.859624,0.008508,-0.014018,0.562547,-14.22,-12,-47.1,137.66,2.4208,-1.5213,55.814037,37.500313,219.066,0.0274,4310
-0.129291,-0.375901,9.550762,-0.002487,-0.021349,0.567434,-15.3,-12.36,-47.04,135.3106,2.4225,-1.4087,55.814037,37.500313,219.066,0.0274,4321
-0.019154,-0.407027,9.933846,-0.017759,-0.016462,0.576597,-15.3,-12.36,-47.04,135.3106,2.4225,-1.4087,55.814037,37.500313,219.066,0.0274,4330
0.383084,-0.395055,9.842864,-0.016537,-0.05739,0.572932,-15.54,-11.82,-47.16,135.3106,2.4225,-1.4087,55.814037,37.500313,219.066,0.0274,4341
0.500403,-0.409421,9.866806,-0.010429,-0.018294,0.565601,-15.54,-11.82,-47.16,135.3106,2.4225,-1.4087,55.814037,37.500313,219.066,0.0274,4350
0.500403,-0.409421,9.866806,0.000567,0.009806,0.559493,-15.12,-11.46,-46.74,133.1788,2.4549,-1.369,55.814037,37.500313,219.066,0.0274,4361
0.174782,-0.462095,9.921875,0.012173,-0.020738,0.557049,-15.12,-11.46,-46.74,133.1788,2.4549,-1.369,55.814037,37.500313,219.066,0.0274,4371
0.03352,-0.459701,9.833286,0.00973,-0.004855,0.566823,-15.06,-11.82,-46.86,133.1788,2.4549,-1.369,55.814037,37.500313,219.066,0.0274,4380
0.009577,-0.442941,9.727939,0.005454,-0.013407,0.573543,-15.06,-11.82,-46.86,133.1788,2.4549,-1.369,55.814037,37.500313,219.066,0.0274,4390
0.009577,-0.442941,9.727939,-0.001266,-0.026846,0.583316,-15.12,-11.88,-47.16,135.2914,2.4591,-1.3623,55.814037,37.500313,219.066,0.0274,4401
0.055068,-0.454912,9.885961,-0.009818,-0.018294,0.590647,-15.12,-11.88,-47.16,135.2914,2.4591,-1.3623,55.814037,37.500313,219.066,0.0274,4410
0.150839,-0.416604,9.732727,-0.006153,-0.019516,0.599199,-15.42,-11.34,-47.22,135.2914,2.4591,-1.3623,55.814037,37.500313,219.066,0.0274,4421
0.158022,-0.399844,9.907509,0.001789,-0.017683,0.602253,-15.42,-11.34,-47.22,135.2914,2.4591,-1.3623,55.814037,37.500313,219.066,0.0274,4430
0.158022,-0.399844,9.907509,0.004843,-0.00852,0.605918,-14.64,-10.98,-47.28,132.9431,2.4856,-1.1995,55.814037,37.500313,219.066,0.0274,4441
0.088588,-0.402238,9.847652,0.004843,-0.00852,0.605918,-14.64,-10.98,-47.28,132.9431,2.4856,-1.1995,55.814037,37.500313,219.066,0.0274,4450
0.06704,-0.407027,9.766247,0.005454,-0.016462,0.616914,-14.64,-11.16,-47.28,132.9431,2.4856,-1.1995,55.814037,37.500313,219.066,0.0274,4461
0.079011,-0.454912,9.854836,-0.000655,-0.015851,0.623634,-14.64,-11.16,-47.28,132.9431,2.4856,-1.1995,55.814037,37.500313,219.066,0.0274,4471
0.064645,-0.490826,9.794978,-0.009207,-0.016462,0.634629,-15.36,-11.46,-47.46,132.6954,2.4926,-1.0464,55.814037,37.500313,219.066,0.0274,4480
0.064645,-0.490826,9.794978,-0.010429,-0.020738,0.640127,-15.36,-11.46,-47.46,132.6954,2.4926,-1.0464,55.814037,37.500313,219.066,0.0274,4490
0.038308,-0.507586,9.852441,-0.006153,-0.01524,0.650512,-14.82,-11.88,-47.82,132.6954,2.4926,-1.0464,55.814037,37.500313,219.066,0.0274,4500
0.062251,-0.519558,9.897932,0.001178,-0.016462,0.657231,-14.82,-11.88,-47.82,132.6954,2.4926,-1.0464,55.814037,37.500313,219.066,0.0274,4511
0.107742,-0.517163,9.833286,0.007897,-0.021349,0.66334,-14.64,-11.58,-47.52,134.7214,2.5293,-0.8878,55.814037,37.500313,219.066,0.0274,4521
0.107742,-0.517163,9.833286,0.008508,-0.016462,0.665783,-14.64,-11.58,-47.52,134.7214,2.5293,-0.8878,55.814037,37.500313,219.066,0.0274,4531
0.136474,-0.469278,9.799767,0.004232,-0.017072,0.669448,-15.06,-10.92,-46.98,134.7214,2.5293,-0.8878,55.814037,37.500313,219.066,0.0274,4541
0.189148,-0.442941,9.828498,-0.001266,-0.02257,0.674335,-15.06,-10.92,-46.98,134.7214,2.5293,-0.8878,55.814037,37.500313,219.066,0.0274,4551
0.189148,-0.442941,9.828498,-0.005542,-0.018905,0.676168,-14.82,-10.56,-47.16,132.4155,2.5763,-0.7904,55.814037,37.500313,219.066,0.0274,4560
0.198725,-0.454912,9.785401,-0.006763,-0.021349,0.674335,-14.82,-10.56,-47.16,132.4155,2.5763,-0.7904,55.814037,37.500313,219.066,0.0274,4570
0.150839,-0.469278,9.845258,-0.003098,-0.014629,0.674335,-14.94,-10.62,-47.34,132.4155,2.5763,-0.7904,55.814037,37.500313,219.066,0.0274,4581
0.093377,-0.536318,9.857229,0.00301,-0.017683,0.678001,-14.94,-10.62,-47.34,132.4155,2.5763,-0.7904,55.814037,37.500313,219.066,0.0274,4591
0.093377,-0.536318,9.857229,0.00301,-0.021349,0.679222,-15.66,-10.38,-47.16,128.2927,2.6047,-0.7666,55.814037,37.500313,219.066,0.0274,4601
0.150839,-0.531529,9.821315,0.00301,-0.021349,0.679222,-15.66,-10.38,-47.16,128.2927,2.6047,-0.7666,55.814037,37.500313,219.066,0.0274,4611
0.687157,-0.565049,9.876384,0.004232,-0.018294,0.68472,-15,-10.08,-47.1,128.2927,2.6047,-0.7666,55.814037,37.500313,219.066,0.0274,4621
0.756591,-0.502798,10.072714,0.00301,-0.00119,0.681055,-15,-10.08,-47.1,128.2927,2.6047,-0.7666,55.814037,37.500313,219.066,0.0274,4631
0.756591,-0.502798,10.072714,0.004232,0.056842,0.668227,-14.34,-10.08,-46.38,132.1561,2.6454,-0.7607,55.814037,37.500313,219.066,0.0274,4640
0.282524,-0.407027,9.510059,0.026223,0.017136,0.655399,-14.34,-10.08,-46.38,132.1561,2.6454,-0.7607,55.814037,37.500313,219.066,0.0274,4651
-0.153234,-0.359141,9.998491,0.03111,0.051344,0.668227,-14.1,-10.08,-46.68,132.1561,2.6454,-0.7607,55.814037,37.500313,219.066,0.0274,4661
-0.318439,-0.447729,9.713573,0.019504,0.023245,0.686553,-14.1,-10.08,-46.68,132.1561,2.6454,-0.7607,55.814037,37.500313,219.066,0.0274,4670
-0.505192,-0.517163,9.579494,0.007897,-0.014018,0.707933,-13.98,-9.96,-47.16,132.839,2.708,-0.9983,55.814037,37.500313,219.066,0.0274,4680
-0.505192,-0.517163,9.579494,-0.008596,-0.009742,0.730535,-13.98,-9.96,-47.16,132.839,2.708,-0.9983,55.814037,37.500313,219.066,0.0274,4690
-0.433364,-0.541106,9.799767,-0.016537,-0.051281,0.753748,-14.58,-9.36,-47.1,132.839,2.708,-0.9983,55.814037,37.500313,219.066,0.0274,4701
0.069434,-0.519558,9.833286,-0.014094,-0.058611,0.761078,-14.58,-9.36,-47.1,132.839,2.708,-0.9983,55.814037,37.500313,219.066,0.0274,4711
0.409421,-0.493221,9.883567,-0.006153,-0.009131,0.753748,-15.06,-9.48,-47.58,128.0991,2.7357,-0.7166,55.814037,37.500313,219.066,0.0274,4721
0.409421,-0.493221,9.883567,0.010952,-0.013407,0.751915,-15.06,-9.48,-47.58,128.0991,2.7357,-0.7166,55.814037,37.500313,219.066,0.0274,4731
0.265765,-0.435758,9.876384,0.010952,-0.013407,0.751915,-15.18,-10.02,-47.1,128.0991,2.7357,-0.7166,55.814037,37.500313,219.066,0.0274,4741
0.038308,-0.454912,9.763853,0.014617,-0.014629,0.752526,-15.18,-10.02,-47.1,128.0991,2.7357,-0.7166,55.814037,37.500313,219.066,0.0274,4752
-0.071828,-0.538712,9.730332,0.006676,-0.007909,0.7623,-14.94,-10.02,-46.14,129.9343,2.8188,-0.448,55.814037,37.500313,219.066,0.0274,4761
-0.071828,-0.538712,9.730332,-0.009207,-0.030511,0.772685,-14.94,-10.02,-46.14,129.9343,2.8188,-0.448,55.814037,37.500313,219.066,0.0274,4770
-0.05028,-0.569837,9.845258,-0.01837,-0.025625,0.782459,-14.94,-9.84,-45.9,129.9343,2.8188,-0.448,55.814037,37.500313,219.066,0.0274,4780
0.081405,-0.553077,9.77343,-0.010429,-0.033566,0.781237,-14.94,-9.84,-45.9,129.9343,2.8188,-0.448,55.814037,37.500313,219.066,0.0274,4790
0.268159,-0.493221,9.897932,0.003621,-0.025625,0.781237,-14.64,-9.84,-46.44,129.8659,2.8215,-0.4015,55.814037,37.500313,219.066,0.0274,4801
0.270553,-0.466884,9.850046,0.012784,-0.011575,0.776961,-14.64,-9.84,-46.44,129.8659,2.8215,-0.4015,55.814037,37.500313,219.066,0.0274,4811
0.270553,-0.466884,9.850046,0.012784,-0.011575,0.776961,-14.22,-9.78,-46.92,129.8659,2.8215,-0.4015,55.814037,37.500313,219.066,0.0274,4820
0.174782,-0.452518,9.737515,0.010952,-0.016462,0.771463,-14.22,-9.78,-46.92,129.8659,2.8215,-0.4015,55.814037,37.500313,219.066,0.0274,4831
0.112531,-0.486038,9.759064,0.003621,-0.015851,0.770852,-13.98,-9.06,-46.98,129.5889,2.841,-0.3745,55.814037,37.500313,219.066,0.0274,4841
0.107742,-0.5435,9.766247,-0.009207,-0.018294,0.771463,-13.98,-9.06,-46.98,129.5889,2.841,-0.3745,55.814037,37.500313,219.066,0.0274,4851
0.074223,-0.56026,9.816526,-0.01165,-0.026846,0.775739,-14.04,-8.52,-46.74,129.5889,2.841,-0.3745,55.814037,37.500313,219.066,0.0274,4860
0.074223,-0.56026,9.816526,-0.010429,-0.019516,0.778793,-14.4,-8.46,-46.32,129.5889,2.841,-0.3745,55.814037,37.500313,219.066,0.0274,4870
0.052674,-0.562655,9.881172,-0.001266,-0.017072,0.781848,-14.4,-8.46,-46.32,129.5889,2.841,-0.3745,55.814037,37.500313,219.066,0.0274,4881
0.112531,-0.536318,9.835681,0.011562,-0.024403,0.78368,-14.46,-8.88,-46.14,129.5623,2.8785,-0.3958,55.814037,37.500313,219.066,0.0274,4890
0.169994,-0.517163,9.775824,0.017671,-0.015851,0.786124,-14.46,-8.88,-46.14,129.5623,2.8785,-0.3958,55.814037,37.500313,219.066,0.0274,4900
0.234639,-0.509981,9.778218,0.011562,-0.019516,0.786735,-14.88,-9.18,-46.56,129.5623,2.8785,-0.3958,55.814037,37.500313,219.066,0.0274,4910
0.234639,-0.509981,9.778218,-0.001877,-0.017683,0.784291,-15.24,-8.88,-46.74,129.5623,2.8785,-0.3958,55.814037,37.500313,219.066,0.0274,4921
0.328016,-0.521952,9.852441,-0.009207,-0.006077,0.781848,-15.24,-8.88,-46.74,129.5623,2.8785,-0.3958,55.814037,37.500313,219.066,0.0274,4930
0.344776,-0.529135,9.862018,0.000567,0.006751,0.780015,-14.64,-8.94,-46.98,128.0478,2.956,-0.4994,55.814037,37.500313,219.066,0.0274,4940
0.117319,-0.500403,9.826104,0.015839,0.013471,0.780626,-14.64,-8.94,-46.98,128.0478,2.956,-0.4994,55.814037,37.500313,219.066,0.0274,4951
0.117319,-0.500403,9.826104,0.02378,0.011027,0.781848,-14.4,-8.76,-47.04,128.0478,2.956,-0.4994,55.814037,37.500313,219.066,0.0274,4961
-0.117319,-0.464489,9.797373,0.020115,3.2E-05,0.793454,-14.4,-8.76,-47.04,128.0478,2.956,-0.4994,55.814037,37.500313,219.066,0.0274,4971
-0.134079,-0.495615,9.727939,0.020115,3.2E-05,0.793454,-14.4,-8.52,-47.16,130.3049,2.9795,-0.6261,55.814037,37.500313,219.066,0.0274,4980
-0.179571,-0.517163,9.651321,0.007897,-0.010964,0.800174,-14.4,-8.52,-47.16,130.3049,2.9795,-0.6261,55.814037,37.500313,219.066,0.0274,4991
-0.179571,-0.517163,9.651321,-0.012872,-0.023792,0.810558,-14.34,-8.1,-47.16,130.3049,2.9795,-0.6261,55.814037,37.500313,219.066,0.0274,5000
-0.10056,-0.524346,9.797373,-0.018981,-0.034177,0.821554,-14.34,-8.1,-47.16,130.3049,2.9795,-0.6261,55.814037,37.500313,219.066,0.0274,5010
0.107742,-0.569837,9.852441,-0.017759,-0.033566,0.823997,-14.22,-7.44,-46.74,124.7439,2.9838,-0.4687,55.814037,37.500313,219.066,0.0274,5020
0.198725,-0.553077,9.866806,-0.006153,-0.026846,0.828884,-14.22,-7.44,-46.74,124.7439,2.9838,-0.4687,55.814037,37.500313,219.066,0.0274,5030
0.117319,-0.567443,9.859624,0.00973,-0.014629,0.830717,-13.92,-7.62,-46.68,124.7439,2.9838,-0.4687,55.814037,37.500313,219.066,0.0274,5041
0.007183,-0.550683,9.792584,0.014006,-0.01524,0.834382,-13.92,-7.62,-46.68,124.7439,2.9838,-0.4687,55.814037,37.500313,219.066,0.0274,5050
0.007183,-0.550683,9.792584,0.011562,-0.018905,0.845989,-13.92,-7.98,-46.68,127.4105,3.0348,-0.3602,55.814037,37.500313,219.066,0.0274,5061
-0.05028,-0.529135,9.749487,0.002399,-0.016462,0.855762,-13.98,-8.04,-46.68,127.4105,3.0348,-0.3602,55.814037,37.500313,219.066,0.0274,5070
-0.079011,-0.574626,9.77343,-0.014094,-0.028679,0.867369,-13.98,-8.04,-46.68,127.4105,3.0348,-0.3602,55.814037,37.500313,219.066,0.0274,5081
-0.007183,-0.5435,9.818921,-0.014094,-0.028679,0.867369,-13.98,-7.68,-46.68,127.4105,3.0348,-0.3602,55.814037,37.500313,219.066,0.0274,5090
-0.007183,-0.5435,9.818921,-0.012261,-0.035398,0.879586,-13.98,-7.68,-46.68,127.4105,3.0348,-0.3602,55.814037,37.500313,219.066,0.0274,5101
0.079011,-0.517163,9.876384,-0.005542,-0.026846,0.883862,-13.98,-7.56,-46.74,127.3121,3.0711,-0.2557,55.814037,37.500313,219.066,0.0274,5111
0.10056,-0.509981,9.802161,0.005454,-0.020738,0.885695,-13.98,-7.56,-46.74,127.3121,3.0711,-0.2557,55.814037,37.500313,219.066,0.0274,5120
0.138868,-0.514769,9.826104,0.004843,-0.024403,0.883862,-14.34,-7.74,-46.98,127.3121,3.0711,-0.2557,55.814037,37.500313,219.066,0.0274,5131
0.138868,-0.514769,9.826104,-0.003098,-0.017683,0.883251,-14.58,-7.68,-46.98,127.3121,3.0711,-0.2557,55.814037,37.500313,219.066,0.0274,5141
0.141262,-0.56026,9.77343,-0.015316,-0.025625,0.879586,-14.58,-7.68,-46.98,127.3121,3.0711,-0.2557,55.814037,37.500313,219.066,0.0274,5151
0.158022,-0.605751,9.850046,-0.017759,-0.029901,0.87531,-14.64,-7.2,-46.62,122.6723,3.097,-0.1675,55.814037,37.500313,219.066,0.0274,5160
0.189148,-0.687157,9.869201,-0.01165,-0.024403,0.865536,-14.64,-7.2,-46.62,122.6723,3.097,-0.1675,55.814037,37.500313,219.066,0.0274,5170
0.189148,-0.687157,9.869201,0.00301,-0.02929,0.849654,-14.46,-6.66,-46.74,122.6723,3.097,-0.1675,55.814037,37.500313,219.066,0.0274,5181
0.270553,-0.658426,9.890749,0.01706,-0.018294,0.837436,-14.46,-6.66,-46.74,122.6723,3.097,-0.1675,55.814037,37.500313,219.066,0.0274,5191
0.270553,-0.572232,9.876384,0.01706,-0.018294,0.837436,-13.56,-7.2,-47.1,124.71,3.157,-0.206,55.814037,37.500313,219.066,0.0274,5201
0.201119,-0.502798,9.830893,0.024391,-0.015851,0.824608,-13.56,-7.2,-47.1,124.71,3.157,-0.206,55.814037,37.500313,219.066,0.0274,5211
1.156435,-0.696734,9.711179,0.017671,-0.015851,0.823997,-12.78,-7.26,-46.14,124.71,3.157,-0.206,55.814037,37.500313,219.066,0.0274,5220
1.156435,-0.696734,9.711179,-4.4E-05,0.113042,0.805671,-12.78,-7.26,-46.14,124.71,3.157,-0.206,55.814037,37.500313,219.066,0.0274,5231
0.636877,-0.404632,9.620196,0.015839,0.11915,0.778793,-13.68,-6.9,-45.6,125.0274,3.2201,-0.4161,55.814037,37.500313,219.066,0.0274,5241
-0.596174,-0.019154,9.629773,0.04516,-0.028068,0.789789,-13.68,-6.9,-45.6,125.0274,3.2201,-0.4161,55.814037,37.500313,219.066,0.0274,5250
-0.778139,-0.193936,10.834093,0.046382,0.131979,0.80445,-14.4,-6.48,-46.2,125.0274,3.2201,-0.4161,55.814037,37.500313,219.066,0.0274,5260
-0.579414,-0.586597,8.897125,0.043938,0.02019,0.817278,-14.4,-6.48,-46.2,125.0274,3.2201,-0.4161,55.814037,37.500313,219.066,0.0274,5270
-0.579414,-0.586597,8.897125,0.007286,-0.051281,0.85393,-13.62,-6.18,-46.02,122.2736,3.2072,-0.532,55.814037,37.500313,219.066,0.0274,5280
-0.438152,-0.557866,10.139753,-0.035474,0.063562,0.883251,-13.26,-6.36,-45.9,122.2736,3.2072,-0.532,55.814037,37.500313,219.066,0.0274,5291
-0.440547,-0.529135,9.641745,-0.039139,-0.109313,0.889971,-13.26,-6.36,-45.9,122.2736,3.2072,-0.532,55.814037,37.500313,219.066,0.0274,5301
0.059857,-0.529135,9.680053,-0.039139,-0.109313,0.889971,-13.44,-5.94,-45.9,122.2736,3.2072,-0.532,55.814037,37.500313,219.066,0.0274,5311
0.320833,-0.69434,10.1206,-0.029366,-0.020127,0.888749,-13.44,-5.94,-45.9,122.2736,3.2072,-0.532,55.814037,37.500313,219.066,0.0274,5320
0.320833,-0.69434,10.1206,-0.012261,0.039127,0.880197,-13.26,-5.7,-46.62,124.2893,3.2152,-0.4154,55.814037,37.500313,219.066,0.0274,5330
0.165205,-0.471672,9.821315,0.015839,-0.082435,0.874699,-13.26,-5.7,-46.62,124.2893,3.2152,-0.4154,55.814037,37.500313,219.066,0.0274,5340
0.167599,-0.445335,9.912297,0.026223,0.01286,0.869201,-12.42,-5.82,-46.62,124.2893,3.2152,-0.4154,55.814037,37.500313,219.066,0.0274,5351
0.011971,-0.629694,9.644139,0.017671,0.017747,0.86798,-12.42,-5.82,-46.62,124.2893,3.2152,-0.4154,55.814037,37.500313,219.066,0.0274,5360
0.011971,-0.629694,9.644139,-0.007374,-0.058,0.863093,-12.84,-5.64,-46.5,123.948,3.2214,-0.318,55.814037,37.500313,219.066,0.0274,5371
-0.011971,-0.684763,9.866806,-0.026922,-0.001801,0.870423,-12.9,-5.46,-46.68,123.948,3.2214,-0.318,55.814037,37.500313,219.066,0.0274,5381
-0.045491,-0.562655,9.713573,-0.013483,-0.037231,0.874088,-12.9,-5.46,-46.68,123.948,3.2214,-0.318,55.814037,37.500313,219.066,0.0274,5391
-0.071828,-0.538712,10.017646,-0.013483,-0.037231,0.874088,-12.96,-5.34,-46.38,123.948,3.2214,-0.318,55.814037,37.500313,219.066,0.0274,5400
-0.071828,-0.538712,10.017646,0.006676,-0.028068,0.877754,-12.96,-5.34,-46.38,123.948,3.2214,-0.318,55.814037,37.500313,219.066,0.0274,5410
0.035914,-0.588992,9.830893,0.018282,-0.012796,0.883862,-12.42,-5.64,-46.02,126.0758,3.251,-0.2407,55.814037,37.500313,219.066,0.0274,5421
0.06704,-0.548289,9.771035,0.018893,-0.034788,0.883251,-12.42,-5.64,-46.02,126.0758,3.251,-0.2407,55.814037,37.500313,219.066,0.0274,5430
0.021548,-0.531529,9.888355,-4.4E-05,-0.006077,0.886306,-12.36,-5.82,-45.84,126.0758,3.251,-0.2407,55.814037,37.500313,219.066,0.0274,5441
-0.093377,-0.531529,9.677659,-0.012872,-0.026846,0.89669,-12.36,-5.82,-45.84,126.0758,3.251,-0.2407,55.814037,37.500313,219.066,0.0274,5451
-0.074223,-0.600963,9.869201,-0.014705,-0.033566,0.907686,-12.54,-6.06,-46.14,123.7768,3.2378,-0.1939,55.814037,37.500313,219.066,0.0274,5460
0.201119,-0.718282,10.034406,-0.010429,-0.012186,0.920514,-12.54,-6.06,-46.14,123.7768,3.2378,-0.1939,55.814037,37.500313,219.066,0.0274,5471
0.201119,-0.718282,10.034406,-0.010429,-0.012186,0.920514,-12.54,-5.64,-46.5,123.7768,3.2378,-0.1939,55.814037,37.500313,219.066,0.0274,5480
0.03352,-0.672791,9.859624,0.002399,0.014082,0.923568,-12.54,-5.64,-46.5,123.7768,3.2378,-0.1939,55.814037,37.500313,219.066,0.0274,5490
-0.086194,-0.52674,9.873989,0.024391,-0.006077,0.927234,-12.72,-5.34,-46.14,120.5419,3.267,-0.1172,55.814037,37.500313,219.066,0.0274,5501
-0.086194,-0.52674,9.873989,0.037219,0.002475,0.938229,-12.72,-5.34,-46.14,120.5419,3.267,-0.1172,55.814037,37.500313,219.066,0.0274,5510
-0.28013,-0.567443,9.804555,0.020115,-0.023181,0.961442,-12.72,-5.58,-45.78,120.5419,3.267,-0.1172,55.814037,37.500313,219.066,0.0274,5521
-0.304073,-0.56026,9.569917,-0.003098,-0.02929,0.974881,-12.72,-5.58,-45.78,120.5419,3.267,-0.1172,55.814037,37.500313,219.066,0.0274,5531
-0.323227,-0.550683,9.797373,-0.003098,-0.02929,0.974881,-12.72,-5.28,-46.38,120.2214,3.2352,0.032,55.814037,37.500313,219.066,0.0274,5541
-0.268159,-0.557866,9.761458,-0.015316,-0.017072,0.987709,-12.72,-5.28,-46.38,120.2214,3.2352,0.032,55.814037,37.500313,219.066,0.0274,5550
-0.268159,-0.557866,9.761458,-0.014705,-0.056168,0.997483,-12.54,-4.74,-46.68,120.2214,3.2352,0.032,55.814037,37.500313,219.066,0.0274,5561
0.047885,-0.620117,9.840469,-0.007374,-0.031122,0.99504,-12.54,-4.74,-46.68,120.2214,3.2352,0.032,55.814037,37.500313,219.066,0.0274,5571
0.169994,-0.641666,9.931452,0.002399,-0.021349,0.987709,-12.78,-5.28,-46.68,120.2009,3.2549,0.192,55.814037,37.500313,219.066,0.0274,5581
0.124502,-0.591386,9.838076,0.011562,-0.029901,0.985877,-12.78,-5.28,-46.68,120.2009,3.2549,0.192,55.814037,37.500313,219.066,0.0274,5591
0.031126,-0.519558,9.811738,0.014006,-0.014629,0.983433,-12.72,-5.28,-46.56,120.2009,3.2549,0.192,55.814037,37.500313,219.066,0.0274,5601
0.031126,-0.519558,9.811738,0.008508,-0.01524,0.985877,-12.72,-5.28,-46.56,120.2009,3.2549,0.192,55.814037,37.500313,219.066,0.0274,5611
-0.110137,-0.588992,9.763853,-0.000655,-0.023792,0.991374,-11.64,-4.8,-46.2,121.9308,3.2532,0.2424,55.814037,37.500313,219.066,0.0274,5621
-0.134079,-0.612934,9.785401,-0.008596,-0.032344,1.00237,-11.64,-4.8,-46.2,121.9308,3.2532,0.2424,55.814037,37.500313,219.066,0.0274,5631
-0.105348,-0.581809,9.823709,-0.009207,-0.02257,1.008479,-11.7,-4.74,-46.74,121.9308,3.2532,0.2424,55.814037,37.500313,219.066,0.0274,5640
-0.105348,-0.581809,9.823709,-0.009207,-0.02257,1.008479,-11.7,-4.74,-46.74,121.9308,3.2532,0.2424,55.814037,37.500313,219.066,0.0274,5650
-0.081405,-0.591386,9.857229,-0.001266,-0.023792,1.014587,-12.18,-4.68,-46.86,121.9207,3.2348,0.323,55.814037,37.500313,219.066,0.0274,5660
-0.102954,-0.617723,9.799767,0.007286,-0.020738,1.029248,-12.18,-4.68,-46.86,121.9207,3.2348,0.323,55.814037,37.500313,219.066,0.0274,5671
-0.136474,-0.658426,9.830893,0.007897,-0.018294,1.035968,-12.18,-4.5,-46.38,121.9207,3.2348,0.323,55.814037,37.500313,219.066,0.0274,5681
-0.136474,-0.658426,9.830893,-0.001266,-0.028679,1.048185,-12.18,-4.5,-46.38,121.9207,3.2348,0.323,55.814037,37.500313,219.066,0.0274,5691
0.581809,-0.92419,10.113417,-0.00432,0.001864,1.04452,-11.82,-4.02,-45.96,118.2364,3.2782,0.4059,55.814037,37.500313,219.066,0.0274,5701
0.167599,-0.588992,9.397529,0.016449,0.041571,1.032302,-11.82,-4.02,-45.96,118.2364,3.2782,0.4059,55.814037,37.500313,219.066,0.0274,5711
0.167599,-0.423787,9.96976,0.040273,-0.028679,1.026194,-11.16,-3.3,-45.72,118.2364,3.2782,0.4059,55.814037,37.500313,219.066,0.0274,5721
0.095771,-0.423787,9.96976,0.040273,-0.028679,1.026194,-11.16,-3.3,-45.72,118.2364,3.2782,0.4059,55.814037,37.500313,219.066,0.0274,5730
-0.299284,-0.476461,9.541185,0.043327,0.089218,1.045741,-11.4,-3.72,-45.66,120.5084,3.3605,0.4294,55.814037,37.500313,219.066,0.0274,5740
-0.435758,-0.476461,9.419077,0.026834,-0.021959,1.061624,-11.4,-3.72,-45.66,120.5084,3.3605,0.4294,55.814037,37.500313,219.066,0.0274,5751
-0.639271,-0.505192,9.993703,-0.002487,-0.023792,1.077506,-11.64,-4.86,-45.6,120.5084,3.3605,0.4294,55.814037,37.500313,219.066,0.0274,5761
-0.651243,-0.512375,9.474146,-0.026922,0.01286,1.104385,-11.64,-4.86,-45.6,120.5084,3.3605,0.4294,55.814037,37.500313,219.066,0.0274,5771
-0.651243,-0.512375,9.474146,-0.031198,-0.100761,1.128819,-11.88,-4.32,-45.78,118.0049,3.241,0.4845,55.814037,37.500313,219.066,0.0274,5780
-0.119714,-0.672791,9.945818,-0.025089,-0.043951,1.133706,-11.88,-4.32,-45.78,118.0049,3.241,0.4845,55.814037,37.500313,219.066,0.0274,5791
0.122108,-0.797293,10.005674,-0.009207,-0.020738,1.125765,-11.52,-4.08,-46.2,118.0049,3.241,0.4845,55.814037,37.500313,219.066,0.0274,5801
0.153234,-0.684763,9.802161,0.014617,-0.046394,1.117824,-11.52,-4.08,-46.2,118.0049,3.241,0.4845,55.814037,37.500313,219.066,0.0274,5811
0.153234,-0.684763,9.802161,0.021336,0.007973,1.112937,-10.74,-4.44,-46.14,119.879,3.2521,0.6002,55.814037,37.500313,219.066,0.0274,5820
0.062251,-0.493221,9.866806,0.021336,0.007973,1.112937,-10.74,-4.44,-46.14,119.879,3.2521,0.6002,55.814037,37.500313,219.066,0.0274,5830
-0.098165,-0.555472,9.730332,0.02378,-0.024403,1.114158,-10.38,-3.78,-45.96,119.879,3.2521,0.6002,55.814037,37.500313,219.066,0.0274,5840
-0.098165,-0.555472,9.730332,0.003621,-0.032955,1.119045,-10.38,-3.78,-45.96,119.879,3.2521,0.6002,55.814037,37.500313,219.066,0.0274,5850
-0.198725,-0.720677,9.701602,-0.017759,-0.015851,1.128208,-10.26,-3.48,-46.14,117.7717,3.2021,0.6911,55.814037,37.500313,219.066,0.0274,5861
-0.249005,-0.691945,9.876384,-0.026922,-0.040896,1.134928,-10.26,-3.48,-46.14,117.7717,3.2021,0.6911,55.814037,37.500313,219.066,0.0274,5870
-0.220273,-0.59378,9.862018,-0.017148,-0.045172,1.141036,-9.66,-3.48,-46.14,117.7717,3.2021,0.6911,55.814037,37.500313,219.066,0.0274,5880
-0.098165,-0.579414,9.797373,0.014006,-0.027457,1.151421,-9.66,-3.48,-46.14,117.7717,3.2021,0.6911,55.814037,37.500313,219.066,0.0274,5891
-0.098165,-0.579414,9.797373,0.03111,-0.034788,1.153254,-9.66,-3.42,-45.9,117.6171,3.1938,0.7602,55.814037,37.500313,219.066,0.0274,5901
0.03352,-0.565049,9.859624,0.02378,-0.032344,1.154476,-9.66,-3.42,-45.9,117.6171,3.1938,0.7602,55.814037,37.500313,219.066,0.0274,5911
0.500403,-0.758985,9.718362,0.001789,-0.025625,1.155086,-10.08,-3.48,-45.6,117.6171,3.1938,0.7602,55.814037,37.500313,219.066,0.0274,5920
0.500403,-0.758985,9.718362,0.001789,-0.025625,1.155086,-10.08,-3.48,-45.6,117.6171,3.1938,0.7602,55.814037,37.500313,219.066,0.0274,5930
0.088588,-0.488432,9.522031,-0.015926,0.028132,1.131873,-9.78,-2.94,-45.96,117.245,3.1205,0.8292,55.814037,37.500313,219.066,0.0274,5940
-0.0838,-0.486038,9.98652,0.001178,-0.031733,1.125154,-9.78,-2.94,-45.96,117.245,3.1205,0.8292,55.814037,37.500313,219.066,0.0274,5950
-0.299284,-0.581809,9.842864,0.015228,-0.01524,1.128819,-9.66,-3.18,-46.8,117.245,3.1205,0.8292,55.814037,37.500313,219.066,0.0274,5960
-0.299284,-0.581809,9.842864,0.021947,0.032408,1.134928,-9.66,-3.18,-46.8,117.245,3.1205,0.8292,55.814037,37.500313,219.066,0.0274,5971
-0.335198,-0.517163,9.306546,0.02378,-0.043951,1.130652,-9.72,-3.96,-46.26,121.5921,3.1537,0.7446,55.814037,37.500313,219.066,0.0274,5981
-0.153234,-0.514769,10.180456,0.006676,-0.042118,1.135539,-9.72,-3.96,-46.26,121.5921,3.1537,0.7446,55.814037,37.500313,219.066,0.0274,5991
-0.043097,-0.514769,9.340066,-0.019592,0.009806,1.13615,-9.48,-3.3,-45.96,121.5921,3.1537,0.7446,55.814037,37.500313,219.066,0.0274,6000
-0.043097,-0.514769,9.340066,-0.026311,-0.068996,1.127598,-9.48,-3.3,-45.96,121.5921,3.1537,0.7446,55.814037,37.500313,219.066,0.0274,6010
0.131685,-0.57702,9.905115,-0.026922,-0.04334,1.118434,-8.7,-3.36,-46.26,119.9871,3.1578,0.7124,55.814037,37.500313,219.066,0.0274,6021
0.10056,-0.682368,9.957788,-0.022646,0.00553,1.104995,-8.7,-3.36,-46.26,119.9871,3.1578,0.7124,55.814037,37.500313,219.066,0.0274,6031
-0.009577,-0.632089,9.73991,0.000567,-0.059222,1.100108,-8.58,-3.96,-46.08,119.9871,3.1578,0.7124,55.814037,37.500313,219.066,0.0274,6040
-0.158022,-0.565049,9.953,0.016449,-0.017683,1.097665,-8.58,-3.96,-46.08,119.9871,3.1578,0.7124,55.814037,37.500313,219.066,0.0274,6051
-0.158022,-0.565049,9.953,0.025001,0.008584,1.100108,-8.76,-4.14,-46.26,124.6483,3.2198,0.6346,55.814037,37.500313,219.066,0.0274,6061
-0.241822,-0.579414,9.766247,0.022558,-0.051892,1.104995,-8.76,-4.14,-46.26,124.6483,3.2198,0.6346,55.814037,37.500313,219.066,0.0274,6073
-0.225062,-0.61054,9.682447,0.004843,-0.026846,1.114769,-8.82,-3.96,-45.96,124.6483,3.2198,0.6346,55.814037,37.500313,219.066,0.0274,6080
0.928979,-0.988835,10.374393,-0.020813,-0.072661,1.112326,-8.82,-3.96,-45.96,124.6483,3.2198,0.6346,55.814037,37.500313,219.066,0.0274,6091
-0.304073,-0.090982,9.105427,-0.009207,0.074557,1.080561,-9,-3.36,-46.02,120.5599,3.2258,0.5586,55.814037,37.500313,219.066,0.0274,6101
-0.304073,-0.090982,9.105427,0.028056,-0.082435,1.068954,-9,-3.36,-46.02,120.5599,3.2258,0.5586,55.814037,37.500313,219.066,0.0274,6111
-0.090982,-0.349564,10.213976,0.050047,-0.025625,1.07323,-8.88,-3.12,-46.08,120.5599,3.2258,0.5586,55.814037,37.500313,219.066,0.0274,6120
-0.203513,-0.632089,10.242707,0.037219,0.09044,1.064678,-8.88,-3.12,-46.08,120.5599,3.2258,0.5586,55.814037,37.500313,219.066,0.0274,6131
-0.423787,-0.732648,8.854029,0.037219,0.09044,1.064678,-8.46,-3.24,-46.08,123.0815,3.2212,0.6947,55.814037,37.500313,219.066,0.0274,6141
-0.423787,-0.732648,8.854029,0.020115,-0.078159,1.067122,-8.46,-3.24,-46.08,123.0815,3.2212,0.6947,55.814037,37.500313,219.066,0.0274,6150
-0.249005,-0.438152,10.285805,-0.020203,-0.025014,1.075063,-8.46,-3.18,-46.14,123.0815,3.2212,0.6947,55.814037,37.500313,219.066,0.0274,6161
-0.129291,-0.464489,9.660899,-0.026311,-0.073272,1.076896,-8.46,-3.18,-46.14,123.0815,3.2212,0.6947,55.814037,37.500313,219.066,0.0274,6172
-0.172388,-0.598569,9.60583,-0.026311,-0.073272,1.076896,-8.28,-3.24,-46.8,122.7935,3.127,0.7559,55.814037,37.500313,219.066,0.0274,6180
0.059857,-0.440547,10.245102,-0.00432,-0.010353,1.076285,-8.28,-3.24,-46.8,122.7935,3.127,0.7559,55.814037,37.500313,219.066,0.0274,6190
0.119714,-0.428575,9.711179,0.011562,-0.029901,1.065289,-7.92,-3.78,-46.86,122.7935,3.127,0.7559,55.814037,37.500313,219.066,0.0274,6201
0.119714,-0.428575,9.711179,0.020725,-0.043951,1.050018,-7.92,-3.78,-46.86,122.7935,3.127,0.7559,55.814037,37.500313,219.066,0.0274,6211
0.107742,-0.433364,9.72315,0.005454,0.000643,1.038411,-7.86,-4.44,-46.14,126.9001,3.1451,0.838,55.814037,37.500313,219.066,0.0274,6220
0.035914,-0.584203,9.888355,-0.01165,-0.032344,1.026194,-7.86,-4.44,-46.14,126.9001,3.1451,0.838,55.814037,37.500313,219.066,0.0274,6230
0.040703,-0.605751,9.787795,-0.016537,-0.051281,1.021307,-7.56,-4.5,-46.26,126.9001,3.1451,0.838,55.814037,37.500313,219.066,0.0274,6241
0.040703,-0.605751,9.787795,-0.016537,-0.002412,1.010922,-7.56,-4.5,-46.26,126.9001,3.1451,0.838,55.814037,37.500313,219.066,0.0274,6250
-0.028731,-0.541106,9.862018,-0.005542,-0.021959,1.002981,-7.62,-4.08,-46.14,126.5388,3.091,0.9079,55.814037,37.500313,219.066,0.0274,6260
-0.031126,-0.471672,10.015251,0.011562,-0.043951,0.999316,-7.62,-4.08,-46.14,126.5388,3.091,0.9079,55.814037,37.500313,219.066,0.0274,6270
-0.0838,-0.41421,9.768641,0.025612,-0.006688,0.991374,-7.68,-4.08,-45.78,126.5388,3.091,0.9079,55.814037,37.500313,219.066,0.0274,6280
1.079818,-0.835602,10.609032,0.022558,-0.067774,0.987709,-7.68,-4.08,-45.78,126.5388,3.091,0.9079,55.814037,37.500313,219.066,0.0274,6291
1.079818,-0.835602,10.609032,0.00973,0.127092,0.943116,-7.44,-4.02,-46.08,129.7236,3.0718,0.955,55.814037,37.500313,219.066,0.0274,6301
-0.536318,-0.047885,8.813326,0.029278,-0.071439,0.92479,-7.44,-4.02,-46.08,129.7236,3.0718,0.955,55.814037,37.500313,219.066,0.0274,6310
0.035914,-0.636877,10.573117,0.029278,-0.071439,0.92479,-7.14,-4.08,-45.96,129.7236,3.0718,0.955,55.814037,37.500313,219.066,0.0274,6321
-0.244216,-0.409421,9.835681,0.006065,0.113653,0.93151,-7.14,-4.08,-45.96,129.7236,3.0718,0.955,55.814037,37.500313,219.066,0.0274,6331
-0.244216,-0.409421,9.835681,0.006065,0.113653,0.93151,-6.84,-3.72,-46.56,129.0365,2.9836,1.1404,55.814037,37.500313,219.066,0.0274,6341
-0.550683,-0.205908,8.842057,0.003621,-0.097707,0.941894,-6.84,-3.72,-46.56,129.0365,2.9836,1.1404,55.814037,37.500313,219.066,0.0274,6351
-0.361535,-0.366324,10.673677,-0.018981,-0.045172,0.960831,-6.42,-2.7,-46.92,129.0365,2.9836,1.1404,55.814037,37.500313,219.066,0.0274,6360
-0.210696,-0.464489,9.584282,-0.026311,0.011638,0.962053,-6.42,-2.7,-46.92,129.0365,2.9836,1.1404,55.814037,37.500313,219.066,0.0274,6371
-0.126897,-0.483643,9.493299,-0.004931,-0.086711,0.958999,-6.78,-2.94,-46.14,123.9213,2.9134,1.1482,55.814037,37.500313,219.066,0.0274,6380
0.148445,-0.433364,10.460587,0.008508,-0.020738,0.955944,-6.78,-2.94,-46.14,123.9213,2.9134,1.1482,55.814037,37.500313,219.066,0.0274,6391
0.148445,-0.433364,10.460587,0.011562,-0.006077,0.943116,-7.26,-3.36,-45.96,123.9213,2.9134,1.1482,55.814037,37.500313,219.066,0.0274,6400
-0.019154,-0.418998,9.47654,0.009119,-0.041507,0.937007,-7.26,-3.36,-45.96,123.9213,2.9134,1.1482,55.814037,37.500313,219.066,0.0274,6411
-0.086194,-0.521952,9.802161,-0.007374,0.003086,0.935175,-6.48,-3.12,-46.38,127.372,2.8972,1.1949,55.814037,37.500313,219.066,0.0274,6420
-0.184359,-0.524346,9.981731,-0.01837,-0.023792,0.933953,-6.48,-3.12,-46.38,127.372,2.8972,1.1949,55.814037,37.500313,219.066,0.0274,6431
-0.184359,-0.524346,9.981731,-0.01165,-0.045172,0.933953,-6.36,-3.36,-46.38,127.372,2.8972,1.1949,55.814037,37.500313,219.066,0.0274,6441
-0.215485,-0.466884,9.684841,-0.002487,-0.002412,0.937618,-6.36,-3.36,-46.38,127.372,2.8972,1.1949,55.814037,37.500313,219.066,0.0274,6450
-0.189148,-0.466884,9.926663,0.009119,-0.023792,0.94556,-6.3,-3.54,-45.66,131.767,2.8432,1.2728,55.814037,37.500313,219.066,0.0274,6460
-0.184359,-0.399844,9.929058,0.015839,-0.038453,0.943116,-6.3,-3.54,-45.66,131.767,2.8432,1.2728,55.814037,37.500313,219.066,0.0274,6471
-0.169993,-0.342381,9.713573,0.015839,-0.038453,0.943116,-6.18,-3.18,-46.14,131.767,2.8432,1.2728,55.814037,37.500313,219.066,0.0274,6480
-0.155628,-0.433364,9.785401,0.011562,-0.009131,0.948003,-6.42,-3.6,-46.32,131.767,2.8432,1.2728,55.814037,37.500313,219.066,0.0274,6490
-0.155628,-0.433364,9.785401,-0.000655,-0.026846,0.94617,-6.42,-3.6,-46.32,131.767,2.8432,1.2728,55.814037,37.500313,219.066,0.0274,6500
-0.165205,-0.464489,9.833286,-0.016537,-0.031733,0.952279,-6.42,-3.54,-46.44,131.3722,2.7741,1.317,55.814037,37.500313,219.066,0.0274,6511
-0.208302,-0.464489,9.754275,-0.017148,-0.019516,0.949225,-6.42,-3.54,-46.44,131.3722,2.7741,1.317,55.814037,37.500313,219.066,0.0274,6520
-0.189148,-0.478855,9.976943,-4.4E-05,-0.036009,0.956555,-6.78,-3.48,-46.14,131.3722,2.7741,1.317,55.814037,37.500313,219.066,0.0274,6531
-0.189148,-0.478855,9.976943,0.012173,-0.017683,0.959609,-6.78,-3.48,-46.14,131.3722,2.7741,1.317,55.814037,37.500313,219.066,0.0274,6540
-0.244216,-0.483643,9.864412,0.012173,-0.017683,0.959609,-6.24,-4.2,-46.14,131.0805,2.739,1.3676,55.814037,37.500313,219.066,0.0274,6550
2.221887,-1.525153,10.072714,0.015228,-0.029901,0.965107,-6.24,-4.2,-46.14,131.0805,2.739,1.3676,55.814037,37.500313,219.066,0.0274,6561
-0.172388,-0.059857,8.803748,0.007897,0.06234,0.94556,-5.82,-4.14,-46.08,131.0805,2.739,1.3676,55.814037,37.500313,219.066,0.0274,6571
-0.172388,-0.059857,8.803748,0.038441,0.093494,0.909519,-5.82,-4.14,-46.08,131.0805,2.739,1.3676,55.814037,37.500313,219.066,0.0274,6580
-0.402238,-0.438152,10.355239,0.05249,-0.183839,0.916849,-6,-3.96,-46.2,132.096,2.7611,1.0834,55.814037,37.500313,219.066,0.0274,6591
-0.260976,-0.802082,10.395941,0.019504,0.193676,0.94556,-6,-3.96,-46.2,132.096,2.7611,1.0834,55.814037,37.500313,219.066,0.0274,6601
-0.715888,-0.318439,8.447001,0.015228,0.010416,0.94617,-5.82,-4.44,-46.62,132.096,2.7611,1.0834,55.814037,37.500313,219.066,0.0274,6611
-0.715888,-0.318439,8.447001,0.013395,-0.144743,0.962664,-5.82,-4.44,-46.62,132.096,2.7611,1.0834,55.814037,37.500313,219.066,0.0274,6620
-0.600963,-0.184359,10.668888,-0.014705,0.029353,0.990153,-5.64,-4.68,-47.28,135.278,2.6493,1.332,55.814037,37.500313,219.066,0.0274,6631
-0.198725,-0.423787,9.134158,-0.020203,-0.044561,0.999316,-5.52,-4.56,-47.1,135.278,2.6493,1.332,55.814037,37.500313,219.066,0.0274,6642
-0.198725,-0.423787,9.134158,-0.007985,-0.076326,0.993818,-5.52,-4.56,-47.1,135.278,2.6493,1.332,55.814037,37.500313,219.066,0.0274,6651
-0.153234,-0.129291,9.950606,0.000567,0.019579,0.99504,-4.92,-4.56,-46.14,135.278,2.6493,1.332,55.814037,37.500313,219.066,0.0274,6661
-0.057463,-0.260976,10.192428,0.004232,-0.05739,0.983433,-4.92,-4.56,-46.14,135.278,2.6493,1.332,55.814037,37.500313,219.066,0.0274,6670
0.172388,-0.38069,9.404712,0.001789,-0.056168,0.965718,-5.28,-4.56,-45.84,139.3504,2.5988,1.34,55.814037,37.500313,219.066,0.0274,6681
0.172388,-0.38069,9.404712,0.001789,-0.056168,0.965718,-5.28,-4.56,-45.84,139.3504,2.5988,1.34,55.814037,37.500313,219.066,0.0274,6691
0.057463,-0.490826,9.907509,-0.003709,0.013471,0.958388,-5.76,-4.26,-46.5,139.3504,2.5988,1.34,55.814037,37.500313,219.066,0.0274,6701
0.059857,-0.404632,9.814133,-0.01837,-0.058,0.942505,-5.76,-4.26,-46.5,139.3504,2.5988,1.34,55.814037,37.500313,219.066,0.0274,6711
-0.019154,-0.471672,9.787795,-0.016537,-0.026235,0.927844,-5.58,-4.74,-46.86,134.6601,2.5388,1.4094,55.814037,37.500313,219.066,0.0274,6721
-0.186753,-0.486038,9.98652,-0.009207,0.022634,0.92479,-5.58,-4.74,-46.86,134.6601,2.5388,1.4094,55.814037,37.500313,219.066,0.0274,6730
-0.186753,-0.486038,9.98652,0.010952,-0.04334,0.922958,-4.86,-5.4,-46.56,134.6601,2.5388,1.4094,55.814037,37.500313,219.066,0.0274,6741
-0.119714,-0.411815,9.878778,0.01706,-0.028679,0.918071,-4.86,-5.4,-46.56,134.6601,2.5388,1.4094,55.814037,37.500313,219.066,0.0274,6750
-0.272947,-0.34717,9.680053,0.020725,-0.004244,0.920514,-4.02,-4.92,-46.56,143.7261,2.5024,1.4258,55.814037,37.500313,219.066,0.0274,6760
-0.234639,-0.342381,9.900327,0.009119,-0.03662,0.92479,-4.02,-4.92,-46.56,143.7261,2.5024,1.4258,55.814037,37.500313,219.066,0.0274,6771
-0.234639,-0.342381,9.900327,-0.003098,-0.01524,0.934564,-4.2,-5.04,-46.38,143.7261,2.5024,1.4258,55.814037,37.500313,219.066,0.0274,6780
-0.244216,-0.304073,9.624985,-0.003098,-0.01524,0.934564,-4.2,-5.04,-46.38,143.7261,2.5024,1.4258,55.814037,37.500313,219.066,0.0274,6791
-0.205908,-0.320833,9.845258,-0.007985,-0.029901,0.935786,-4.62,-5.22,-46.14,138.2749,2.4163,1.4706,55.814037,37.500313,219.066,0.0274,6801
-0.141262,-0.383084,9.953,-0.010429,-0.031122,0.938229,-4.62,-5.22,-46.14,138.2749,2.4163,1.4706,55.814037,37.500313,219.066,0.0274,6811
-0.141262,-0.383084,9.953,-4.4E-05,-0.025014,0.940062,-4.38,-5.04,-46.38,138.2749,2.4163,1.4706,55.814037,37.500313,219.066,0.0274,6821
-0.184359,-0.392661,9.766247,0.006065,-0.030511,0.941894,-4.38,-5.04,-46.38,138.2749,2.4163,1.4706,55.814037,37.500313,219.066,0.0274,6830
-0.129291,-0.428575,9.907509,0.005454,-0.019516,0.943116,-4.14,-5.28,-47.1,142.9992,2.3785,1.5022,55.814037,37.500313,219.066,0.0274,6841
-0.26337,-0.349564,9.761458,0.004232,-0.027457,0.951057,-4.14,-5.28,-47.1,142.9992,2.3785,1.5022,55.814037,37.500313,219.066,0.0274,6850
-0.26337,-0.349564,9.761458,0.001789,-0.027457,0.955333,-4.14,-5.4,-47.04,142.9992,2.3785,1.5022,55.814037,37.500313,219.066,0.0274,6861
-0.237033,-0.375901,9.771035,0.001789,-0.027457,0.955333,-4.14,-5.4,-47.04,142.9992,2.3785,1.5022,55.814037,37.500313,219.066,0.0274,6871
1.527547,-0.99123,9.998491,-0.00432,-0.063498,0.955944,-4.5,-5.34,-46.26,143.3999,2.283,1.3319,55.814037,37.500313,219.066,0.0274,6880
0.038308,-0.289707,9.407105,-0.002487,0.130757,0.934564,-4.5,-5.34,-46.26,143.3999,2.283,1.3319,55.814037,37.500313,219.066,0.0274,6891
-0.514769,-0.277736,9.840469,0.029888,-0.040896,0.906464,-4.74,-5.46,-46.32,143.3999,2.283,1.3319,55.814037,37.500313,219.066,0.0274,6900
-0.514769,-0.277736,9.840469,0.032943,-0.026846,0.922958,-4.74,-5.46,-46.32,143.3999,2.283,1.3319,55.814037,37.500313,219.066,0.0274,6911
-0.416604,-0.565049,10.439038,0.014006,0.071503,0.935175,-4.14,-4.8,-47.4,143.0337,2.1786,1.345,55.814037,37.500313,219.066,0.0274,6920
-0.821236,-0.378295,8.909097,0.011562,-0.10015,0.955944,-4.14,-4.8,-47.4,143.0337,2.1786,1.345,55.814037,37.500313,219.066,0.0274,6930
-0.821236,-0.378295,8.909097,0.011562,-0.10015,0.955944,-4.14,-4.8,-47.4,143.0337,2.1786,1.345,55.814037,37.500313,219.066,0.0274,6940
-0.306467,-0.239427,10.020041,-0.020813,-0.021959,0.973659,-4.14,-4.62,-47.64,143.0337,2.1786,1.345,55.814037,37.500313,219.066,0.0274,6951
-0.021548,-0.447729,9.61062,-0.014705,-0.050059,0.973048,-4.02,-5.28,-47.28,142.5746,2.1075,1.3953,55.814037,37.500313,219.066,0.0274,6961
-0.043097,-0.39745,9.701602,-0.014705,-0.050059,0.973048,-4.02,-5.28,-47.28,142.5746,2.1075,1.3953,55.814037,37.500313,219.066,0.0274,6971
-0.237033,-0.287313,10.122993,0.006676,-0.00852,0.982211,-4.08,-5.82,-47.4,142.5746,2.1075,1.3953,55.814037,37.500313,219.066,0.0274,6981
-0.237033,-0.287313,10.122993,0.006676,-0.00852,0.982211,-4.08,-5.82,-47.4,142.5746,2.1075,1.3953,55.814037,37.500313,219.066,0.0274,6991
-0.356747,-0.26337,9.63935,0.014617,-0.043951,0.985266,-4.02,-5.76,-46.92,146.2766,2.0808,1.3899,55.814037,37.500313,219.066,0.0274,7000
-0.359141,-0.375901,9.799767,0.011562,-0.00119,0.992596,-4.02,-5.76,-46.92,146.2766,2.0808,1.3899,55.814037,37.500313,219.066,0.0274,7011
-0.270553,-0.416604,9.90272,-0.001877,-0.031122,1.006035,-3.84,-5.82,-46.62,146.2766,2.0808,1.3899,55.814037,37.500313,219.066,0.0274,7020
-0.270553,-0.416604,9.90272,-0.017148,-0.048227,1.013366,-3.84,-5.82,-46.62,146.2766,2.0808,1.3899,55.814037,37.500313,219.066,0.0274,7030
-0.057463,-0.459701,9.720756,-0.018981,-0.020127,1.013976,-3.84,-5.7,-46.68,145.8694,2.0056,1.4361,55.814037,37.500313,219.066,0.0274,7041
-0.095771,-0.387873,9.933846,-0.005542,-0.024403,1.018253,-3.84,-5.7,-46.68,145.8694,2.0056,1.4361,55.814037,37.500313,219.066,0.0274,7051
1.580221,-0.830813,9.857229,0.006065,-0.076937,1.018863,-3.66,-5.34,-47.04,145.8694,2.0056,1.4361,55.814037,37.500313,219.066,0.0274,7061
1.580221,-0.830813,9.857229,0.022558,0.164355,0.987709,-3.66,-5.34,-47.04,145.8694,2.0056,1.4361,55.814037,37.500313,219.066,0.0274,7071
-0.349564,-0.019154,9.2419,0.050047,-0.063498,0.991985,-3.6,-5.46,-46.8,141.9361,1.9766,1.4395,55.814037,37.500313,219.066,0.0274,7080
-0.562655,-0.641666,10.158908,0.042717,-0.082435,1.007257,-3.6,-5.46,-46.8,141.9361,1.9766,1.4395,55.814037,37.500313,219.066,0.0274,7090
-0.553077,-0.478855,10.199611,0.042717,-0.082435,1.007257,-3.3,-5.94,-46.68,141.9361,1.9766,1.4395,55.814037,37.500313,219.066,0.0274,7101
-0.82363,-0.098165,8.710372,-0.007985,-0.083657,1.049407,-3.3,-5.94,-46.68,141.9361,1.9766,1.4395,55.814037,37.500313,219.066,0.0274,7111
-0.82363,-0.098165,8.710372,-0.007985,-0.083657,1.049407,-3.48,-6.3,-47.16,150.4243,1.8472,1.5391,55.814037,37.500313,219.066,0.0274,7120
-0.249005,-0.241822,10.077502,-0.017759,-0.112367,1.064678,-3.48,-6.3,-47.16,150.4243,1.8472,1.5391,55.814037,37.500313,219.066,0.0274,7130
0.014366,-0.287313,9.948212,-0.0257,0.014082,1.07323,-3.66,-6.6,-47.4,150.4243,1.8472,1.5391,55.814037,37.500313,219.066,0.0274,7141
-0.093377,-0.442941,9.462174,-0.012872,-0.071439,1.067122,-3.66,-6.6,-47.4,150.4243,1.8472,1.5391,55.814037,37.500313,219.066,0.0274,7151
-0.093377,-0.442941,9.462174,0.00301,-0.010353,1.072009,-3.84,-6.9,-47.82,147.9951,1.7902,1.5626,55.814037,37.500313,219.066,0.0274,7160
-0.088588,-0.395055,10.281016,0.010341,-0.010353,1.075063,-3.84,-6.9,-47.82,147.9951,1.7902,1.5626,55.814037,37.500313,219.066,0.0274,7171
-0.189148,-0.328016,9.787795,0.015228,-0.048837,1.077506,-3.66,-6.84,-48.06,147.9951,1.7902,1.5626,55.814037,37.500313,219.066,0.0274,7180
-0.325621,-0.292102,9.682447,0.004232,-0.009131,1.08667,-3.66,-6.84,-48.06,147.9951,1.7902,1.5626,55.814037,37.500313,219.066,0.0274,7191
-0.189148,-0.502798,9.974549,-0.012872,-0.039064,1.094,-2.7,-7.26,-47.94,152.8236,1.7398,1.5997,55.814037,37.500313,219.066,0.0274,7201
-0.189148,-0.502798,9.974549,-0.012872,-0.039064,1.094,-2.7,-7.26,-47.94,152.8236,1.7398,1.5997,55.814037,37.500313,219.066,0.0274,7211
-0.227456,-0.507586,9.785401,-0.017759,-0.052503,1.093389,-2.52,-7.14,-47.64,152.8236,1.7398,1.5997,55.814037,37.500313,219.066,0.0274,7220
-0.251399,-0.471672,9.783007,-0.008596,-0.009742,1.106828,-2.52,-7.14,-47.64,152.8236,1.7398,1.5997,55.814037,37.500313,219.066,0.0274,7230
1.139675,-0.72786,9.974549,0.013395,-0.083046,1.11538,-2.64,-6.84,-47.4,152.7411,1.6688,1.5971,55.814037,37.500313,219.066,0.0274,7240
0.292102,-0.541106,10.13736,0.02378,0.131368,1.10133,-2.64,-6.84,-47.4,152.7411,1.6688,1.5971,55.814037,37.500313,219.066,0.0274,7250
0.292102,-0.541106,10.13736,0.042106,0.100214,1.10805,-2.7,-7.08,-47.64,152.7411,1.6688,1.5971,55.814037,37.500313,219.066,0.0274,7261
-0.105348,-0.337593,8.688824,0.049436,-0.084268,1.112937,-2.7,-7.08,-47.64,152.7411,1.6688,1.5971,55.814037,37.500313,219.066,0.0274,7271
-0.713494,-0.076617,10.865219,0.028667,0.040349,1.126376,-3,-6.84,-47.4,152.4125,1.5904,1.6307,55.814037,37.500313,219.066,0.0274,7281
-0.713494,-0.323227,8.925857,-0.004931,-0.023181,1.148978,-3,-6.84,-47.4,152.4125,1.5904,1.6307,55.814037,37.500313,219.066,0.0274,7291
-0.713494,-0.323227,8.925857,-0.018981,-0.108702,1.159362,-2.88,-7.02,-47.16,152.4125,1.5904,1.6307,55.814037,37.500313,219.066,0.0274,7300
-0.215485,-0.174782,9.996098,-0.038528,-0.014018,1.172191,-2.88,-7.02,-47.16,152.4125,1.5904,1.6307,55.814037,37.500313,219.066,0.0274,7311
0.119714,-0.294496,10.101445,-0.038528,-0.014018,1.172191,-2.94,-6.96,-47.7,151.5883,1.4466,1.7202,55.814037,37.500313,219.066,0.0274,7320
0.22985,-0.325621,9.591465,-0.028144,-0.061666,1.158752,-2.94,-6.96,-47.7,151.5883,1.4466,1.7202,55.814037,37.500313,219.066,0.0274,7331
0.146051,-0.332804,10.027223,-0.001266,0.008584,1.130652,-2.64,-7.2,-48.36,151.5883,1.4466,1.7202,55.814037,37.500313,219.066,0.0274,7340
-0.011971,-0.268159,9.912297,0.010952,-0.031733,1.118434,-2.64,-7.2,-48.36,151.5883,1.4466,1.7202,55.814037,37.500313,219.066,0.0274,7351
-0.011971,-0.268159,9.912297,0.011562,-0.031733,1.114158,-2.28,-7.8,-47.94,159.8314,1.4301,1.6447,55.814037,37.500313,219.066,0.0274,7361
-0.141262,-0.268159,9.670476,0.011562,-0.031733,1.114158,-2.28,-7.8,-47.94,159.8314,1.4301,1.6447,55.814037,37.500313,219.066,0.0274,7370
-0.22985,-0.36393,9.809344,-0.003098,0.001253,1.112326,-2.28,-8.22,-46.92,159.8314,1.4301,1.6447,55.814037,37.500313,219.066,0.0274,7380
-0.191542,-0.476461,9.960183,-0.015316,-0.045172,1.114769,-2.28,-8.22,-46.92,159.8314,1.4301,1.6447,55.814037,37.500313,219.066,0.0274,7391
-0.191542,-0.476461,9.960183,-0.018981,-0.042118,1.119656,-2.28,-8.22,-46.92,159.6872,1.3434,1.6686,55.814037,37.500313,219.066,0.0274,7400
-0.153234,-0.509981,9.792584,-0.003098,-0.021959,1.124543,-2.28,-8.22,-46.92,159.6872,1.3434,1.6686,55.814037,37.500313,219.066,0.0274,7411
-0.110137,-0.361535,10.058349,0.020115,-0.050059,1.125154,-2.22,-8.04,-47.22,159.6872,1.3434,1.6686,55.814037,37.500313,219.066,0.0274,7421
-0.093377,-0.210696,9.775824,0.028056,-0.015851,1.128208,-2.22,-8.04,-47.22,159.6872,1.3434,1.6686,55.814037,37.500313,219.066,0.0274,7430
-0.093377,-0.210696,9.775824,0.030499,-0.020127,1.125765,-2.46,-8.1,-46.86,159.685,1.2977,1.6523,55.814037,37.500313,219.066,0.0274,7441
0.249005,-0.148445,9.634562,0.012784,-0.085489,1.130041,-2.46,-8.1,-46.86,159.685,1.2977,1.6523,55.814037,37.500313,219.066,0.0274,7451
0.433364,-0.306467,10.31693,-0.00432,0.099603,1.097665,-3.06,-8.1,-47.1,159.685,1.2977,1.6523,55.814037,37.500313,219.066,0.0274,7460
0.079011,-0.234639,8.882759,0.013395,-0.045172,1.086059,-3.06,-8.1,-47.1,159.685,1.2977,1.6523,55.814037,37.500313,219.066,0.0274,7470
0.079011,-0.234639,8.882759,0.010341,-0.028068,1.085448,-3,-7.92,-47.58,154.2031,1.1758,1.6024,55.814037,37.500313,219.066,0.0274,7480
-0.553077,-0.234639,10.805362,0.00301,0.054399,1.100719,-3,-7.92,-47.58,154.2031,1.1758,1.6024,55.814037,37.500313,219.066,0.0274,7491
-0.521952,-0.383084,9.167678,0.007286,-0.061666,1.111715,-1.98,-7.92,-48.12,154.2031,1.1758,1.6024,55.814037,37.500313,219.066,0.0274,7501
-0.29689,-0.189148,10.012857,0.010952,-0.07205,1.112326,-1.98,-7.92,-48.12,154.2031,1.1758,1.6024,55.814037,37.500313,219.066,0.0274,7511
-0.29689,-0.189148,10.012857,0.004232,-0.00119,1.121489,-1.62,-8.46,-47.7,158.9255,1.0965,1.715,55.814037,37.500313,219.066,0.0274,7520
-0.062251,-0.260976,9.900327,-0.003709,-0.056779,1.117213,-1.62,-8.46,-47.7,158.9255,1.0965,1.715,55.814037,37.500313,219.066,0.0274,7531
0.059857,-0.222668,9.663293,-0.001877,-0.05067,1.111104,-1.62,-8.82,-47.88,158.9255,1.0965,1.715,55.814037,37.500313,219.066,0.0274,7542
0.169994,-0.131685,9.938635,-0.004931,-0.009742,1.10133,-1.62,-8.82,-47.88,158.9255,1.0965,1.715,55.814037,37.500313,219.066,0.0274,7551
0.169994,-0.131685,9.938635,-0.003709,-0.021959,1.097054,-1.5,-9.18,-48.18,166.3249,1.0126,1.6667,55.814037,37.500313,219.066,0.0274,7560
0.028731,-0.134079,9.811738,-0.003709,-0.028679,1.083615,-1.5,-9.18,-48.18,166.3249,1.0126,1.6667,55.814037,37.500313,219.066,0.0274,7570
-0.062251,-0.21309,9.711179,-0.001877,-0.012186,1.082393,-1.8,-8.76,-48.12,166.3249,1.0126,1.6667,55.814037,37.500313,219.066,0.0274,7581
-0.062251,-0.21309,9.711179,-0.001877,-0.012186,1.082393,-1.8,-8.76,-48.12,166.3249,1.0126,1.6667,55.814037,37.500313,219.066,0.0274,7591
-0.055068,-0.33041,9.897932,-0.010429,-0.043951,1.075674,-2.1,-8.46,-48.66,158.9305,0.9513,1.6318,55.814037,37.500313,219.066,0.0274,7601
0.040703,-0.316044,9.80695,-0.013483,-0.025014,1.067122,-2.1,-8.46,-48.66,158.9305,0.9513,1.6318,55.814037,37.500313,219.066,0.0274,7611
-0.002394,-0.311256,9.91948,-0.007985,-0.025014,1.059791,-2.4,-8.76,-47.7,158.9305,0.9513,1.6318,55.814037,37.500313,219.066,0.0274,7621
-0.002394,-0.311256,9.91948,0.005454,-0.031733,1.055515,-2.28,-8.7,-47.46,158.9305,0.9513,1.6318,55.814037,37.500313,219.066,0.0274,7631
0.009577,-0.287313,9.905115,0.013395,-0.021959,1.045741,-2.28,-8.7,-47.46,158.9305,0.9513,1.6318,55.814037,37.500313,219.066,0.0274,7641
0.043097,-0.22985,9.73991,0.010341,-0.034788,1.042687,-2.28,-8.7,-47.76,161.0979,0.8876,1.5954,55.814037,37.500313,219.066,0.0274,7650
0.201119,0.040703,10.685649,0.010341,-0.034788,1.042687,-2.28,-8.7,-47.76,161.0979,0.8876,1.5954,55.814037,37.500313,219.066,0.0274,7661
0.201119,0.040703,10.685649,0.005454,0.082499,1.013976,-2.16,-9.78,-48.24,161.0979,0.8876,1.5954,55.814037,37.500313,219.066,0.0274,7670
0.452518,-0.110137,8.995291,0.024391,-0.018905,0.996261,-2.16,-9.78,-48.24,161.0979,0.8876,1.5954,55.814037,37.500313,219.066,0.0274,7681
-0.095771,-0.22985,10.146936,0.026223,-0.012186,0.995651,-1.32,-10.14,-48.6,168.5773,0.8531,1.3657,55.814037,37.500313,219.066,0.0274,7690
-0.466884,-0.136474,9.804555,0.020725,0.04829,0.999927,-1.32,-10.14,-48.6,168.5773,0.8531,1.3657,55.814037,37.500313,219.066,0.0274,7701
-0.359141,-0.074223,9.306546,0.018282,-0.059222,1.006646,-1.62,-10.14,-48,168.5773,0.8531,1.3657,55.814037,37.500313,219.066,0.0274,7710
-0.359141,-0.074223,9.306546,-0.000655,0.004919,1.010311,-1.62,-10.14,-48,168.5773,0.8531,1.3657,55.814037,37.500313,219.066,0.0274,7721
-0.117319,-0.158022,10.008069,-0.020203,-0.027457,1.021307,-1.56,-10.26,-47.4,163.2965,0.7496,1.4453,55.814037,37.500313,219.066,0.0274,7731
-0.270553,-0.282524,9.684841,-0.017148,-0.054335,1.024361,-1.56,-10.26,-47.4,163.2965,0.7496,1.4453,55.814037,37.500313,219.066,0.0274,7740
-0.203513,-0.294496,9.811738,-0.017148,-0.054335,1.024361,-1.68,-10.14,-48,163.2965,0.7496,1.4453,55.814037,37.500313,219.066,0.0274,7750
-0.189148,-0.265764,9.926663,-0.008596,-0.003633,1.035968,-1.32,-10.38,-48.12,163.2965,0.7496,1.4453,55.814037,37.500313,219.066,0.0274,7761
-0.079011,-0.131685,9.768641,0.007897,-0.037231,1.037189,-1.32,-10.38,-48.12,163.2965,0.7496,1.4453,55.814037,37.500313,219.066,0.0274,7771
-0.079011,-0.131685,9.768641,0.017671,-0.036009,1.040854,-1.62,-10.32,-48.24,163.3098,0.6911,1.3991,55.814037,37.500313,219.066,0.0274,7780
0.047885,-0.110137,9.72315,0.005454,-0.014018,1.032913,-1.62,-10.32,-48.24,163.3098,0.6911,1.3991,55.814037,37.500313,219.066,0.0274,7791
0.129291,-0.146051,9.797373,-0.009818,-0.040896,1.024361,-1.5,-10.5,-48.72,163.3098,0.6911,1.3991,55.814037,37.500313,219.066,0.0274,7801
0.193936,-0.184359,9.771035,-0.0257,-0.030511,1.007257,-1.5,-10.5,-48.72,163.3098,0.6911,1.3991,55.814037,37.500313,219.066,0.0274,7811
0.193936,-0.184359,9.771035,-0.027533,-0.020738,0.991985,-1.5,-10.62,-48.84,169.3294,0.6156,1.3705,55.814037,37.500313,219.066,0.0274,7820
0.205908,-0.232245,9.869201,-0.020203,-0.033566,0.982822,-1.5,-10.62,-48.84,169.3294,0.6156,1.3705,55.814037,37.500313,219.066,0.0274,7831
0.205908,-0.232245,9.869201,-0.001266,-0.017683,0.96022,-1.92,-10.2,-48.36,169.3294,0.6156,1.3705,55.814037,37.500313,219.066,0.0274,7841
0.124502,-0.210696,9.90272,0.015228,-0.013407,0.953501,-1.92,-10.2,-48.36,169.3294,0.6156,1.3705,55.814037,37.500313,219.066,0.0274,7850
-0.088588,-0.208302,9.828498,0.021336,-0.020127,0.955944,-1.8,-10.14,-48.48,163.5582,0.6119,1.3162,55.814037,37.500313,219.066,0.0274,7861
-0.131685,-0.22985,9.826104,0.009119,-0.021959,0.956555,-1.38,-10.32,-48.54,163.5582,0.6119,1.3162,55.814037,37.500313,219.066,0.0274,7871
-0.131685,-0.22985,9.826104,0.009119,-0.021959,0.956555,-1.38,-10.32,-48.54,163.5582,0.6119,1.3162,55.814037,37.500313,219.066,0.0274,7880
0.371113,-0.361535,10.166091,-0.007374,-0.048837,0.955944,-0.96,-10.8,-48.42,163.5582,0.6119,1.3162,55.814037,37.500313,219.066,0.0274,7890
0.169994,-0.122108,9.744699,-4.4E-05,0.039127,0.936397,-0.96,-10.8,-48.42,163.5582,0.6119,1.3162,55.814037,37.500313,219.066,0.0274,7901
-0.079011,-0.179571,10.079897,0.028056,-0.003023,0.933953,-0.72,-10.62,-48.72,171.4903,0.7291,0.8643,55.814037,37.500313,219.066,0.0274,7911
-0.079011,-0.179571,10.079897,0.038441,0.057453,0.935175,-1.2,-10.62,-48.84,171.4903,0.7291,0.8643,55.814037,37.500313,219.066,0.0274,7921
-0.423787,-0.136474,9.486116,0.049436,-0.00852,0.948614,-1.2,-10.62,-48.84,171.4903,0.7291,0.8643,55.814037,37.500313,219.066,0.0274,7930
-0.328016,-0.057463,9.689631,0.025001,-0.003023,0.967551,-1.56,-10.8,-48.72,171.4903,0.7291,0.8643,55.814037,37.500313,219.066,0.0274,7941
-0.450124,-0.105348,9.670476,-0.000655,-0.001801,0.983433,-1.56,-10.8,-48.72,171.4903,0.7291,0.8643,55.814037,37.500313,219.066,0.0274,7951
-0.34717,-0.172388,9.593859,-0.022646,-0.067163,0.99504,-0.84,-10.56,-48.18,171.1648,0.6176,0.9433,55.814037,37.500313,219.066,0.0274,7961
-0.34717,-0.172388,9.593859,-0.034863,-0.028068,0.999316,-0.84,-10.56,-48.18,171.1648,0.6176,0.9433,55.814037,37.500313,219.066,0.0274,7970
-0.007183,-0.177176,9.859624,-0.021424,-0.032955,0.999316,-0.9,-10.68,-48.36,171.1648,0.6176,0.9433,55.814037,37.500313,219.066,0.0274,7981
0.184359,-0.114925,9.895537,-0.021424,-0.032955,0.999316,-0.9,-10.68,-48.36,171.1648,0.6176,0.9433,55.814037,37.500313,219.066,0.0274,7991
0.287313,-0.095771,9.917087,0.001789,-0.038453,0.982822,-1.5,-11.58,-48.12,172.0451,0.6297,0.8959,55.814037,37.500313,219.066,0.0274,8000
0.227456,-0.126897,9.768641,0.015839,-0.000579,0.963275,-1.5,-11.58,-48.12,172.0451,0.6297,0.8959,55.814037,37.500313,219.066,0.0274,8011
0.215485,-0.146051,9.797373,0.010952,-0.023181,0.948614,-1.5,-12.18,-48,172.0451,0.6297,0.8959,55.814037,37.500313,219.066,0.0274,8021
0.215485,-0.146051,9.797373,-0.003098,-0.029901,0.928455,-1.5,-12.18,-48,172.0451,0.6297,0.8959,55.814037,37.500313,219.066,0.0274,8030
0.162811,-0.167599,9.799767,-0.01837,-0.013407,0.913795,-1.5,-11.82,-48.6,172.9777,0.6888,0.6439,55.814037,37.500313,219.066,0.0274,8040
0.136474,-0.201119,9.775824,-0.01837,-0.031733,0.900356,-1.5,-11.82,-48.6,172.9777,0.6888,0.6439,55.814037,37.500313,219.066,0.0274,8051
0.114925,-0.184359,9.953,-0.005542,-0.021959,0.88936,-1.38,-11.64,-48.78,172.9777,0.6888,0.6439,55.814037,37.500313,219.066,0.0274,8061
0.011971,-0.136474,9.826104,0.008508,-0.009742,0.885084,-1.38,-11.64,-48.78,172.9777,0.6888,0.6439,55.814037,37.500313,219.066,0.0274,8071
-0.057463,-0.095771,9.816526,0.019504,-0.021959,0.880808,-0.96,-11.46,-48.84,174.1388,0.7469,0.2277,55.814037,37.500313,219.066,0.0274,8081
-0.057463,-0.095771,9.816526,0.015228,-0.020738,0.88203,-0.96,-11.46,-48.84,174.1388,0.7469,0.2277,55.814037,37.500313,219.066,0.0274,8091
-0.038308,-0.117319,9.761458,0.000567,-0.023792,0.885084,-0.78,-11.52,-48.42,174.1388,0.7469,0.2277,55.814037,37.500313,219.066,0.0274,8100
-0.011971,-0.141262,9.751882,-0.014094,-0.028679,0.881419,-0.78,-11.52,-48.42,174.1388,0.7469,0.2277,55.814037,37.500313,219.066,0.0274,8111
0.01676,-0.172388,9.857229,-0.020203,-0.025625,0.883862,-0.9,-12.18,-48.18,174.9754,0.7371,0.1304,55.814037,37.500313,219.066,0.0274,8121
0.007183,-0.189148,9.897932,-0.010429,-0.028068,0.880808,-0.9,-12.18,-48.18,174.9754,0.7371,0.1304,55.814037,37.500313,219.066,0.0274,8131
0.007183,-0.189148,9.897932,-0.010429,-0.028068,0.880808,-1.14,-12,-48.54,174.9754,0.7371,0.1304,55.814037,37.500313,219.066,0.0274,8140
0.011971,-0.174782,9.90272,0.006065,-0.023181,0.878975,-1.14,-12,-48.54,174.9754,0.7371,0.1304,55.814037,37.500313,219.066,0.0274,8151
0.217879,-0.047885,10.738322,0.012784,-0.040285,0.871034,-1.32,-12.18,-48.42,175.0977,0.7537,0.0995,55.814037,37.500313,219.066,0.0274,8161
0.550683,-0.040703,9.033599,0.022558,0.070281,0.841713,-1.32,-12.18,-48.42,175.0977,0.7537,0.0995,55.814037,37.500313,219.066,0.0274,8170
-0.268159,0.047885,10.211582,0.050047,-0.019516,0.834993,-1.68,-12.36,-48.6,175.0977,0.7537,0.0995,55.814037,37.500313,219.066,0.0274,8181
-0.268159,0.047885,10.211582,0.030499,0.067227,0.839269,-1.68,-12.36,-48.6,175.0977,0.7537,0.0995,55.814037,37.500313,219.066,0.0274,8190
-0.462095,-0.03352,9.744699,0.008508,-0.044561,0.845378,-1.56,-12.78,-48.06,171.1272,0.7164,0.1468,55.814037,37.500313,219.066,0.0274,8201
-0.24661,-0.01676,9.505271,-0.012261,-0.058,0.855762,-1.56,-12.78,-48.06,171.1272,0.7164,0.1468,55.814037,37.500313,219.066,0.0274,8210
-0.10056,-0.122108,10.000886,-0.040972,-0.001801,0.864314,-1.38,-13.5,-48.42,171.1272,0.7164,0.1468,55.814037,37.500313,219.066,0.0274,8221
-0.10056,-0.122108,10.000886,-0.038528,-0.063498,0.860038,-1.38,-13.5,-48.42,171.1272,0.7164,0.1468,55.814037,37.500313,219.066,0.0274,8230
0.081405,-0.165205,9.754275,-0.038528,-0.063498,0.860038,-1.62,-13.62,-48.66,171.3482,0.6078,0.2447,55.814037,37.500313,219.066,0.0274,8240
0.31365,-0.174782,9.914692,-0.012872,-0.030511,0.847821,-1.62,-13.62,-48.66,171.3482,0.6078,0.2447,55.814037,37.500313,219.066,0.0274,8251
0.31365,-0.174782,9.914692,0.012784,0.003086,0.831939,-1.62,-13.62,-48.66,171.3482,0.6078,0.2447,55.814037,37.500313,219.066,0.0274,8261
0.201119,-0.090982,9.98652,0.024391,-0.045172,0.814834,-1.38,-13.32,-48.42,171.3482,0.6078,0.2447,55.814037,37.500313,219.066,0.0274,8271
0.22985,-0.06704,9.730332,0.019504,-0.010964,0.803228,-1.08,-13.08,-48.24,174.8099,0.6201,0.2721,55.814037,37.500313,219.066,0.0274,8280
0.146051,-0.088588,9.814133,0.000567,-0.009742,0.786124,-1.08,-13.08,-48.24,174.8099,0.6201,0.2721,55.814037,37.500313,219.066,0.0274,8291
0.146051,-0.088588,9.814133,-0.014094,-0.036009,0.785513,-1.32,-12.96,-47.76,174.8099,0.6201,0.2721,55.814037,37.500313,219.066,0.0274,8300
0.06704,-0.105348,9.866806,-0.014094,-0.036009,0.785513,-1.32,-12.96,-47.76,174.8099,0.6201,0.2721,55.814037,37.500313,219.066,0.0274,8311
0.505192,-0.239427,9.778218,-0.014705,-0.010353,0.781237,-1.08,-13.14,-47.7,174.8655,0.5761,0.2524,55.814037,37.500313,219.066,0.0274,8320
0.26337,-0.126897,9.878778,-4.4E-05,0.046458,0.765354,-1.08,-13.14,-47.7,174.8655,0.5761,0.2524,55.814037,37.500313,219.066,0.0274,8331
0.26337,-0.126897,9.878778,0.021947,0.01286,0.758635,-0.9,-13.68,-48.9,174.8655,0.5761,0.2524,55.814037,37.500313,219.066,0.0274,8341
-0.270553,-0.011971,10.039194,0.033554,-0.020127,0.765965,-0.9,-13.68,-48.9,174.8655,0.5761,0.2524,55.814037,37.500313,219.066,0.0274,8351
-0.153234,-0.138868,9.529214,0.018893,0.031186,0.771463,-1.26,-13.98,-49.5,175.2091,0.5884,0.252,55.814037,37.500313,219.066,0.0274,8361
-0.146051,-0.045491,9.778218,0.006065,-0.043951,0.772685,-1.26,-13.98,-49.5,175.2091,0.5884,0.252,55.814037,37.500313,219.066,0.0274,8370
-0.146051,-0.045491,9.778218,-0.018981,-0.006077,0.784291,-1.2,-13.56,-48.72,175.2091,0.5884,0.252,55.814037,37.500313,219.066,0.0274,8381
-0.081405,-0.126897,9.909904,-0.022646,-0.026235,0.786735,-1.2,-13.56,-48.72,175.2091,0.5884,0.252,55.814037,37.500313,219.066,0.0274,8390
-0.01676,-0.107742,9.730332,-0.022646,-0.026235,0.786735,-1.14,-13.26,-48.54,174.8954,0.5346,0.2363,55.814037,37.500313,219.066,0.0274,8401
0.088588,-0.155628,9.972155,-0.006153,-0.040285,0.784291,-1.14,-13.26,-48.54,174.8954,0.5346,0.2363,55.814037,37.500313,219.066,0.0274,8410
0.102954,-0.119714,9.885961,0.007897,0.001864,0.78368,-1.56,-13.62,-48.24,174.8954,0.5346,0.2363,55.814037,37.500313,219.066,0.0274,8421
0.102954,-0.119714,9.885961,0.014617,-0.031122,0.777572,-1.56,-13.62,-48.24,174.8954,0.5346,0.2363,55.814037,37.500313,219.066,0.0274,8430
0.081405,-0.098165,9.780613,0.01706,-0.026846,0.776961,-1.86,-13.86,-48.42,171.4813,0.5611,0.1997,55.814037,37.500313,219.066,0.0274,8441
0.05028,-0.045491,9.799767,0.002399,-0.004244,0.774517,-1.86,-13.86,-48.42,171.4813,0.5611,0.1997,55.814037,37.500313,219.066,0.0274,8450
0.06704,-0.112531,9.847652,-0.01165,-0.034177,0.767187,-1.92,-13.8,-48.06,171.4813,0.5611,0.1997,55.814037,37.500313,219.066,0.0274,8461
0.06704,-0.112531,9.847652,-0.013483,-0.021349,0.76902,-1.92,-13.8,-48.06,171.4813,0.5611,0.1997,55.814037,37.500313,219.066,0.0274,8471
0.126897,-0.134079,9.787795,-0.009207,-0.016462,0.7623,-1.86,-13.8,-47.34,171.929,0.5857,0.065,55.814037,37.500313,219.066,0.0274,8480
0.112531,-0.146051,9.826104,-0.000655,-0.028679,0.75497,-1.86,-13.8,-47.34,171.929,0.5857,0.065,55.814037,37.500313,219.066,0.0274,8491
0.148445,-0.114925,9.890749,0.008508,-0.010964,0.746417,-2.34,-14.04,-47.94,171.929,0.5857,0.065,55.814037,37.500313,219.066,0.0274,8500
0.179571,-0.136474,9.814133,0.012173,-0.018905,0.743974,-2.34,-14.04,-47.94,171.929,0.5857,0.065,55.814037,37.500313,219.066,0.0274,8510
0.179571,-0.136474,9.814133,0.012173,-0.018905,0.743974,-1.92,-14.4,-48.84,172.492,0.6121,-0.1006,55.814037,37.500313,219.066,0.0274,8521
0.426181,-0.102954,10.345661,0.004843,-0.018294,0.738476,-1.92,-14.4,-48.84,172.492,0.6121,-0.1006,55.814037,37.500313,219.066,0.0274,8530
0.220273,-0.117319,9.29218,0.002399,0.088607,0.714653,-1.14,-14.28,-49.2,172.492,0.6121,-0.1006,55.814037,37.500313,219.066,0.0274,8541
-0.349564,0.040703,10.264256,0.016449,-0.041507,0.720761,-1.14,-14.28,-49.2,172.492,0.6121,-0.1006,55.814037,37.500313,219.066,0.0274,8551
-0.483643,-0.069434,9.526819,0.015839,0.06967,0.74092,-1.38,-15.12,-48.78,177.4242,0.6358,-0.3517,55.814037,37.500313,219.066,0.0274,8561
-0.483643,-0.069434,9.526819,0.015839,-0.018294,0.759857,-1.38,-15.12,-48.78,177.4242,0.6358,-0.3517,55.814037,37.500313,219.066,0.0274,8570
-0.438152,-0.203513,9.838076,0.006676,-0.049448,0.781237,-1.02,-15.54,-48.3,177.4242,0.6358,-0.3517,55.814037,37.500313,219.066,0.0274,8580
-0.392661,-0.21309,9.859624,-0.010429,0.015914,0.809947,-1.02,-15.54,-48.3,177.4242,0.6358,-0.3517,55.814037,37.500313,219.066,0.0274,8591
-0.292102,-0.179571,9.689631,-0.015926,-0.034788,0.831328,-1.2,-14.7,-48.18,177.6567,0.6341,-0.435,55.814037,37.500313,219.066,0.0274,8601
-0.292102,-0.179571,9.689631,-0.006153,-0.045172,0.852708,-1.2,-14.7,-48.18,177.6567,0.6341,-0.435,55.814037,37.500313,219.066,0.0274,8611
-0.086194,-0.143656,10.022434,0.000567,-0.004855,0.86126,-1.68,-14.7,-48,177.6567,0.6341,-0.435,55.814037,37.500313,219.066,0.0274,8621
0.0838,-0.119714,9.751882,0.011562,-0.050059,0.863093,-1.68,-14.7,-48,177.6567,0.6341,-0.435,55.814037,37.500313,219.066,0.0274,8631
