ACCELEROMETER X (m/s²),ACCELEROMETER Y (m/s²),ACCELEROMETER Z (m/s²),GYROSCOPE X (rad/s),GYROSCOPE Y (rad/s),GYROSCOPE Z (rad/s),MAGNETIC FIELD X (μT),MAGNETIC FIELD Y (μT),MAGNETIC FIELD Z (μT),ORIENTATION Z (azimuth °),ORIENTATION X (pitch °),ORIENTATION Y (roll °),LOCATION Latitude : ,LOCATION Longitude : ,LOCATION Altitude ( m),LOCATION Speed ( m/s),Time since start in ms 
0.471672,-0.318439,10.000886,0.009073,-0.027696,-0.001453,15.72,-49.44,25.68,197.8272,0.6538,-0.7449,55.814053,37.500275,211.7293,0,39
0.471672,-0.318439,10.000886,0.057332,0.023006,-0.002675,15.72,-49.44,25.68,197.8272,0.6538,-0.7449,55.814053,37.500275,211.7293,0,47
0.423787,-0.215485,10.0368,0.065884,0.041943,-0.003897,14.88,-48.96,25.92,197.8272,0.6538,-0.7449,55.814053,37.500275,211.7293,0,57
0.205908,-0.090982,9.799767,0.052445,0.003458,-0.003286,14.88,-48.96,25.92,197.8272,0.6538,-0.7449,55.814053,37.500275,211.7293,0,67
0.057463,0.011971,9.615408,0.052445,0.003458,-0.003286,13.98,-48.66,25.44,195.6761,0.7307,-0.7763,55.814053,37.500275,211.7293,0,76
-0.095771,0.069434,9.58907,0.010906,0.022395,-0.004508,13.98,-48.66,25.44,195.6761,0.7307,-0.7763,55.814053,37.500275,211.7293,0,87
-0.095771,0.069434,9.58907,-0.026357,0.021173,-0.000842,14.04,-48.54,25.14,195.6761,0.7307,-0.7763,55.814053,37.500275,211.7293,0,97
-0.153234,0.076617,9.814133,-0.040407,-0.017311,0.004655,14.04,-48.54,25.14,195.6761,0.7307,-0.7763,55.814053,37.500275,211.7293,0,107
-0.079011,-0.002394,9.866806,-0.037963,-0.002651,0.005266,14.76,-48.78,25.2,196.7784,0.6795,-0.7244,55.814053,37.500275,211.7293,0,117
-0.079011,-0.002394,9.866806,-0.019637,-0.000207,0.002212,14.76,-48.78,25.2,196.7784,0.6795,-0.7244,55.814053,37.500275,211.7293,0,127
0.023943,-0.146051,9.90272,0.001743,-0.020366,0.002212,15,-49.62,25.08,196.7784,0.6795,-0.7244,55.814045,37.500305,209.3791,0,136
0.138868,-0.208302,9.957788,0.010295,-0.005094,0.001601,15,-49.62,25.08,196.7784,0.6795,-0.7244,55.814045,37.500305,209.3791,0,147
0.205908,-0.222668,9.747093,0.010295,-0.005705,0.00099,15.18,-49.86,25.14,196.4638,0.7074,-0.7232,55.814045,37.500305,209.3791,0,157
0.244216,-0.203513,9.900327,-0.003755,-0.011814,-0.000842,15.18,-49.86,25.14,196.4638,0.7074,-0.7232,55.814045,37.500305,209.3791,0,167
0.244216,-0.203513,9.900327,-0.00742,0.002236,-0.002064,15.54,-48.84,25.26,196.4638,0.7074,-0.7232,55.814045,37.500305,209.3791,0,176
0.217879,-0.153234,9.873989,-0.004977,0.002236,-0.000232,15.54,-48.84,25.26,196.4638,0.7074,-0.7232,55.814045,37.500305,209.3791,0,187
0.160416,-0.0838,9.823709,0.006019,0.000404,0.002823,15.48,-48.78,25.38,196.7702,0.6958,-0.7468,55.814045,37.500305,209.3791,0,196
0.090982,-0.071828,9.878778,0.015182,0.01201,0.002823,15.48,-48.78,25.38,196.7702,0.6958,-0.7468,55.814045,37.500305,209.3791,0,207
0.102954,-0.057463,9.783007,0.016404,0.006512,0.002212,14.7,-49.26,25.68,196.7702,0.6958,-0.7468,55.814045,37.500305,209.3791,0,217
0.102954,-0.057463,9.783007,0.009073,-0.003261,-0.002064,14.7,-49.26,25.68,196.7702,0.6958,-0.7468,55.814045,37.500305,209.3791,0,227
0.10056,-0.086194,9.787795,-0.003144,0.007123,-0.00634,14.64,-49.5,25.08,196.7723,0.6951,-0.7421,55.814045,37.500305,209.3791,0,236
0.052674,-0.105348,9.799767,-0.009253,-0.001429,-0.009394,14.64,-49.5,25.08,196.7723,0.6951,-0.7421,55.814045,37.500305,209.3791,0,247
0.026337,-0.079011,9.893144,-0.009253,-0.012424,-0.011227,15,-49.2,24.36,196.7723,0.6951,-0.7421,55.814045,37.500305,209.3791,0,256
-0.069434,-0.153234,9.857229,-0.001922,-0.003261,-0.010005,15,-49.2,24.36,196.7723,0.6951,-0.7421,55.814045,37.500305,209.3791,0,267
-0.069434,-0.153234,9.857229,0.003575,-0.00937,-0.006951,14.76,-48.84,25.26,196.7775,0.6661,-0.7223,55.814045,37.500305,209.3791,0,277
0.031126,-0.172388,9.852441,0.013349,-0.017311,-0.00634,14.76,-48.84,25.26,196.7775,0.6661,-0.7223,55.814045,37.500305,209.3791,0,287
0.301679,-0.071828,9.854836,0.013349,-0.017311,-0.00634,15.12,-48.84,25.62,196.7775,0.6661,-0.7223,55.814045,37.500305,209.3791,0,297
0.287313,-0.021548,9.75667,0.012128,-0.003261,-0.000232,15.12,-48.84,25.62,196.7775,0.6661,-0.7223,55.814045,37.500305,209.3791,0,306
0.287313,-0.021548,9.75667,0.007851,0.013232,0.008931,15.42,-48.84,24.96,196.8046,0.6346,-0.6551,55.814045,37.500305,209.3791,0,317
0.33041,-0.040703,9.747093,0.000521,0.002847,0.011986,15.42,-48.84,24.96,196.8046,0.6346,-0.6551,55.814045,37.500305,209.3791,0,327
0.265765,-0.098165,9.881172,-0.006198,0.013232,0.011375,14.88,-48.84,25.2,196.8046,0.6346,-0.6551,55.814045,37.500305,209.3791,0,336
-0.009577,-0.117319,9.794978,-0.008642,0.026671,0.013208,14.88,-48.84,25.2,196.8046,0.6346,-0.6551,55.814045,37.500305,209.3791,0,346
-0.10056,-0.107742,9.878778,-0.004977,0.010788,0.007099,14.7,-48.78,25.32,196.7666,0.5932,-0.7228,55.814045,37.500305,209.3791,0,356
-0.10056,-0.107742,9.878778,0.002965,0.009567,0.013208,14.7,-48.78,25.32,196.7666,0.5932,-0.7228,55.814045,37.500305,209.3791,0,367
-0.189148,-0.148445,9.845258,0.009073,0.01201,0.021149,15.24,-48.54,25.5,196.7666,0.5932,-0.7228,55.814045,37.500305,209.3791,0,377
-0.24661,-0.021548,9.735122,0.010906,-0.010592,0.030923,15.24,-48.54,25.5,196.7666,0.5932,-0.7228,55.814045,37.500305,209.3791,0,386
-0.03352,-0.002394,9.828498,0.004186,-0.019755,0.031533,15,-48.84,25.2,196.7462,0.5546,-0.754,55.814045,37.500305,209.3791,0,397
0.088588,-0.126897,9.771035,-0.008031,-0.003872,0.032755,15,-48.84,25.2,196.7462,0.5546,-0.754,55.814045,37.500305,209.3791,0,406
0.043097,-0.196331,9.823709,-0.013529,-0.008148,0.035199,14.7,-49.38,25.08,196.7462,0.5546,-0.754,55.814045,37.500305,209.3791,0,417
0.043097,-0.196331,9.823709,-0.015972,-0.022198,0.030312,14.7,-49.38,25.08,196.7462,0.5546,-0.754,55.814045,37.500305,209.3791,0,426
0.150839,-0.122108,9.888355,0.000521,-0.026474,0.022981,14.94,-49.38,25.62,196.8444,0.5065,-0.5167,55.814045,37.500305,209.3791,0,436
0.387873,-0.002394,9.96976,0.015182,-0.003261,0.016262,14.94,-49.38,25.62,196.8444,0.5065,-0.5167,55.814045,37.500305,209.3791,0,447
0.500403,-0.023943,9.727939,0.02068,0.004069,0.011986,15.18,-49.26,24.66,196.8444,0.5065,-0.5167,55.814045,37.500305,209.3791,0,457
0.426181,-0.119714,9.830893,0.007241,0.008345,0.009542,15.18,-49.26,24.66,196.8444,0.5065,-0.5167,55.814045,37.500305,209.3791,0,467
0.426181,-0.119714,9.830893,-0.008031,0.027282,0.016873,15.78,-49.14,23.7,197.961,0.5506,-0.4565,55.814045,37.500305,209.3791,0,477
0.201119,-0.167599,9.804555,-0.017194,0.020562,0.024814,15.78,-49.14,23.7,197.961,0.5506,-0.4565,55.814045,37.500305,209.3791,0,487
-0.059857,-0.172388,9.80695,-0.017194,0.020562,0.024814,15.54,-49.32,24.3,197.961,0.5506,-0.4565,55.814045,37.500305,209.3791,0,496
-0.275342,-0.105348,9.900327,-0.017194,0.014454,0.030923,15.54,-49.32,24.3,197.961,0.5506,-0.4565,55.814045,37.500305,209.3791,0,507
-0.351958,-0.079011,9.845258,0.005408,0.021173,0.051081,15.42,-49.14,24.84,196.7906,0.5852,-0.6695,55.814045,37.500305,209.3791,0,516
-0.351958,-0.079011,9.845258,0.02068,0.002236,0.063909,15.42,-49.14,24.84,196.7906,0.5852,-0.6695,55.814045,37.500305,209.3791,0,527
-0.316044,-0.098165,9.797373,0.02129,-0.00204,0.081624,15.36,-49.14,25.14,196.7906,0.5852,-0.6695,55.814045,37.500305,209.3791,0,537
-0.260976,-0.10056,9.744699,0.009073,0.007734,0.104837,15.36,-49.14,25.14,196.7906,0.5852,-0.6695,55.814045,37.500305,209.3791,0,548
-0.205908,-0.136474,9.737515,-0.00742,-0.012424,0.126218,14.82,-48.78,25.44,196.8539,0.5826,-0.5347,55.814045,37.500305,209.3791,0,557
-0.203513,-0.141262,9.850046,-0.017194,-0.011814,0.146376,14.82,-48.78,25.44,196.8539,0.5826,-0.5347,55.814045,37.500305,209.3791,0,567
-0.203513,-0.141262,9.850046,-0.017194,-0.005094,0.166535,14.46,-48.66,25.26,196.8539,0.5826,-0.5347,55.814045,37.500305,209.3791,0,577
-0.186753,-0.134079,9.821315,0.001132,-0.017922,0.187304,14.46,-48.66,25.26,196.8539,0.5826,-0.5347,55.814045,37.500305,209.3791,0,586
-0.134079,-0.119714,9.90272,0.010295,-0.009981,0.198911,14.52,-48.54,25.26,196.9947,0.5995,-0.2405,55.814045,37.500305,209.3791,0,597
-0.071828,-0.122108,9.821315,0.010295,-0.009981,0.198911,14.52,-48.54,25.26,196.9947,0.5995,-0.2405,55.814045,37.500305,209.3791,0,607
-0.031126,-0.141262,9.778218,0.014571,-0.008148,0.218458,14.88,-48.84,25.44,196.9947,0.5995,-0.2405,55.814045,37.500305,209.3791,0,616
-0.031126,-0.141262,9.778218,0.005408,-0.012424,0.231286,14.88,-48.84,25.44,196.9947,0.5995,-0.2405,55.814045,37.500305,209.3791,0,627
-0.040703,-0.174782,9.778218,-0.005588,-0.005094,0.243504,15.12,-49.62,25.2,196.6674,0.6043,-0.2525,55.814045,37.500305,209.3791,0,636
-0.088588,-0.129291,9.804555,-0.011696,-0.001429,0.263662,15.12,-49.62,25.2,196.6674,0.6043,-0.2525,55.814045,37.500305,209.3791,0,647
-0.153234,-0.114925,9.857229,-0.005588,-0.005094,0.283821,15,-49.44,24.84,196.6674,0.6043,-0.2525,55.814045,37.500305,209.3791,0,657
-0.215485,-0.102954,9.845258,-0.001312,0.002236,0.297871,15,-49.44,24.84,196.6674,0.6043,-0.2525,55.814045,37.500305,209.3791,0,667
-0.215485,-0.102954,9.845258,0.009073,-0.000207,0.31864,14.52,-48.72,24.96,196.9884,0.6096,-0.2572,55.814045,37.500305,209.3791,0,677
-0.256187,-0.148445,9.785401,0.009073,-0.008759,0.338188,14.52,-48.72,24.96,196.9884,0.6096,-0.2572,55.814045,37.500305,209.3791,0,686
-0.268159,-0.160416,9.766247,0.002965,-0.008148,0.363233,14.94,-48.42,25.26,196.9884,0.6096,-0.2572,55.814045,37.500305,209.3791,0,697
-0.225062,-0.148445,9.794978,-0.008642,-0.01609,0.385835,14.94,-48.42,25.26,196.9884,0.6096,-0.2572,55.814045,37.500305,209.3791,0,707
-0.150839,-0.158022,9.830893,-0.014751,-0.0167,0.401107,15.6,-48.72,25.2,198.0584,0.6074,-0.2547,55.814045,37.500305,209.3791,0,716
-0.150839,-0.158022,9.830893,-0.012918,-0.015479,0.425542,15.6,-48.72,25.2,198.0584,0.6074,-0.2547,55.814045,37.500305,209.3791,0,727
-0.146051,-0.203513,9.835681,-0.001312,-0.017922,0.4457,15.54,-49.14,24.96,198.0584,0.6074,-0.2547,55.814045,37.500305,209.3791,0,737
-0.141262,-0.186753,9.852441,0.009684,-0.011814,0.464637,15.54,-49.14,24.96,198.0584,0.6074,-0.2547,55.814045,37.500305,209.3791,0,747
-0.117319,-0.146051,9.785401,0.010295,-0.015479,0.473189,14.7,-48.72,25.92,196.9824,0.6301,-0.2731,55.814045,37.500305,209.3791,0,757
-0.117319,-0.146051,9.785401,0.00663,-0.017922,0.487239,14.7,-48.72,25.92,196.9824,0.6301,-0.2731,55.814045,37.500305,209.3791,0,767
-0.093377,-0.126897,9.763853,-0.001312,-0.019755,0.5019,13.98,-48.66,26.16,196.9824,0.6301,-0.2731,55.814045,37.500305,209.3791,0,777
-0.007183,-0.102954,9.742304,-0.008642,-0.021587,0.50923,13.98,-48.66,26.16,196.9824,0.6301,-0.2731,55.814045,37.500305,209.3791,0,787
0.071828,-0.150839,9.828498,-0.018416,-0.014868,0.520226,14.4,-49.8,24.9,195.5868,0.6259,-0.2962,55.814045,37.500305,209.3791,0,797
0.035914,-0.198725,9.816526,-0.015361,-0.011203,0.527556,14.4,-49.8,24.9,195.5868,0.6259,-0.2962,55.814045,37.500305,209.3791,0,807
0.035914,-0.198725,9.816526,-0.009864,-0.022809,0.531832,14.82,-49.98,24.06,195.5868,0.6259,-0.2962,55.814045,37.500305,209.3791,0,817
0.167599,-0.299284,9.895537,-0.001922,-0.010592,0.535497,14.82,-49.98,24.06,195.5868,0.6259,-0.2962,55.814045,37.500305,209.3791,0,827
0.059857,-0.311256,9.926663,-0.001312,0.004069,0.532443,14.88,-49.62,24.3,196.645,0.6536,-0.321,55.814045,37.500305,209.3791,0,837
0.023943,-0.141262,9.778218,0.016404,-0.024642,0.541606,14.88,-49.62,24.3,196.645,0.6536,-0.321,55.814045,37.500305,209.3791,0,847
0.023943,-0.141262,9.778218,0.02068,-0.019144,0.545882,14.64,-49.74,24.18,196.645,0.6536,-0.321,55.814045,37.500305,209.3791,0,857
0.055068,-0.028731,9.852441,0.02129,0.00468,0.555045,14.64,-49.74,24.18,196.645,0.6536,-0.321,55.814045,37.500305,209.3791,0,867
0.004789,-0.076617,9.58907,0.006019,-0.024031,0.556878,14.58,-49.68,24.24,196.6419,0.6629,-0.3309,55.814045,37.500305,209.3791,0,877
0.057463,-0.143656,9.809344,-0.008642,-0.028918,0.559321,14.58,-49.68,24.24,196.6419,0.6629,-0.3309,55.814045,37.500305,209.3791,0,887
0.057463,-0.143656,9.809344,-0.008642,-0.028918,0.559321,14.4,-49.02,24.48,196.6419,0.6629,-0.3309,55.814045,37.500305,209.3791,0,897
0.110137,-0.158022,9.811738,-0.019637,-0.011203,0.566041,14.4,-49.02,24.48,196.6419,0.6629,-0.3309,55.814045,37.500305,209.3791,0,906
0.167599,-0.126897,9.816526,-0.008642,-0.026474,0.56543,13.92,-50.04,24.6,195.5604,0.6404,-0.3567,55.814045,37.500305,209.3791,0,917
0.155628,-0.136474,9.881172,0.002965,-0.002651,0.567262,13.92,-50.04,24.6,195.5604,0.6404,-0.3567,55.814045,37.500305,209.3791,0,927
0.136474,-0.136474,9.794978,0.010906,-0.014868,0.569706,14.64,-51.06,24.24,195.5604,0.6404,-0.3567,55.814045,37.500305,209.3791,0,937
0.136474,-0.136474,9.794978,0.007241,-0.018533,0.567262,14.64,-51.06,24.24,195.5604,0.6404,-0.3567,55.814045,37.500305,209.3791,0,947
0.105348,-0.184359,9.761458,-9E-05,-0.003261,0.570317,15.54,-50.22,24.24,197.6757,0.6725,-0.3754,55.814045,37.500305,209.3791,0,957
0.114925,-0.232245,9.75667,-0.011085,-0.019144,0.570317,15.54,-50.22,24.24,197.6757,0.6725,-0.3754,55.814045,37.500305,209.3791,0,967
0.086194,-0.249005,9.90272,-0.015361,-0.019144,0.571538,15.24,-49.74,24.84,197.6757,0.6725,-0.3754,55.814045,37.500305,209.3791,0,978
0.086194,-0.249005,9.90272,-0.003144,-0.014868,0.575204,15.24,-49.74,24.84,197.6757,0.6725,-0.3754,55.814045,37.500305,209.3791,0,986
0.031126,-0.146051,9.814133,0.015793,-0.030139,0.572149,14.82,-49.98,24.48,196.5992,0.7342,-0.4488,55.814045,37.500305,209.3791,0,997
0.093377,-0.031126,9.854836,0.015793,-0.030139,0.572149,14.82,-49.98,24.48,196.5992,0.7342,-0.4488,55.814045,37.500305,209.3791,0,1006
0.193936,-0.05028,9.732727,0.023734,-0.017922,0.576425,14.52,-50.46,24.06,196.5992,0.7342,-0.4488,55.814045,37.500305,209.3791,0,1017
0.289707,-0.172388,9.699207,0.009684,-0.019144,0.575204,14.52,-50.46,24.06,196.5992,0.7342,-0.4488,55.814045,37.500305,209.3791,0,1027
0.275342,-0.24661,9.804555,-0.025746,-0.014868,0.575814,14.04,-50.22,24.3,195.5227,0.8304,-0.5024,55.814045,37.500305,209.3791,0,1039
0.275342,-0.24661,9.804555,-0.025746,-0.014868,0.575814,14.04,-50.22,24.3,195.5227,0.8304,-0.5024,55.814045,37.500305,209.3791,0,1047
0.222668,-0.244216,9.840469,-0.02819,-0.011203,0.575204,14.52,-49.86,24.48,195.5227,0.8304,-0.5024,55.814045,37.500305,209.3791,0,1057
0.153234,-0.205908,9.931452,-0.011085,-0.008759,0.578869,14.52,-49.86,24.48,195.5227,0.8304,-0.5024,55.814045,37.500305,209.3791,0,1067
-0.009577,-0.126897,9.842864,0.015182,0.002236,0.584367,14.94,-50.4,24.6,196.5291,0.8583,-0.6287,55.814045,37.500305,209.3791,0,1077
-0.009577,-0.126897,9.842864,0.027399,-0.008148,0.591086,14.94,-50.4,24.6,196.5291,0.8583,-0.6287,55.814045,37.500305,209.3791,0,1086
-0.10056,-0.138868,9.735122,0.017014,-0.012424,0.601471,14.46,-50.64,25.02,196.5291,0.8583,-0.6287,55.814045,37.500305,209.3791,0,1097
-0.112531,-0.184359,9.727939,-0.006198,-0.020366,0.611855,14.46,-50.64,25.02,196.5291,0.8583,-0.6287,55.814045,37.500305,209.3791,0,1107
-0.059857,-0.232245,9.718362,-0.02147,-0.029529,0.614299,14.76,-49.86,24.72,196.498,0.9188,-0.7141,55.814045,37.500305,209.3791,0,1116
0.086194,-0.258582,9.864412,-0.0288,-0.033805,0.621629,14.76,-49.86,24.72,196.498,0.9188,-0.7141,55.814045,37.500305,209.3791,0,1127
0.086194,-0.258582,9.864412,-0.01414,-0.030139,0.626516,14.46,-50.16,24.3,196.498,0.9188,-0.7141,55.814037,37.500317,208.6767,0,1137
0.198725,-0.217879,9.90272,0.007241,-0.027696,0.623462,14.46,-50.16,24.3,196.498,0.9188,-0.7141,55.814037,37.500317,208.6767,0,1147
0.323227,-0.193936,9.921875,0.024345,-0.018533,0.625295,14.4,-50.64,24.18,195.2089,0.9821,-0.5941,55.814037,37.500317,208.6767,0,1157
0.311256,-0.184359,9.80695,0.029232,-0.007537,0.626516,14.4,-50.64,24.18,195.2089,0.9821,-0.5941,55.814037,37.500317,208.6767,0,1167
0.186753,-0.181965,9.725544,0.02129,-0.006927,0.628349,14.34,-50.28,24.48,195.2089,0.9821,-0.5941,55.814037,37.500317,208.6767,0,1177
0.071828,-0.174782,9.727939,0.001132,-0.011203,0.631403,14.34,-50.28,24.48,195.2089,0.9821,-0.5941,55.814037,37.500317,208.6767,0,1186
0.071828,-0.174782,9.727939,0.001132,-0.011203,0.631403,13.32,-49.86,24.48,194.4205,1.0429,-0.6147,55.814037,37.500317,208.6767,0,1197
0.045491,-0.146051,9.737515,-0.01414,-0.014257,0.638123,13.32,-49.86,24.48,194.4205,1.0429,-0.6147,55.814037,37.500317,208.6767,0,1206
0.086194,-0.110137,9.818921,-0.015361,-0.024031,0.641788,13.38,-50.16,24.24,194.4205,1.0429,-0.6147,55.814037,37.500317,208.6767,0,1217
0.119714,-0.110137,9.847652,-0.004977,-0.017922,0.641788,13.38,-50.16,24.24,194.4205,1.0429,-0.6147,55.814037,37.500317,208.6767,0,1226
0.129291,-0.24661,9.778218,0.004797,-0.019755,0.646675,13.68,-50.76,24.12,195.1781,1.0736,-0.6895,55.814037,37.500317,208.6767,0,1237
0.129291,-0.24661,9.778218,0.007851,-0.019144,0.648507,13.68,-50.76,24.12,195.1781,1.0736,-0.6895,55.814037,37.500317,208.6767,0,1247
0.193936,-0.301679,9.840469,0.001743,-0.017311,0.656449,13.8,-50.64,23.64,195.1781,1.0736,-0.6895,55.814037,37.500317,208.6767,0,1257
0.198725,-0.284919,9.816526,-0.004977,-0.014257,0.661336,13.8,-50.64,23.64,195.1781,1.0736,-0.6895,55.814037,37.500317,208.6767,0,1266
0.114925,-0.186753,9.79019,-0.005588,-0.014868,0.667444,13.74,-50.4,23.82,195.4644,1.0586,-0.6973,55.814037,37.500317,208.6767,0,1277
0.112531,-0.088588,9.847652,0.002965,-0.01609,0.669277,13.74,-50.4,23.82,195.4644,1.0586,-0.6973,55.814037,37.500317,208.6767,0,1287
0.112531,-0.088588,9.847652,0.010295,-0.014868,0.668055,13.56,-50.76,23.82,195.4644,1.0586,-0.6973,55.814037,37.500317,208.6767,0,1297
0.146051,-0.064645,9.766247,0.010906,-0.024031,0.666222,13.56,-50.76,23.82,195.4644,1.0586,-0.6973,55.814037,37.500317,208.6767,0,1307
0.201119,-0.129291,9.730332,-0.003755,-0.021587,0.660725,13.44,-51.36,23.94,194.1029,1.1339,-0.7367,55.814037,37.500317,208.6767,0,1317
0.201119,-0.129291,9.730332,-0.022081,-0.022198,0.660725,13.44,-51.36,23.94,194.1029,1.1339,-0.7367,55.814037,37.500317,208.6767,0,1327
0.258582,-0.222668,9.75667,-0.025135,-0.024642,0.65767,13.32,-51.06,24.42,194.1029,1.1339,-0.7367,55.814037,37.500317,208.6767,0,1337
0.289707,-0.277736,9.811738,-0.025135,-0.024642,0.65767,13.32,-51.06,24.42,194.1029,1.1339,-0.7367,55.814037,37.500317,208.6767,0,1347
0.249005,-0.284919,9.90272,-0.016583,-0.0167,0.659503,13.44,-50.4,24.18,194.3506,1.0948,-0.7817,55.814037,37.500317,208.6767,0,1357
0.249005,-0.284919,9.90272,0.002354,-0.0167,0.655227,13.44,-50.4,24.18,194.3506,1.0948,-0.7817,55.814037,37.500317,208.6767,0,1367
0.22985,-0.22985,9.838076,0.01396,-0.01609,0.647896,13.44,-50.94,24,194.3506,1.0948,-0.7817,55.814037,37.500317,208.6767,0,1376
0.277736,-0.177176,9.785401,0.017625,-0.009981,0.646064,13.44,-50.94,24,194.3506,1.0948,-0.7817,55.814037,37.500317,208.6767,0,1387
0.258582,-0.148445,9.744699,0.002354,-0.014868,0.644231,13.26,-51.78,24.42,193.7599,1.1509,-0.9219,55.814037,37.500317,208.6767,0,1397
0.249005,-0.172388,9.720756,-0.011696,-0.014868,0.645453,13.26,-51.78,24.42,193.7599,1.1509,-0.9219,55.814037,37.500317,208.6767,0,1407
0.249005,-0.172388,9.720756,-0.020859,-0.009981,0.641788,13.56,-51.36,24.36,193.7599,1.1509,-0.9219,55.814037,37.500317,208.6767,0,1416
0.225062,-0.193936,9.816526,-0.020859,-0.010592,0.64301,13.56,-51.36,24.36,193.7599,1.1509,-0.9219,55.814037,37.500317,208.6767,0,1427
0.21309,-0.210696,9.845258,-0.009864,-0.014868,0.647286,13.44,-51.24,23.94,193.9568,1.1556,-1.0671,55.814037,37.500317,208.6767,0,1437
0.177176,-0.208302,9.866806,-0.009864,-0.014868,0.647286,13.44,-51.24,23.94,193.9568,1.1556,-1.0671,55.814037,37.500317,208.6767,0,1447
0.177176,-0.208302,9.866806,0.001132,0.007734,0.654616,13.44,-51.18,23.76,193.9568,1.1556,-1.0671,55.814037,37.500317,208.6767,0,1457
0.059857,-0.320833,9.744699,0.001743,-0.005705,0.660725,13.44,-51.18,23.76,193.9568,1.1556,-1.0671,55.814037,37.500317,208.6767,0,1467
-0.002394,-0.373507,9.792584,-0.001922,-0.012424,0.67172,13.8,-50.88,23.4,194.9922,1.1865,-1.1737,55.814037,37.500317,208.6767,0,1477
-0.06704,-0.385478,9.883567,-0.012918,-0.003261,0.67844,13.8,-50.88,23.4,194.9922,1.1865,-1.1737,55.814037,37.500317,208.6767,0,1487
-0.023943,-0.339987,9.80695,-0.008031,-0.022198,0.691268,13.62,-51.18,23.76,194.9922,1.1865,-1.1737,55.814037,37.500317,208.6767,0,1497
-0.023943,-0.339987,9.80695,0.002354,-0.022809,0.69982,13.62,-51.18,23.76,194.9922,1.1865,-1.1737,55.814037,37.500317,208.6767,0,1506
-0.021548,-0.232245,9.873989,0.002354,-0.022809,0.69982,13.38,-50.94,23.94,193.9682,1.2791,-1.074,55.814037,37.500317,208.6767,0,1517
0.021548,-0.146051,9.811738,0.017625,-0.014868,0.714481,13.38,-50.94,23.94,193.9682,1.2791,-1.074,55.814037,37.500317,208.6767,0,1527
0.081405,-0.169993,9.718362,0.019458,-0.027696,0.726698,13.5,-50.52,23.7,193.9682,1.2791,-1.074,55.814037,37.500317,208.6767,0,1537
0.081405,-0.169993,9.718362,0.00663,-0.015479,0.732807,13.5,-50.52,23.7,193.9682,1.2791,-1.074,55.814037,37.500317,208.6767,0,1546
0.0838,-0.237033,9.730332,-0.009253,-0.014257,0.740748,12.84,-51.36,23.04,194.0957,1.3939,-0.8415,55.814037,37.500317,208.6767,0,1557
0.06704,-0.28013,9.804555,-0.023303,-0.025253,0.747468,12.84,-51.36,23.04,194.0957,1.3939,-0.8415,55.814037,37.500317,208.6767,0,1567
0.06704,-0.308861,9.850046,-0.023914,-0.018533,0.759685,12.66,-51.66,23.16,194.0957,1.3939,-0.8415,55.814037,37.500317,208.6767,0,1577
0.071828,-0.325621,9.895537,-0.012307,-0.017922,0.767015,12.66,-51.66,23.16,194.0957,1.3939,-0.8415,55.814037,37.500317,208.6767,0,1587
0.071828,-0.325621,9.895537,-0.000701,-0.022809,0.776789,13.14,-51.06,24.18,194.1291,1.423,-0.7546,55.814037,37.500317,208.6767,0,1597
0.059857,-0.349564,9.883567,0.014571,-0.014257,0.789006,13.14,-51.06,24.18,194.1291,1.423,-0.7546,55.814037,37.500317,208.6767,0,1607
0.045491,-0.33041,9.778218,0.009684,-0.020976,0.801835,12.96,-50.88,24.66,194.1291,1.423,-0.7546,55.814037,37.500317,208.6767,0,1617
0.019154,-0.306467,9.780613,0.002965,-0.024031,0.81283,12.96,-50.88,24.66,194.1291,1.423,-0.7546,55.814037,37.500317,208.6767,0,1627
0.043097,-0.31365,9.794978,-0.006809,-0.022809,0.823215,12.84,-51.3,24.54,194.1279,1.4564,-0.7502,55.814037,37.500317,208.6767,0,1637
0.043097,-0.31365,9.794978,-0.008642,-0.024642,0.832378,12.84,-51.3,24.54,194.1279,1.4564,-0.7502,55.814037,37.500317,208.6767,0,1647
0.095771,-0.316044,9.826104,-0.008642,-0.028307,0.837265,12.6,-51.84,24.18,194.1279,1.4564,-0.7502,55.814037,37.500317,208.6767,0,1656
0.126897,-0.337593,9.854836,0.005408,-0.022809,0.851315,12.6,-51.84,24.18,194.1279,1.4564,-0.7502,55.814037,37.500317,208.6767,0,1668
0.126897,-0.337593,9.854836,0.005408,-0.022809,0.851315,12.36,-52.32,23.7,192.8164,1.4785,-0.7519,55.814037,37.500317,208.6767,0,1677
0.169994,-0.275342,9.818921,0.012738,-0.024031,0.859867,12.96,-51.96,23.16,192.8164,1.4785,-0.7519,55.814037,37.500317,208.6767,0,1687
0.215485,-0.249005,9.780613,0.012738,-0.020366,0.86231,12.96,-51.96,23.16,192.8164,1.4785,-0.7519,55.814037,37.500317,208.6767,0,1697
0.215485,-0.249005,9.780613,0.004797,-0.017311,0.867808,13.38,-52.14,23.1,192.8164,1.4785,-0.7519,55.814037,37.500317,208.6767,0,1707
0.181965,-0.270553,9.799767,-0.006809,-0.015479,0.877582,13.38,-52.14,23.1,192.8164,1.4785,-0.7519,55.814037,37.500317,208.6767,0,1717
0.0838,-0.265764,9.775824,-0.009864,-0.014257,0.891021,12.96,-52.2,23.82,193.8744,1.4995,-0.753,55.814037,37.500317,208.6767,0,1727
0.038308,-0.308861,9.826104,-0.009864,-0.011203,0.898962,12.96,-52.32,24.06,193.8744,1.4995,-0.753,55.814037,37.500317,208.6767,0,1737
-0.074223,-0.339987,9.873989,-0.008031,-0.00937,0.91851,12.96,-52.32,24.06,193.8744,1.4995,-0.753,55.814037,37.500317,208.6767,0,1746
-0.074223,-0.339987,9.873989,-0.001922,-0.017311,0.938058,12.42,-51.72,24,193.8744,1.4995,-0.753,55.814037,37.500317,208.6767,0,1756
-0.150839,-0.416604,9.780613,-0.001922,-0.017311,0.938058,12.42,-51.72,24,193.8744,1.4995,-0.753,55.814037,37.500317,208.6767,0,1766
-0.169993,-0.433364,9.828498,-0.001922,-0.021587,0.956383,12.24,-51.9,23.82,192.8368,1.5529,-0.7242,55.814037,37.500317,208.6767,0,1777
-0.153234,-0.447729,9.854836,-0.003144,-0.024642,0.977153,12.24,-51.9,23.82,192.8368,1.5529,-0.7242,55.814037,37.500317,208.6767,0,1787
-0.074223,-0.447729,9.804555,-0.001312,-0.031972,0.994257,11.94,-52.2,23.94,192.8368,1.5529,-0.7242,55.814037,37.500317,208.6767,0,1797
0.002394,-0.421392,9.869201,-0.000701,-0.036859,1.011972,11.94,-52.2,23.94,192.8368,1.5529,-0.7242,55.814037,37.500317,208.6767,0,1807
0.002394,-0.421392,9.869201,0.004186,-0.032583,1.032131,12,-51.6,24.24,192.8476,1.5876,-0.7082,55.814037,37.500317,208.6767,0,1817
0.074223,-0.392661,9.842864,0.007851,-0.033805,1.044959,12,-51.6,24.24,192.8476,1.5876,-0.7082,55.814037,37.500317,208.6767,0,1827
0.112531,-0.404632,9.794978,0.007851,-0.031361,1.053511,11.94,-51.6,24.12,192.8476,1.5876,-0.7082,55.814037,37.500317,208.6767,0,1837
0.105348,-0.39745,9.826104,0.003575,-0.03075,1.062063,11.4,-51.9,24.24,191.7811,1.6147,-0.7158,55.814037,37.500317,208.6767,0,1847
0.105348,-0.39745,9.826104,-0.001922,-0.03747,1.07428,11.4,-51.9,24.24,191.7811,1.6147,-0.7158,55.814037,37.500317,208.6767,0,1857
0.217879,-0.36393,9.783007,-0.004977,-0.027696,1.079167,10.74,-52.02,24.24,191.7811,1.6147,-0.7158,55.814037,37.500317,208.6767,0,1867
0.26337,-0.351958,9.814133,-0.004977,-0.027696,1.079167,10.74,-52.02,24.24,191.7811,1.6147,-0.7158,55.814037,37.500317,208.6767,0,1877
0.201119,-0.390267,9.823709,-0.002533,-0.022198,1.082222,11.52,-52.08,23.82,192.8489,1.6351,-0.7168,55.814037,37.500317,208.6767,0,1886
0.201119,-0.390267,9.823709,-0.001312,-0.027696,1.092606,11.52,-52.08,23.82,192.8489,1.6351,-0.7168,55.814037,37.500317,208.6767,0,1897
0.148445,-0.438152,9.821315,-0.001312,-0.022198,1.099326,11.82,-52.68,24.3,192.8489,1.6351,-0.7168,55.814037,37.500317,208.6767,0,1907
0.10056,-0.457306,9.814133,-0.001312,-0.026474,1.102991,11.82,-52.68,24.3,192.8489,1.6351,-0.7168,55.814037,37.500317,208.6767,0,1918
0.102954,-0.462095,9.838076,-0.004366,-0.025863,1.111543,11.1,-52.38,23.88,191.791,1.6748,-0.7071,55.814037,37.500317,208.6767,0,1927
0.076617,-0.457306,9.833286,-0.003144,-0.025253,1.115819,11.1,-52.38,23.88,191.791,1.6748,-0.7071,55.814037,37.500317,208.6767,0,1936
0.076617,-0.457306,9.833286,-0.000701,-0.034416,1.126204,10.98,-51.66,24.24,191.791,1.6748,-0.7071,55.814037,37.500317,208.6767,0,1947
0.093377,-0.428575,9.802161,0.003575,-0.032583,1.129869,10.98,-51.66,24.24,191.791,1.6748,-0.7071,55.814037,37.500317,208.6767,0,1957
0.155628,-0.407027,9.809344,-9E-05,-0.036859,1.134145,11.52,-51.96,24.66,192.8642,1.7169,-0.6901,55.814037,37.500317,208.6767,0,1967
0.227456,-0.356747,9.804555,-0.003144,-0.033805,1.140254,11.52,-51.96,24.66,192.8642,1.7169,-0.6901,55.814037,37.500317,208.6767,0,1976
0.227456,-0.395055,9.816526,-0.003144,-0.033805,1.140254,11.64,-53.22,24.18,192.8642,1.7169,-0.6901,55.814037,37.500317,208.6767,0,1987
0.277736,-0.395055,9.816526,-0.006198,-0.029529,1.145752,11.64,-53.22,24.18,192.8642,1.7169,-0.6901,55.814037,37.500317,208.6767,0,1996
0.193936,-0.466884,9.830893,-0.011696,-0.024031,1.152471,11.1,-53.22,24.3,191.5862,1.7497,-0.6907,55.814037,37.500317,208.6767,0,2007
0.10056,-0.569837,9.830893,-0.01414,-0.020366,1.159802,11.1,-53.22,24.3,191.5862,1.7497,-0.6907,55.814037,37.500317,208.6767,0,2017
0.028731,-0.61054,9.888355,-0.011696,-0.025253,1.166521,11.04,-52.56,24.24,191.5862,1.7497,-0.6907,55.814037,37.500317,208.6767,0,2027
0.028731,-0.61054,9.888355,-0.008031,-0.028307,1.175073,10.86,-52.68,23.82,191.5862,1.7497,-0.6907,55.814037,37.500317,208.6767,0,2037
-0.023943,-0.581809,9.871595,-9E-05,-0.032583,1.184847,10.86,-52.68,23.82,191.5862,1.7497,-0.6907,55.814037,37.500317,208.6767,0,2047
0.035914,-0.536318,9.799767,0.009073,-0.038081,1.192788,10.44,-52.86,23.76,190.549,1.8175,-0.6611,55.814037,37.500317,208.6767,0,2057
0.114925,-0.488432,9.80695,0.010295,-0.041135,1.202562,10.44,-52.86,23.76,190.549,1.8175,-0.6611,55.814037,37.500317,208.6767,0,2068
0.227456,-0.430969,9.828498,0.007241,-0.036248,1.206838,10.2,-53.28,24.3,190.549,1.8175,-0.6611,55.814037,37.500317,208.6767,0,2076
0.227456,-0.430969,9.828498,0.001132,-0.043579,1.211725,10.2,-53.28,24.3,190.549,1.8175,-0.6611,55.814037,37.500317,208.6767,0,2087
0.270553,-0.409421,9.828498,-0.006198,-0.035026,1.214779,10.14,-53.1,24.24,190.5555,1.8443,-0.6518,55.814037,37.500317,208.6767,0,2097
0.306467,-0.505192,9.768641,-0.011696,-0.035026,1.220888,10.14,-53.1,24.24,190.5555,1.8443,-0.6518,55.814037,37.500317,208.6767,0,2107
0.249005,-0.557866,9.876384,-0.011696,-0.027696,1.22211,9.96,-52.02,24.6,190.5555,1.8443,-0.6518,55.814037,37.500317,208.6767,0,2116
0.141262,-0.603357,9.845258,-0.008031,-0.028918,1.218445,9.96,-52.02,24.6,190.5555,1.8443,-0.6518,55.814037,37.500317,208.6767,0,2127
0.141262,-0.603357,9.845258,-0.000701,-0.049687,1.221499,9.9,-52.32,24.48,190.7631,1.8842,-0.6459,55.814026,37.500305,207.9019,0,2137
0.239427,-0.562655,9.854836,0.00663,-0.044189,1.221499,9.9,-52.32,24.48,190.7631,1.8842,-0.6459,55.814026,37.500305,207.9019,0,2147
0.481249,-0.495615,9.850046,0.009073,-0.031972,1.219666,9.9,-52.5,23.94,190.7631,1.8842,-0.6459,55.814026,37.500305,207.9019,0,2157
0.481249,-0.495615,9.850046,0.009073,-0.031972,1.219666,9.9,-52.5,23.94,190.7631,1.8842,-0.6459,55.814026,37.500305,207.9019,0,2167
0.483644,-0.459701,9.893144,0.007851,-0.0167,1.220888,9.72,-52.44,24.36,190.7733,1.9321,-0.6332,55.814026,37.500305,207.9019,0,2177
0.165205,-0.474066,9.713573,-9E-05,-0.003872,1.226386,9.72,-52.44,24.36,190.7733,1.9321,-0.6332,55.814026,37.500305,207.9019,0,2186
0.055068,-0.555472,9.850046,-0.011085,-0.020976,1.22944,9.36,-52.68,24.06,190.7733,1.9321,-0.6332,55.814026,37.500305,207.9019,0,2197
-0.038308,-0.541106,9.941029,-0.01414,-0.020366,1.245934,9.36,-52.68,24.06,190.7733,1.9321,-0.6332,55.814026,37.500305,207.9019,0,2207
-0.038308,-0.541106,9.941029,-0.011085,-0.013035,1.255707,8.94,-52.8,24,189.4045,2.3069,-0.9276,55.814026,37.500305,207.9019,0,2216
-0.119714,-0.550683,9.73991,-0.004366,-0.039302,1.262427,8.94,-52.8,24,189.4045,2.3069,-0.9276,55.814026,37.500305,207.9019,0,2227
-0.196331,-0.646454,9.893144,0.001743,-0.028918,1.273423,9.54,-53.22,24.24,189.4045,2.3069,-0.9276,55.814026,37.500305,207.9019,0,2237
0.004789,-0.574626,9.823709,0.004186,-0.060072,1.275866,9.54,-53.22,24.24,189.4045,2.3069,-0.9276,55.814026,37.500305,207.9019,0,2246
0.395055,-0.52674,9.70639,0.004186,-0.068013,1.281364,9.72,-52.86,24.42,190.5743,2.7416,-0.7921,55.814026,37.500305,207.9019,0,2257
0.395055,-0.52674,9.70639,0.002354,-0.050298,1.28564,9.72,-52.86,24.42,190.5743,2.7416,-0.7921,55.814026,37.500305,207.9019,0,2267
0.624906,-0.519558,9.93624,-0.005588,-0.032583,1.285029,9.12,-52.8,24.6,190.5743,2.7416,-0.7921,55.814026,37.500305,207.9019,0,2277
0.567443,-0.617723,9.830893,-0.008642,-0.017922,1.288083,9.12,-52.8,24.6,190.5743,2.7416,-0.7921,55.814026,37.500305,207.9019,0,2288
0.272947,-0.624906,9.783007,-0.009864,-0.006927,1.291138,8.58,-52.92,23.82,189.5223,2.8537,-0.7671,55.814026,37.500305,207.9019,0,2296
0.047885,-0.632089,9.907509,-0.00742,-0.011814,1.294803,8.58,-52.92,23.82,189.5223,2.8537,-0.7671,55.814026,37.500305,207.9019,0,2307
0.047885,-0.632089,9.907509,-0.00742,-0.011814,1.294803,8.46,-52.38,23.58,189.5223,2.8537,-0.7671,55.814026,37.500305,207.9019,0,2316
-0.090982,-0.639271,9.845258,-0.003144,-0.022198,1.303355,8.46,-52.38,23.58,189.5223,2.8537,-0.7671,55.814026,37.500305,207.9019,0,2327
-0.117319,-0.648848,9.759064,0.001132,-0.032583,1.303355,9.18,-52.38,24.48,189.6497,3.1574,-0.9472,55.814026,37.500305,207.9019,0,2336
0.138868,-0.615329,9.823709,0.002965,-0.053352,1.308242,9.18,-52.38,24.48,189.6497,3.1574,-0.9472,55.814026,37.500305,207.9019,0,2347
0.138868,-0.615329,9.823709,0.002965,-0.052741,1.311907,9,-53.16,24.96,189.6497,3.1574,-0.9472,55.814026,37.500305,207.9019,0,2356
0.323227,-0.624906,9.838076,-9E-05,-0.048465,1.311907,9,-53.16,24.96,189.6497,3.1574,-0.9472,55.814026,37.500305,207.9019,0,2367
0.440547,-0.656031,9.859624,-0.001922,-0.052131,1.308853,8.52,-53.4,24.84,189.503,3.2456,-0.8695,55.814026,37.500305,207.9019,0,2377
0.433364,-0.67758,9.869201,-0.001312,-0.035637,1.30702,8.52,-53.4,24.84,189.503,3.2456,-0.8695,55.814026,37.500305,207.9019,0,2387
0.433364,-0.67758,9.869201,0.001743,-0.036248,1.303355,8.58,-52.56,24.66,189.503,3.2456,-0.8695,55.814026,37.500305,207.9019,0,2397
0.450124,-0.629694,9.809344,0.002354,-0.038081,1.298468,8.58,-52.56,24.66,189.503,3.2456,-0.8695,55.814026,37.500305,207.9019,0,2406
0.478855,-0.548289,9.852441,0.007241,-0.022198,1.289916,8.88,-51.54,24.3,189.6957,3.3948,-0.8933,55.814026,37.500305,207.9019,0,2417
0.373507,-0.581809,9.814133,0.008462,-0.015479,1.290527,8.88,-51.54,24.3,189.6957,3.3948,-0.8933,55.814026,37.500305,207.9019,0,2427
0.172388,-0.557866,9.79019,0.004186,-0.014868,1.284418,8.4,-51.6,24.66,189.6957,3.3948,-0.8933,55.814026,37.500305,207.9019,0,2437
0.172388,-0.557866,9.79019,-0.000701,-0.014257,1.289916,8.4,-51.6,24.66,189.6957,3.3948,-0.8933,55.814026,37.500305,207.9019,0,2447
0.01676,-0.586597,9.766247,-0.014751,-0.035026,1.295414,7.32,-52.5,25.02,187.365,3.4915,-1.1177,55.814026,37.500305,207.9019,0,2457
0.023943,-0.588992,9.80695,-0.014751,-0.035026,1.295414,7.32,-52.5,25.02,187.365,3.4915,-1.1177,55.814026,37.500305,207.9019,0,2467
0.081405,-0.651243,9.785401,-0.013529,-0.042357,1.299079,7.08,-52.62,24.9,187.365,3.4915,-1.1177,55.814026,37.500305,207.9019,0,2477
0.275342,-0.675185,9.909904,-0.006198,-0.035026,1.303966,7.08,-52.62,24.9,187.365,3.4915,-1.1177,55.814026,37.500305,207.9019,0,2488
0.275342,-0.675185,9.909904,-9E-05,-0.026474,1.308242,6.72,-52.32,24.6,187.3491,3.5318,-1.1559,55.814026,37.500305,207.9019,0,2497
0.215485,-0.775745,9.893144,-0.000701,-0.02342,1.314351,6.72,-52.32,24.6,187.3491,3.5318,-1.1559,55.814026,37.500305,207.9019,0,2507
0.074223,-0.766168,9.794978,0.001132,-0.021587,1.319238,6.18,-51.96,24.42,187.3491,3.5318,-1.1559,55.814026,37.500305,207.9019,0,2517
0.021548,-0.723071,9.893144,0.000521,-0.031361,1.321681,6.18,-51.96,24.42,187.3491,3.5318,-1.1559,55.814026,37.500305,207.9019,0,2527
0.088588,-0.687157,9.828498,0.004797,-0.03747,1.329011,6.18,-52.08,24.84,186.2671,3.6047,-1.084,55.814026,37.500305,207.9019,0,2537
0.088588,-0.687157,9.828498,0.008462,-0.039302,1.330233,6.18,-52.08,24.84,186.2671,3.6047,-1.084,55.814026,37.500305,207.9019,0,2547
0.201119,-0.675185,9.768641,0.00663,-0.038692,1.332066,6.48,-52.26,25.02,186.2671,3.6047,-1.084,55.814026,37.500305,207.9019,0,2558
0.287313,-0.653637,9.864412,0.003575,-0.03747,1.332676,6.48,-52.26,25.02,186.2671,3.6047,-1.084,55.814026,37.500305,207.9019,0,2567
0.320833,-0.636877,9.787795,0.001132,-0.034416,1.336342,6.9,-51.96,24.96,187.4718,3.7428,-0.9367,55.814026,37.500305,207.9019,0,2577
0.574626,-0.6273,10.034406,-0.003755,-0.038081,1.318016,6.9,-51.96,24.96,187.4718,3.7428,-0.9367,55.814026,37.500305,207.9019,0,2587
0.574626,-0.6273,10.034406,-0.004366,0.019951,1.315572,6.12,-52.02,24.84,187.4718,3.7428,-0.9367,55.814026,37.500305,207.9019,0,2597
-0.095771,-0.919401,9.766247,0.007241,-0.026474,1.322292,6.12,-52.02,24.84,187.4718,3.7428,-0.9367,55.814026,37.500305,207.9019,0,2607
0.33041,-0.56026,9.900327,0.017625,-0.084506,1.32107,5.58,-52.02,24.72,186.3457,3.8288,-0.9526,55.814026,37.500305,207.9019,0,2618
0.33041,-0.56026,9.900327,0.017625,-0.084506,1.32107,5.64,-51.78,24.72,186.3457,3.8288,-0.9526,55.814026,37.500305,207.9019,0,2626
0.172388,-0.548289,9.531608,0.018847,0.028504,1.319848,5.64,-51.78,24.72,186.3457,3.8288,-0.9526,55.814026,37.500305,207.9019,0,2639
0.172388,-0.548289,9.531608,0.018847,0.028504,1.319848,5.64,-51.66,24.72,186.3457,3.8288,-0.9526,55.814026,37.500305,207.9019,0,2647
0.196331,-0.555472,9.859624,-0.004977,-0.059461,1.324124,5.94,-51.66,24.54,186.3273,3.9541,-1.0056,55.814026,37.500305,207.9019,0,2657
0.196331,-0.555472,9.859624,-0.022692,0.016897,1.329622,5.94,-51.66,24.54,186.3273,3.9541,-1.0056,55.814026,37.500305,207.9019,0,2666
0.031126,-0.670397,9.646533,-0.019637,-0.052741,1.333287,5.88,-51.78,24.72,186.3273,3.9541,-1.0056,55.814026,37.500305,207.9019,0,2677
0.002394,-0.859545,10.017646,-0.015972,-0.055796,1.333287,5.88,-51.78,24.72,186.3273,3.9541,-1.0056,55.814026,37.500305,207.9019,0,2686
0.002394,-0.859545,10.017646,0.000521,-0.013035,1.338785,5.76,-51.12,24.72,186.506,3.9749,-0.9064,55.814026,37.500305,207.9019,0,2697
0.019154,-0.775745,9.653716,0.017625,-0.058239,1.333898,5.76,-51.12,24.72,186.506,3.9749,-0.9064,55.814026,37.500305,207.9019,0,2706
0.177176,-0.581809,9.943423,0.023734,-0.052131,1.330844,5.58,-50.46,24.66,186.506,3.9749,-0.9064,55.814026,37.500305,207.9019,0,2717
0.287313,-0.658426,9.931452,0.009684,-0.008759,1.33512,5.58,-50.46,24.66,186.506,3.9749,-0.9064,55.814026,37.500305,207.9019,0,2727
0.287313,-0.658426,9.931452,0.009684,-0.008759,1.33512,4.92,-50.52,24.78,185.4135,3.9969,-0.7881,55.814026,37.500305,207.9019,0,2736
0.253793,-0.737437,9.474146,-0.006809,-0.046633,1.329622,4.92,-50.52,24.78,185.4135,3.9969,-0.7881,55.814026,37.500305,207.9019,0,2747
0.292102,-0.691945,10.029617,-0.023914,-0.044189,1.32107,4.98,-50.4,25.44,185.4135,3.9969,-0.7881,55.814026,37.500305,207.9019,0,2757
0.184359,-0.665608,9.70639,-0.020248,-0.015479,1.31374,4.98,-50.4,25.44,185.4135,3.9969,-0.7881,55.814026,37.500305,207.9019,0,2767
0.184359,-0.665608,9.70639,-0.006198,-0.048465,1.303966,5.1,-49.44,25.74,185.6604,3.9746,-0.7354,55.814026,37.500305,207.9019,0,2776
0.227456,-0.608146,9.838076,0.009073,-0.047244,1.291749,5.1,-49.44,25.74,185.6604,3.9746,-0.7354,55.814026,37.500305,207.9019,0,2787
0.304073,-0.481249,9.814133,0.01396,-0.027696,1.283197,4.8,-49.56,25.62,185.6604,3.9746,-0.7354,55.814026,37.500305,207.9019,0,2797
0.407027,-0.488432,9.629773,0.007851,-0.046633,1.277088,4.8,-49.56,25.62,185.6604,3.9746,-0.7354,55.814026,37.500305,207.9019,0,2808
0.407027,-0.488432,9.629773,-0.020248,-0.038692,1.261205,4.74,-50.1,25.14,185.5205,3.9841,-0.7954,55.814026,37.500305,207.9019,0,2817
0.447729,-0.574626,9.687236,-0.038574,-0.017922,1.259373,4.74,-50.1,25.14,185.5205,3.9841,-0.7954,55.814026,37.500305,207.9019,0,2827
0.344776,-0.684763,9.778218,-0.044072,-0.028307,1.247155,5.16,-49.92,25.08,185.5205,3.9841,-0.7954,55.814026,37.500305,207.9019,0,2837
0.28013,-0.723071,9.883567,-0.036742,-0.024642,1.24349,5.16,-49.92,25.08,185.5205,3.9841,-0.7954,55.814026,37.500305,207.9019,0,2847
0.217879,-0.854756,10.144543,-0.019637,-0.027696,1.241658,4.8,-49.56,25.44,185.4279,3.8814,-0.9639,55.814026,37.500305,207.9019,0,2857
0.217879,-0.854756,10.144543,-0.004977,-0.011814,1.242269,4.8,-49.56,25.44,185.4279,3.8814,-0.9639,55.814026,37.500305,207.9019,0,2866
0.179571,-0.90743,9.859624,0.002354,-0.018533,1.248988,4.74,-49.26,24.78,185.4279,3.8814,-0.9639,55.814026,37.500305,207.9019,0,2877
0.01676,-0.917007,9.780613,0.007241,-0.006927,1.256929,4.74,-49.26,24.78,185.4279,3.8814,-0.9639,55.814026,37.500305,207.9019,0,2886
-0.155628,-0.818842,10.05356,0.00663,-0.0167,1.263649,5.16,-49.38,24.84,185.5303,3.9346,-0.9918,55.814026,37.500305,207.9019,0,2897
-0.301679,-0.797293,9.682447,0.009073,-0.029529,1.277699,5.16,-49.38,24.84,185.5303,3.9346,-0.9918,55.814026,37.500305,207.9019,0,2906
-0.301679,-0.797293,9.682447,0.009684,-0.030139,1.283807,4.8,-49.62,25.26,185.5303,3.9346,-0.9918,55.814026,37.500305,207.9019,0,2917
-0.289707,-0.739831,9.689631,0.00663,-0.054574,1.288694,4.8,-49.62,25.26,185.5303,3.9346,-0.9918,55.814026,37.500305,207.9019,0,2927
-0.088588,-0.641666,9.881172,0.004186,-0.055796,1.29969,4.62,-49.62,25.26,185.5018,3.9705,-0.8302,55.814026,37.500305,207.9019,0,2937
0.227456,-0.648848,9.658504,-9E-05,-0.048465,1.298468,4.62,-49.62,25.26,185.5018,3.9705,-0.8302,55.814026,37.500305,207.9019,0,2947
0.227456,-0.648848,9.658504,-0.006198,-0.047244,1.29969,3.9,-49.32,25.5,185.5018,3.9705,-0.8302,55.814026,37.500305,207.9019,0,2957
0.361536,-0.69434,9.881172,-0.015361,-0.036859,1.295414,3.9,-49.32,25.5,185.5018,3.9705,-0.8302,55.814026,37.500305,207.9019,0,2967
0.359141,-0.749408,9.852441,-0.008642,-0.03075,1.294803,3.42,-48.54,26.04,183.387,4.1125,-0.4801,55.814026,37.500305,207.9019,0,2977
0.237033,-0.72786,9.785401,-0.001922,-0.027696,1.290527,3.42,-48.54,26.04,183.387,4.1125,-0.4801,55.814026,37.500305,207.9019,0,2988
0.131685,-0.69434,9.866806,-0.001922,-0.027696,1.290527,3.6,-48,26.28,183.387,4.1125,-0.4801,55.814026,37.500305,207.9019,0,2997
0.131685,-0.69434,9.866806,0.00663,-0.017311,1.294192,3.6,-48,26.28,183.387,4.1125,-0.4801,55.814026,37.500305,207.9019,0,3007
0.002394,-0.672791,9.785401,0.003575,-0.022198,1.299079,4.2,-47.94,25.98,184.716,4.1698,-0.4554,55.814026,37.500305,207.9019,0,3016
-0.119714,-0.64406,9.703996,0.001132,-0.027696,1.308853,4.2,-47.94,25.98,184.716,4.1698,-0.4554,55.814026,37.500305,207.9019,0,3027
-0.155628,-0.708705,9.715967,-0.011696,-0.028918,1.318627,5.22,-48.06,25.2,184.716,4.1698,-0.4554,55.814026,37.500305,207.9019,0,3037
-0.155628,-0.708705,9.715967,-0.011696,-0.028918,1.318627,5.22,-48.06,25.2,184.716,4.1698,-0.4554,55.814026,37.500305,207.9019,0,3047
-0.141262,-0.747014,9.809344,-0.019637,-0.038692,1.325346,4.86,-48.24,25.32,185.9656,4.1637,-0.4291,55.814026,37.500305,207.9019,0,3057
-0.090982,-0.928979,9.878778,-0.02147,-0.038081,1.348559,4.86,-48.24,25.32,185.9656,4.1637,-0.4291,55.814026,37.500305,207.9019,0,3067
-0.079011,-0.864333,9.921875,-0.013529,-0.039302,1.361998,3.54,-47.94,26.22,185.9656,4.1637,-0.4291,55.814026,37.500305,207.9019,0,3076
-0.079011,-0.864333,9.921875,0.003575,-0.041746,1.372994,3.54,-47.94,26.22,185.9656,4.1637,-0.4291,55.814026,37.500305,207.9019,0,3087
-0.079011,-0.816448,9.816526,0.01396,-0.034416,1.391931,4.02,-47.22,26.58,184.9798,4.2387,-0.1907,55.814026,37.500305,207.9019,0,3097
-0.071828,-0.787716,9.792584,0.010906,-0.03747,1.401093,4.02,-47.22,26.58,184.9798,4.2387,-0.1907,55.814026,37.500305,207.9019,0,3106
-0.040703,-0.811659,9.77343,-0.006809,-0.03747,1.417587,3.78,-47.4,26.58,184.9798,4.2387,-0.1907,55.814026,37.500305,207.9019,0,3117
-0.062251,-0.902642,9.794978,-0.017194,-0.032583,1.431026,3.78,-47.4,26.58,184.9798,4.2387,-0.1907,55.81403,37.50028,209.0251,0,3126
-0.062251,-0.902642,9.794978,-0.015361,-0.036248,1.443243,3.54,-47.34,26.1,185.1156,4.3345,0.0432,55.81403,37.50028,209.0251,0,3137
-0.141262,-0.912219,9.888355,-0.015361,-0.036248,1.443243,3.54,-47.34,26.1,185.1156,4.3345,0.0432,55.81403,37.50028,209.0251,0,3147
-0.196331,-0.804476,9.802161,-0.001922,-0.038081,1.462791,3.36,-47.04,25.98,185.1156,4.3345,0.0432,55.81403,37.50028,209.0251,0,3156
-0.193936,-0.696734,9.763853,0.015793,-0.03747,1.472565,3.36,-47.04,25.98,185.1156,4.3345,0.0432,55.81403,37.50028,209.0251,0,3167
-0.143656,-0.703917,9.720756,0.020069,-0.042357,1.489669,3.9,-46.5,26.1,185.3277,4.3504,0.2062,55.81403,37.50028,209.0251,0,3177
-0.117319,-0.782928,9.660899,0.004186,-0.039913,1.507384,3.9,-46.5,26.1,185.3277,4.3504,0.2062,55.81403,37.50028,209.0251,0,3187
-0.117319,-0.782928,9.660899,-0.023303,-0.041746,1.522656,3.48,-46.32,26.04,185.3277,4.3504,0.2062,55.81403,37.50028,209.0251,0,3197
-0.098165,-0.931373,9.742304,-0.039185,-0.0448,1.540981,3.48,-46.32,26.04,185.3277,4.3504,0.2062,55.81403,37.50028,209.0251,0,3207
-0.124502,-1.010384,9.900327,-0.039796,-0.040524,1.559918,3.36,-46.08,25.74,184.1276,4.3069,0.3735,55.81403,37.50028,209.0251,0,3216
-0.146051,-1.065452,9.909904,-0.019637,-0.036248,1.57519,3.36,-46.08,25.74,184.1276,4.3069,0.3735,55.81403,37.50028,209.0251,0,3227
-0.146051,-1.065452,9.909904,-0.019637,-0.036248,1.57519,3.9,-45.54,25.8,184.1276,4.3069,0.3735,55.81403,37.50028,209.0251,0,3236
-0.172388,-1.036721,9.914692,0.006019,-0.039302,1.591683,3.9,-45.54,25.8,184.1276,4.3069,0.3735,55.81403,37.50028,209.0251,0,3247
-0.28013,-0.95771,9.850046,0.028621,-0.032583,1.61734,3.96,-45.36,25.86,185.6535,4.352,0.5444,55.81403,37.50028,209.0251,0,3257
-0.28013,-0.95771,9.850046,0.029843,-0.039913,1.633833,3.96,-45.36,25.86,185.6535,4.352,0.5444,55.81403,37.50028,209.0251,0,3266
-0.268159,-0.85715,9.689631,0.009684,-0.052131,1.653381,4.14,-45.24,25.92,185.6535,4.352,0.5444,55.81403,37.50028,209.0251,0,3277
-0.22985,-0.84039,9.668081,-0.012307,-0.049687,1.670485,4.14,-45.24,25.92,185.6535,4.352,0.5444,55.81403,37.50028,209.0251,0,3287
-0.146051,-0.861939,9.720756,-0.02819,-0.053352,1.680259,4.26,-45.18,26.46,185.7645,4.2758,0.7387,55.81403,37.50028,209.0251,0,3297
-0.06704,-0.926584,9.835681,-0.025746,-0.05885,1.690643,4.26,-45.18,26.46,185.7645,4.2758,0.7387,55.81403,37.50028,209.0251,0,3307
-0.06704,-0.926584,9.835681,-0.01414,-0.052131,1.705915,4.5,-45,26.58,185.7645,4.2758,0.7387,55.81403,37.50028,209.0251,0,3317
-0.01676,-0.969681,9.828498,-0.003144,-0.048465,1.712635,4.5,-45,26.58,185.7645,4.2758,0.7387,55.81403,37.50028,209.0251,0,3327
0.014366,-0.996018,9.828498,0.005408,-0.043579,1.72363,4.68,-44.76,25.8,187.177,4.2497,0.9028,55.81403,37.50028,209.0251,0,3337
-0.057463,-1.031932,9.845258,0.005408,-0.043579,1.72363,4.68,-44.76,25.8,187.177,4.2497,0.9028,55.81403,37.50028,209.0251,0,3347
-0.129291,-1.070241,9.780613,-0.004977,-0.042968,1.748065,3.96,-44.7,26.34,187.177,4.2497,0.9028,55.81403,37.50028,209.0251,0,3357
-0.129291,-1.070241,9.780613,-0.004977,-0.042968,1.748065,3.96,-44.7,26.34,187.177,4.2497,0.9028,55.81403,37.50028,209.0251,0,3367
-0.158022,-1.046298,9.787795,-0.00742,-0.047244,1.759671,3.48,-44.46,27.24,184.7894,4.1983,1.0866,55.81403,37.50028,209.0251,0,3377
-0.177176,-1.012778,9.830893,-0.001922,-0.047855,1.768223,3.72,-43.98,27.36,184.7894,4.1983,1.0866,55.81403,37.50028,209.0251,0,3387
-0.177176,-1.012778,9.830893,0.015793,-0.052131,1.781052,3.72,-43.98,27.36,184.7894,4.1983,1.0866,55.81403,37.50028,209.0251,0,3397
-0.10056,-0.931373,9.787795,0.010295,-0.052131,1.784717,4.08,-43.98,26.46,184.7894,4.1983,1.0866,55.81403,37.50028,209.0251,0,3407
-0.035914,-0.928979,9.742304,0.010295,-0.052131,1.784717,4.38,-43.62,26.28,186.2621,4.0797,1.3552,55.81403,37.50028,209.0251,0,3417
0,-0.931373,9.763853,0.004797,-0.053963,1.789604,4.38,-43.62,26.28,186.2621,4.0797,1.3552,55.81403,37.50028,209.0251,0,3427
0.074223,-1.039115,9.761458,-0.008031,-0.053963,1.792047,4.68,-43.56,26.76,186.2621,4.0797,1.3552,55.81403,37.50028,209.0251,0,3437
0.086194,-1.060664,9.842864,-0.013529,-0.049687,1.793269,4.68,-43.56,26.76,186.2621,4.0797,1.3552,55.81403,37.50028,209.0251,0,3447
0.086194,-1.060664,9.842864,-0.011696,-0.047855,1.791436,4.32,-43.38,26.88,186.5582,3.9928,1.5232,55.81403,37.50028,209.0251,0,3457
0.06704,-1.089395,9.881172,-9E-05,-0.050298,1.789604,4.32,-43.38,26.88,186.5582,3.9928,1.5232,55.81403,37.50028,209.0251,0,3466
0.081405,-1.017567,9.818921,0.015793,-0.047855,1.782884,4.08,-42.84,26.82,186.5582,3.9928,1.5232,55.81403,37.50028,209.0251,0,3477
0.081405,-1.017567,9.818921,0.024956,-0.050909,1.780441,4.08,-42.84,26.82,186.5582,3.9928,1.5232,55.81403,37.50028,209.0251,0,3487
0.148445,-0.902642,9.797373,0.019458,-0.047244,1.77311,4.8,-41.94,26.52,188.1766,3.947,1.6064,55.81403,37.50028,209.0251,0,3497
0.191542,-0.828419,9.75667,0.006019,-0.047855,1.76578,4.8,-41.94,26.52,188.1766,3.947,1.6064,55.81403,37.50028,209.0251,0,3507
0.225062,-0.845179,9.660899,-0.009864,-0.047855,1.756617,4.8,-42.3,26.1,188.1766,3.947,1.6064,55.81403,37.50028,209.0251,0,3517
0.222668,-0.897853,9.766247,-0.017805,-0.039913,1.745011,4.8,-42.3,26.1,188.1766,3.947,1.6064,55.81403,37.50028,209.0251,0,3527
0.222668,-0.897853,9.766247,-0.016583,-0.0448,1.732182,4.38,-43.2,26.16,186.5279,3.9658,1.5545,55.81403,37.50028,209.0251,0,3537
0.210696,-0.931373,9.850046,-0.006809,-0.046633,1.723019,4.38,-43.2,26.16,186.5279,3.9658,1.5545,55.81403,37.50028,209.0251,0,3547
0.174782,-0.996018,9.804555,0.006019,-0.044189,1.712024,4.68,-42.6,26.4,186.5279,3.9658,1.5545,55.81403,37.50028,209.0251,0,3556
0.198725,-0.917007,9.775824,0.015182,-0.0448,1.704083,4.68,-42.6,26.4,186.5279,3.9658,1.5545,55.81403,37.50028,209.0251,0,3567
0.198725,-0.917007,9.775824,0.015182,-0.0448,1.704083,5.16,-41.82,26.52,187.7756,4.4021,0.9267,55.81403,37.50028,209.0251,0,3577
0.225062,-0.799688,9.79019,0.013349,-0.044189,1.693087,5.16,-41.82,26.52,187.7756,4.4021,0.9267,55.81403,37.50028,209.0251,0,3587
0.253793,-0.866727,9.715967,-0.001922,-0.046633,1.677205,5.82,-42.36,26.22,187.7756,4.4021,0.9267,55.81403,37.50028,209.0251,0,3597
0.174782,-0.921796,9.747093,-0.015972,-0.03747,1.666209,5.82,-42.36,26.22,187.7756,4.4021,0.9267,55.81403,37.50028,209.0251,0,3607
0.174782,-0.921796,9.747093,-0.022692,-0.045411,1.657046,5.52,-42.24,26.04,188.9722,4.6042,0.6205,55.81403,37.50028,209.0251,0,3616
0.162811,-0.967287,9.816526,-0.018416,-0.054574,1.649105,5.52,-42.24,26.04,188.9722,4.6042,0.6205,55.81403,37.50028,209.0251,0,3627
0.184359,-0.943344,9.876384,-0.004366,-0.045411,1.635666,5.58,-41.4,26.76,188.9722,4.6042,0.6205,55.81403,37.50028,209.0251,0,3636
0.172388,-0.926584,9.818921,0.00663,-0.042357,1.630779,5.64,-41.22,26.46,188.9722,4.6042,0.6205,55.81403,37.50028,209.0251,0,3647
0.244216,-0.854756,9.771035,0.013349,-0.055185,1.616729,5.64,-41.22,26.46,188.9722,4.6042,0.6205,55.81403,37.50028,209.0251,0,3656
0.244216,-0.854756,9.771035,0.00663,-0.0448,1.608788,5.82,-41.58,26.88,189.1632,4.5817,0.8641,55.81403,37.50028,209.0251,0,3667
0.234639,-0.780534,9.684841,-0.004977,-0.03747,1.599014,5.58,-41.76,26.28,189.1632,4.5817,0.8641,55.81403,37.50028,209.0251,0,3678
0.234639,-0.780534,9.684841,-0.004977,-0.03747,1.599014,5.58,-41.76,26.28,189.1632,4.5817,0.8641,55.81403,37.50028,209.0251,0,3687
0.169994,-0.859545,9.775824,-0.024524,-0.050298,1.583742,6.36,-41.58,26.88,189.1632,4.5817,0.8641,55.81403,37.50028,209.0251,0,3697
0.117319,-0.895459,9.881172,-0.022692,-0.038692,1.574579,6.36,-41.58,26.88,189.1632,4.5817,0.8641,55.81403,37.50028,209.0251,0,3708
0.014366,-0.876305,9.787795,-0.015361,-0.042968,1.569081,6.3,-40.98,26.88,189.536,4.5032,1.0882,55.81403,37.50028,209.0251,0,3717
0.014366,-0.876305,9.787795,0.003575,-0.047855,1.56786,6.3,-40.98,26.88,189.536,4.5032,1.0882,55.81403,37.50028,209.0251,0,3726
-0.009577,-0.794899,9.871595,0.012128,-0.035026,1.561751,5.88,-40.62,26.1,189.536,4.5032,1.0882,55.81403,37.50028,209.0251,0,3737
-0.138868,-0.744619,9.737515,0.007851,-0.038692,1.564194,5.88,-40.62,26.1,189.536,4.5032,1.0882,55.81403,37.50028,209.0251,0,3747
-0.177176,-0.72786,9.732727,-0.003755,-0.047855,1.564194,6.36,-40.8,26.82,189.6442,4.4619,1.2571,55.81403,37.50028,209.0251,0,3757
-0.177176,-0.72786,9.732727,-0.003755,-0.047855,1.564194,6.36,-40.8,26.82,189.6442,4.4619,1.2571,55.81403,37.50028,209.0251,0,3767
-0.256187,-0.775745,9.77343,-0.018416,-0.039302,1.568471,6.6,-41.1,26.82,189.6442,4.4619,1.2571,55.81403,37.50028,209.0251,0,3776
-0.301679,-0.876305,9.749487,-0.02147,-0.052741,1.570303,6.6,-41.1,26.82,189.6442,4.4619,1.2571,55.81403,37.50028,209.0251,0,3787
-0.26337,-0.861939,9.957788,-0.012918,-0.057628,1.570914,6.66,-40.74,26.16,191.1155,4.3736,1.4266,55.81403,37.50028,209.0251,0,3796
-0.196331,-0.749408,9.792584,0.000521,-0.052741,1.573357,6.66,-40.74,26.16,191.1155,4.3736,1.4266,55.81403,37.50028,209.0251,0,3807
-0.196331,-0.749408,9.792584,0.016404,-0.050298,1.570914,7.26,-40.8,26.34,191.1155,4.3736,1.4266,55.81403,37.50028,209.0251,0,3816
-0.117319,-0.608146,9.80695,0.024345,-0.05885,1.569692,7.5,-40.68,26.76,191.1155,4.3736,1.4266,55.81403,37.50028,209.0251,0,3827
-0.064645,-0.481249,9.761458,0.020069,-0.042357,1.564805,7.5,-40.68,26.76,191.1155,4.3736,1.4266,55.81403,37.50028,209.0251,0,3837
-0.136474,-0.507586,9.63935,0.004797,-0.035637,1.562973,7.14,-39.9,26.82,191.4829,4.3545,1.4664,55.81403,37.50028,209.0251,0,3846
-0.208302,-0.639271,9.778218,-0.017194,-0.041135,1.559918,7.14,-39.9,26.82,191.4829,4.3545,1.4664,55.81403,37.50028,209.0251,0,3857
-0.208302,-0.639271,9.778218,-0.02819,-0.035637,1.560529,7.08,-39.3,26.82,191.4829,4.3545,1.4664,55.81403,37.50028,209.0251,0,3867
-0.395055,-0.768562,9.835681,-0.025746,-0.031972,1.56114,7.26,-39.42,27.18,191.4829,4.3545,1.4664,55.81403,37.50028,209.0251,0,3877
-0.390267,-0.787716,9.866806,-0.006198,-0.053352,1.570914,7.26,-39.42,27.18,191.4829,4.3545,1.4664,55.81403,37.50028,209.0251,0,3887
-0.390267,-0.787716,9.866806,0.015793,-0.048465,1.57519,7.92,-39.72,26.7,192.8157,4.1651,1.3468,55.81403,37.50028,209.0251,0,3896
-0.31365,-0.749408,9.816526,0.022512,-0.050909,1.57519,7.92,-39.72,26.7,192.8157,4.1651,1.3468,55.81403,37.50028,209.0251,0,3907
-0.155628,-0.687157,9.830893,0.02068,-0.057628,1.572136,8.22,-40.26,27,192.8157,4.1651,1.3468,55.81403,37.50028,209.0251,0,3917
-0.05028,-0.670397,9.732727,0.005408,-0.040524,1.578244,8.22,-40.26,27,192.8157,4.1651,1.3468,55.81403,37.50028,209.0251,0,3927
-0.05028,-0.670397,9.732727,-0.013529,-0.044189,1.575801,8.34,-40.02,27,192.8839,4.079,1.4709,55.81403,37.50028,209.0251,0,3937
-0.05028,-0.747014,9.73991,-0.019027,-0.049687,1.573968,8.34,-40.02,27,192.8839,4.079,1.4709,55.81403,37.50028,209.0251,0,3946
-0.059857,-0.785322,9.885961,-0.013529,-0.036859,1.572136,8.46,-39.42,27.06,192.8839,4.079,1.4709,55.81403,37.50028,209.0251,0,3957
-0.052674,-0.739831,9.852441,0.002354,-0.041135,1.570914,8.46,-39.42,27.06,192.8839,4.079,1.4709,55.81403,37.50028,209.0251,0,3967
-0.052674,-0.739831,9.852441,0.015793,-0.039913,1.573968,8.34,-39.66,26.22,192.821,4.0323,1.4782,55.81403,37.50028,209.0251,0,3977
-0.088588,-0.691945,9.854836,0.019458,-0.028918,1.574579,8.34,-39.66,26.22,192.821,4.0323,1.4782,55.81403,37.50028,209.0251,0,3987
-0.143656,-0.69434,9.816526,0.007851,-0.031972,1.580077,8.34,-40.32,26.16,192.821,4.0323,1.4782,55.81403,37.50028,209.0251,0,3996
-0.232245,-0.749408,9.713573,-0.006198,-0.038692,1.584353,8.34,-40.32,26.16,192.821,4.0323,1.4782,55.81403,37.50028,209.0251,0,4007
-0.323227,-0.780534,9.778218,-0.006198,-0.038692,1.584353,8.52,-40.5,27.18,194.228,4.0406,1.3608,55.81403,37.50028,209.0251,0,4017
-0.323227,-0.797293,9.871595,-0.02147,-0.043579,1.603901,8.52,-40.5,27.18,194.228,4.0406,1.3608,55.81403,37.50028,209.0251,0,4027
-0.409421,-0.797293,9.871595,-0.02147,-0.043579,1.603901,9.12,-40.08,27.12,194.228,4.0406,1.3608,55.81403,37.50028,209.0251,0,4037
-0.404632,-0.806871,9.857229,-0.004366,-0.053963,1.612453,9.12,-40.08,27.12,194.228,4.0406,1.3608,55.81403,37.50028,209.0251,0,4047
-0.339987,-0.804476,9.852441,0.010906,-0.053963,1.620394,9.36,-39.72,26.22,194.1718,4.0686,1.3572,55.81403,37.50028,209.0251,0,4057
-0.237033,-0.744619,9.768641,0.016404,-0.055796,1.62467,9.36,-39.72,26.22,194.1718,4.0686,1.3572,55.81403,37.50028,209.0251,0,4067
-0.237033,-0.744619,9.768641,0.013349,-0.063737,1.622837,9.06,-39.9,25.74,194.1718,4.0686,1.3572,55.81403,37.50028,209.0251,0,4077
-0.047885,-0.668003,9.735122,-9E-05,-0.053963,1.627724,9.06,-39.9,25.74,194.1718,4.0686,1.3572,55.81403,37.50028,209.0251,0,4087
0.055068,-0.6273,9.785401,-0.012307,-0.046633,1.629557,9.3,-39.72,26.46,194.2973,4.1233,1.5404,55.81403,37.50028,209.0251,0,4097
0.05028,-0.632089,9.794978,-0.019637,-0.043579,1.629557,9.3,-39.72,26.46,194.2973,4.1233,1.5404,55.81403,37.50028,209.0251,0,4106
-0.047885,-0.7111,9.866806,-0.01414,-0.033194,1.628335,9.42,-39.78,27.3,194.2973,4.1233,1.5404,55.81403,37.50028,209.0251,0,4117
-0.047885,-0.7111,9.866806,-0.01414,-0.033194,1.628335,9.42,-39.78,27.3,194.2973,4.1233,1.5404,55.814026,37.50026,209.6674,0,4127
-0.244216,-0.778139,9.909904,-0.008031,-0.034416,1.632,9.24,-40.32,26.82,194.3394,4.0981,1.5141,55.814026,37.50026,209.6674,0,4137
-0.375901,-0.87391,9.799767,0.007241,-0.03075,1.643607,9.24,-40.32,26.82,194.3394,4.0981,1.5141,55.814026,37.50026,209.6674,0,4147
-0.411815,-0.84039,9.816526,0.00663,-0.046633,1.649715,9.12,-39.84,26.94,194.3394,4.0981,1.5141,55.814026,37.50026,209.6674,0,4157
-0.344776,-0.768562,9.771035,0.008462,-0.050298,1.655213,9.12,-39.84,26.94,194.3394,4.0981,1.5141,55.814026,37.50026,209.6674,0,4166
-0.344776,-0.768562,9.771035,0.002965,-0.055796,1.664987,9.84,-39.24,27.42,196.0835,4.0729,1.4255,55.814026,37.50026,209.6674,0,4176
-0.24661,-0.715888,9.711179,-0.002533,-0.06557,1.663155,9.84,-39.24,27.42,196.0835,4.0729,1.4255,55.814026,37.50026,209.6674,0,4186
-0.06704,-0.706311,9.830893,-0.004366,-0.05885,1.665598,9.66,-39.3,27.06,196.0835,4.0729,1.4255,55.814026,37.50026,209.6674,0,4199
0.026337,-0.668003,9.821315,-0.006198,-0.057018,1.662544,9.66,-39.3,27.06,196.0835,4.0729,1.4255,55.814026,37.50026,209.6674,0,4207
0.026337,-0.668003,9.821315,-0.003755,-0.052131,1.661933,8.88,-39.42,27.6,194.7995,4.1203,1.5427,55.814026,37.50026,209.6674,0,4217
0.03352,-0.67758,9.826104,0.001132,-0.042357,1.652159,8.88,-39.42,27.6,194.7995,4.1203,1.5427,55.814026,37.50026,209.6674,0,4227
-0.007183,-0.668003,9.869201,0.003575,-0.0448,1.64605,10.2,-39.78,27.6,194.7995,4.1203,1.5427,55.814026,37.50026,209.6674,0,4237
-0.047885,-0.708705,9.80695,0.002354,-0.042968,1.642385,10.2,-39.78,27.6,194.7995,4.1203,1.5427,55.814026,37.50026,209.6674,0,4247
-0.074223,-0.706311,9.780613,-0.000701,-0.039913,1.639331,11.4,-40.14,27.06,197.0973,4.0979,1.4612,55.814026,37.50026,209.6674,0,4257
-0.074223,-0.706311,9.780613,-0.001922,-0.043579,1.632,11.4,-40.14,27.06,197.0973,4.0979,1.4612,55.814026,37.50026,209.6674,0,4266
-0.081405,-0.69434,9.847652,-0.000701,-0.042968,1.630779,11.28,-39.9,27.24,197.0973,4.0979,1.4612,55.814026,37.50026,209.6674,0,4277
-0.10056,-0.682368,9.80695,-0.000701,-0.042968,1.630779,11.28,-39.9,27.24,197.0973,4.0979,1.4612,55.814026,37.50026,209.6674,0,4286
-0.090982,-0.670397,9.816526,0.005408,-0.039913,1.625892,11.22,-40.02,27.36,196.9653,4.0363,1.2751,55.814026,37.50026,209.6674,0,4297
-0.090982,-0.670397,9.816526,0.005408,-0.045411,1.623448,11.22,-40.02,27.36,196.9653,4.0363,1.2751,55.814026,37.50026,209.6674,0,4306
-0.102954,-0.66082,9.845258,0.005408,-0.047244,1.61734,10.8,-40.5,27.84,196.9653,4.0363,1.2751,55.814026,37.50026,209.6674,0,4316
-0.088588,-0.639271,9.775824,0.003575,-0.046022,1.614285,10.8,-40.5,27.84,196.9653,4.0363,1.2751,55.814026,37.50026,209.6674,0,4327
-0.035914,-0.624906,9.80695,-0.002533,-0.047855,1.608788,10.98,-40.2,27.84,196.9202,3.9806,1.1348,55.814026,37.50026,209.6674,0,4337
-0.014366,-0.624906,9.830893,-0.001312,-0.048465,1.605122,10.98,-40.2,27.84,196.9202,3.9806,1.1348,55.814026,37.50026,209.6674,0,4347
-0.014366,-0.624906,9.830893,-0.000701,-0.042357,1.594738,11.94,-40.02,26.94,196.9202,3.9806,1.1348,55.814026,37.50026,209.6674,0,4356
-0.014366,-0.612934,9.826104,-9E-05,-0.044189,1.591683,11.94,-40.02,26.94,196.9202,3.9806,1.1348,55.814026,37.50026,209.6674,0,4367
0.007183,-0.603357,9.833286,0.002354,-0.039302,1.579466,11.94,-40.02,26.76,198.1454,3.9033,1.0253,55.814026,37.50026,209.6674,0,4377
-0.038308,-0.600963,9.828498,0.002354,-0.039302,1.575801,11.94,-40.02,26.76,198.1454,3.9033,1.0253,55.814026,37.50026,209.6674,0,4387
-0.038308,-0.600963,9.828498,0.000521,-0.042357,1.571525,11.46,-40.44,27.48,198.1454,3.9033,1.0253,55.814026,37.50026,209.6674,0,4397
-0.064645,-0.584203,9.80695,-9E-05,-0.040524,1.557475,11.46,-40.44,27.48,198.1454,3.9033,1.0253,55.814026,37.50026,209.6674,0,4407
-0.062251,-0.574626,9.830893,0.000521,-0.045411,1.549534,10.5,-40.8,27.66,196.3085,3.7973,0.8833,55.814026,37.50026,209.6674,0,4416
0.011971,-0.555472,9.823709,-0.000701,-0.044189,1.543425,10.5,-40.8,27.66,196.3085,3.7973,0.8833,55.814026,37.50026,209.6674,0,4427
0.023943,-0.541106,9.840469,-0.000701,-0.044189,1.543425,11.04,-40.8,27.12,196.3085,3.7973,0.8833,55.814026,37.50026,209.6674,0,4437
0.023943,-0.541106,9.840469,-0.000701,-0.041135,1.529986,11.04,-40.8,27.12,196.3085,3.7973,0.8833,55.814026,37.50026,209.6674,0,4447
0.01676,-0.507586,9.799767,-0.003144,-0.040524,1.522045,12.18,-40.8,27.36,197.5092,3.6882,0.7729,55.814026,37.50026,209.6674,0,4456
0.004789,-0.509981,9.802161,-0.000701,-0.038081,1.516547,12.18,-40.8,27.36,197.5092,3.6882,0.7729,55.814026,37.50026,209.6674,0,4467
-0.021548,-0.521952,9.871595,-0.002533,-0.036248,1.506162,11.88,-40.62,27.36,197.5092,3.6882,0.7729,55.814026,37.50026,209.6674,0,4476
-0.021548,-0.521952,9.871595,-0.005588,-0.036859,1.502497,11.88,-40.62,27.36,197.5092,3.6882,0.7729,55.814026,37.50026,209.6674,0,4486
-0.059857,-0.524346,9.80695,-0.008642,-0.034416,1.492723,11.88,-40.74,27.36,197.6115,3.6128,0.9654,55.814026,37.50026,209.6674,0,4497
-0.0838,-0.56026,9.818921,-0.004977,-0.035026,1.492723,11.88,-40.74,27.36,197.6115,3.6128,0.9654,55.814026,37.50026,209.6674,0,4507
-0.129291,-0.588992,9.895537,-0.004977,-0.036248,1.489058,12.18,-40.44,27.24,197.6115,3.6128,0.9654,55.814026,37.50026,209.6674,0,4517
-0.105348,-0.591386,9.823709,-0.002533,-0.038081,1.482949,12.54,-40.44,27.06,197.6115,3.6128,0.9654,55.814026,37.50026,209.6674,0,4527
-0.105348,-0.591386,9.823709,-0.002533,-0.038081,1.482949,12.54,-40.44,27.06,197.6115,3.6128,0.9654,55.814026,37.50026,209.6674,0,4538
-0.093377,-0.56026,9.864412,0.001132,-0.040524,1.478673,12.66,-40.98,26.94,198.9773,3.5742,1.0622,55.814026,37.50026,209.6674,0,4547
-0.038308,-0.512375,9.852441,-9E-05,-0.038692,1.478673,12.66,-40.98,26.94,198.9773,3.5742,1.0622,55.814026,37.50026,209.6674,0,4557
-0.0838,-0.466884,9.802161,-0.000701,-0.033805,1.481117,12.84,-41.4,26.46,198.9773,3.5742,1.0622,55.814026,37.50026,209.6674,0,4567
-0.110137,-0.442941,9.809344,-0.001312,-0.03075,1.484782,12.84,-41.4,26.46,198.9773,3.5742,1.0622,55.814026,37.50026,209.6674,0,4577
-0.110137,-0.442941,9.809344,-0.004366,-0.030139,1.484171,12.72,-40.86,26.94,199.0336,3.5069,1.1812,55.814026,37.50026,209.6674,0,4587
-0.21309,-0.507586,9.826104,-0.009253,-0.031361,1.486615,12.72,-40.86,26.94,199.0336,3.5069,1.1812,55.814026,37.50026,209.6674,0,4596
-0.316044,-0.608146,9.873989,-0.011085,-0.033194,1.491502,12.6,-41.22,27.6,199.0336,3.5069,1.1812,55.814026,37.50026,209.6674,0,4607
-0.282524,-0.653637,9.893144,-0.008031,-0.042968,1.498221,12.54,-41.58,27.48,199.0336,3.5069,1.1812,55.814026,37.50026,209.6674,0,4617
-0.282524,-0.653637,9.893144,0.000521,-0.046022,1.50433,12.54,-41.58,27.48,199.0336,3.5069,1.1812,55.814026,37.50026,209.6674,0,4627
-0.215485,-0.632089,9.864412,0.000521,-0.046022,1.50433,13.26,-41.82,27.24,198.5349,3.2874,1.161,55.814026,37.50026,209.6674,0,4636
-0.102954,-0.567443,9.850046,0.009684,-0.046022,1.510438,13.26,-41.82,27.24,198.5349,3.2874,1.161,55.814026,37.50026,209.6674,0,4647
-0.062251,-0.486038,9.823709,0.009684,-0.039302,1.512882,13.08,-41.76,26.7,198.5349,3.2874,1.161,55.814026,37.50026,209.6674,0,4656
-0.062251,-0.486038,9.823709,0.004186,-0.038081,1.517158,13.08,-41.76,26.7,198.5349,3.2874,1.161,55.814026,37.50026,209.6674,0,4667
-0.112531,-0.445335,9.768641,-0.006809,-0.031972,1.526321,12.96,-41.82,26.46,198.4761,3.2187,1.1711,55.814026,37.50026,209.6674,0,4677
-0.196331,-0.454912,9.828498,-0.010475,-0.035026,1.534873,12.96,-41.82,26.46,198.4761,3.2187,1.1711,55.814026,37.50026,209.6674,0,4687
-0.22985,-0.541106,9.838076,-0.01414,-0.039913,1.53976,13.14,-41.52,26.58,198.4761,3.2187,1.1711,55.814026,37.50026,209.6674,0,4697
-0.201119,-0.670397,9.857229,-0.00742,-0.041746,1.54709,13.14,-41.52,26.58,198.4761,3.2187,1.1711,55.814026,37.50026,209.6674,0,4708
-0.201119,-0.670397,9.857229,-0.001922,-0.040524,1.554421,13.32,-41.34,26.64,198.9322,3.136,1.1526,55.814026,37.50026,209.6674,0,4716
-0.160416,-0.689551,9.941029,0.007241,-0.035637,1.562362,13.32,-41.34,26.64,198.9322,3.136,1.1526,55.814026,37.50026,209.6674,0,4727
-0.220273,-0.584203,9.862018,0.017625,-0.03075,1.567249,13.44,-41.52,26.94,198.9322,3.136,1.1526,55.814026,37.50026,209.6674,0,4737
-0.265764,-0.488432,9.787795,0.017014,-0.039302,1.577633,13.44,-41.52,26.94,198.9322,3.136,1.1526,55.814026,37.50026,209.6674,0,4747
-0.222668,-0.447729,9.766247,0.009684,-0.041746,1.584964,14.04,-41.88,27.18,199.7658,3.1083,1.1735,55.814026,37.50026,209.6674,0,4757
-0.222668,-0.447729,9.766247,0.009684,-0.041746,1.584964,14.04,-41.88,27.18,199.7658,3.1083,1.1735,55.814026,37.50026,209.6674,0,4767
-0.131685,-0.440547,9.749487,-0.008031,-0.042968,1.595959,14.58,-42.72,27.3,199.7658,3.1083,1.1735,55.814026,37.50026,209.6674,0,4777
-0.131685,-0.524346,9.80695,-0.013529,-0.044189,1.598403,14.58,-42.72,27.3,199.7658,3.1083,1.1735,55.814026,37.50026,209.6674,0,4787
-0.131685,-0.524346,9.80695,-0.013529,-0.044189,1.598403,14.58,-42.72,27.3,199.7658,3.1083,1.1735,55.814026,37.50026,209.6674,0,4796
-0.174782,-0.56026,9.866806,-0.018416,-0.03747,1.61062,14.64,-43.26,27,200.5763,3.06,1.2489,55.814026,37.50026,209.6674,0,4806
-0.258582,-0.591386,9.845258,-0.004977,-0.036859,1.636277,14.22,-42.78,27.18,200.5763,3.06,1.2489,55.814026,37.50026,209.6674,0,4816
-0.33041,-0.562655,9.842864,0.009073,-0.043579,1.650937,14.22,-42.78,27.18,200.5763,3.06,1.2489,55.814026,37.50026,209.6674,0,4826
-0.289707,-0.56026,9.79019,0.004797,-0.049076,1.663155,13.8,-42.72,27.12,200.5763,3.06,1.2489,55.814026,37.50026,209.6674,0,4837
-0.289707,-0.56026,9.79019,-0.002533,-0.047244,1.675372,13.8,-42.72,27.12,200.5763,3.06,1.2489,55.814026,37.50026,209.6674,0,4847
-0.232245,-0.579414,9.785401,-0.002533,-0.047244,1.675372,14.34,-42.24,26.4,199.825,2.9071,1.4498,55.814026,37.50026,209.6674,0,4857
-0.155628,-0.574626,9.826104,-0.015361,-0.05152,1.687589,14.34,-42.24,26.4,199.825,2.9071,1.4498,55.814026,37.50026,209.6674,0,4867
-0.098165,-0.586597,9.869201,-0.015972,-0.046633,1.694309,14.22,-42.3,26.58,199.825,2.9071,1.4498,55.814026,37.50026,209.6674,0,4877
-0.098165,-0.586597,9.869201,-0.00742,-0.046633,1.705915,14.22,-42.3,26.58,199.825,2.9071,1.4498,55.814026,37.50026,209.6674,0,4887
-0.090982,-0.39745,9.713573,0.004186,-0.041746,1.711413,14.28,-43.44,26.88,199.4527,2.8731,1.4886,55.814026,37.50026,209.6674,0,4897
0.023943,-0.512375,10.161303,0.012128,-0.05152,1.702861,14.28,-43.44,26.88,199.4527,2.8731,1.4886,55.814026,37.50026,209.6674,0,4906
0.119714,-0.430969,10.010463,0.011517,-0.063126,1.700417,14.7,-43.5,26.88,199.4527,2.8731,1.4886,55.814026,37.50026,209.6674,0,4916
0.119714,-0.430969,10.010463,0.004186,-0.030139,1.704083,14.7,-43.5,26.88,199.4527,2.8731,1.4886,55.814026,37.50026,209.6674,0,4927
0.023943,-0.553077,9.217958,-0.011085,-0.033805,1.70225,14.58,-43.5,26.46,200.6384,2.7765,1.5771,55.814026,37.50026,209.6674,0,4937
-0.026337,-0.521952,10.168485,-0.025135,-0.073511,1.691254,14.58,-43.5,26.46,200.6384,2.7765,1.5771,55.814026,37.50026,209.6674,0,4947
0.110137,-0.555472,9.754275,-0.019027,-0.066181,1.691865,14.46,-43.92,26.7,200.6384,2.7765,1.5771,55.814026,37.50026,209.6674,0,4957
0.110137,-0.555472,9.754275,-0.004366,-0.03747,1.689422,14.46,-43.92,26.7,200.6384,2.7765,1.5771,55.814026,37.50026,209.6674,0,4967
0.146051,-0.550683,9.888355,0.009684,-0.05152,1.688811,14.7,-43.62,26.82,200.2627,2.666,1.6472,55.814026,37.50026,209.6674,0,4977
0.095771,-0.61054,9.871595,0.009684,-0.034416,1.687589,14.7,-43.62,26.82,200.2627,2.666,1.6472,55.814026,37.50026,209.6674,0,4987
0.086194,-0.598569,9.838076,0.000521,-0.017311,1.680259,15.06,-43.44,26.34,200.2627,2.666,1.6472,55.814026,37.50026,209.6674,0,4997
0.040703,-0.665608,9.783007,0.000521,-0.017311,1.680259,15.06,-43.44,26.34,200.2627,2.666,1.6472,55.814026,37.50026,209.6674,0,5006
0.040703,-0.665608,9.783007,-0.011696,-0.050909,1.670485,15.84,-43.8,26.52,201.3601,2.6401,1.5215,55.814026,37.50026,209.6674,0,5016
0.059857,-0.699128,10.027223,-0.009864,-0.041135,1.660711,15.84,-43.8,26.52,201.3601,2.6401,1.5215,55.814026,37.50026,209.6674,0,5026
0.055068,-0.744619,9.814133,0.004797,-0.054574,1.641774,15.84,-44.46,26.4,201.3601,2.6401,1.5215,55.814026,37.50026,209.6674,0,5037
0.227456,-0.703917,10.060742,0.031064,-0.060072,1.627724,15.84,-44.46,26.4,201.3601,2.6401,1.5215,55.814026,37.50026,209.6674,0,5047
0.450124,-0.56026,9.905115,0.046336,-0.040524,1.60329,15.48,-44.16,26.1,199.9113,2.838,1.0113,55.814026,37.50026,209.6674,0,5057
0.450124,-0.56026,9.905115,0.051834,-0.035026,1.586186,15.48,-44.16,26.1,199.9113,2.838,1.0113,55.814026,37.50026,209.6674,0,5066
0.483644,-0.349564,9.75667,0.036562,-0.022198,1.558086,15.54,-44.16,26.64,199.9113,2.838,1.0113,55.814026,37.50026,209.6674,0,5077
0.383084,-0.220273,9.627379,0.018236,-0.017311,1.543425,15.54,-44.16,26.64,199.9113,2.838,1.0113,55.814026,37.50026,209.6674,0,5086
0.232245,-0.01676,9.699207,0.000521,-0.032583,1.524488,15.42,-45,27.36,199.3696,2.9562,0.6659,55.814026,37.50026,209.6674,0,5097
0.232245,-0.01676,9.699207,0.000521,-0.032583,1.524488,15.42,-45,27.36,199.3696,2.9562,0.6659,55.814026,37.50026,209.6674,0,5107
0.249005,-0.040703,9.653716,-0.012307,-0.028918,1.489669,15.48,-45.6,27.12,199.3696,2.9562,0.6659,55.814026,37.50026,209.6674,0,5117
0.244216,-0.191542,9.783007,-0.012307,-0.028918,1.489669,15.48,-45.6,27.12,199.3696,2.9562,0.6659,55.814026,37.50026,209.6674,0,5127
0.244216,-0.191542,9.783007,-0.017805,-0.027696,1.472565,15.78,-45.96,26.7,200.1457,2.8648,0.7736,55.814007,37.500256,208.3549,0,5136
0.210696,-0.38069,9.785401,-0.02147,-0.038081,1.46218,15.78,-45.96,26.7,200.1457,2.8648,0.7736,55.814007,37.500256,208.3549,0,5147
0.184359,-0.469278,9.735122,-0.022692,-0.027085,1.446908,15.96,-45.06,26.76,200.1457,2.8648,0.7736,55.814007,37.500256,208.3549,0,5157
0.124502,-0.464489,9.955395,-0.019027,-0.02342,1.442021,15.96,-45.06,26.76,200.1457,2.8648,0.7736,55.814007,37.500256,208.3549,0,5167
0.124502,-0.464489,9.955395,-0.008642,-0.033194,1.432858,15.9,-44.88,26.46,200.5694,2.8491,0.8538,55.814007,37.500256,208.3549,0,5177
0.023943,-0.454912,9.780613,0.003575,-0.031972,1.429193,15.9,-44.88,26.46,200.5694,2.8491,0.8538,55.814007,37.500256,208.3549,0,5187
0.038308,-0.509981,9.792584,0.008462,-0.033805,1.42675,15.66,-45.36,26.34,200.5694,2.8491,0.8538,55.814007,37.500256,208.3549,0,5197
0.162811,-0.533923,9.91948,0.00663,-0.041135,1.423695,15.66,-45.36,26.34,200.5694,2.8491,0.8538,55.814007,37.500256,208.3549,0,5206
0.117319,-0.457306,9.809344,0.001743,-0.029529,1.416365,15.54,-45.48,26.28,200.6076,2.8213,0.9401,55.814007,37.500256,208.3549,0,5217
0.117319,-0.457306,9.809344,0.002354,-0.027085,1.409035,15.54,-45.48,26.28,200.6076,2.8213,0.9401,55.814007,37.500256,208.3549,0,5227
0.0838,-0.411815,9.77343,0.011517,-0.038692,1.407813,15.3,-45.66,26.04,200.6076,2.8213,0.9401,55.814007,37.500256,208.3549,0,5237
0.052674,-0.316044,9.931452,0.015182,-0.021587,1.407202,15.3,-45.66,26.04,200.6076,2.8213,0.9401,55.814007,37.500256,208.3549,0,5247
0.004789,-0.272947,9.730332,0.015182,-0.021587,1.407202,15.18,-45.66,26.4,199.0748,2.7567,1.0189,55.814007,37.500256,208.3549,0,5257
0.004789,-0.272947,9.730332,0.015793,-0.032583,1.40598,15.18,-45.66,26.4,199.0748,2.7567,1.0189,55.814007,37.500256,208.3549,0,5266
0.043097,-0.284919,9.749487,0.009684,-0.040524,1.406591,15.9,-45.72,26.58,199.0748,2.7567,1.0189,55.814007,37.500256,208.3549,0,5276
0.076617,-0.318439,9.780613,-0.006198,-0.030139,1.40598,15.9,-45.72,26.58,199.0748,2.7567,1.0189,55.814007,37.500256,208.3549,0,5287
0.10056,-0.371113,9.794978,-0.012307,-0.040524,1.405369,16.2,-46.14,26.7,200.2721,2.6676,1.0953,55.814007,37.500256,208.3549,0,5297
0.10056,-0.371113,9.794978,-0.012307,-0.036859,1.401704,16.2,-46.14,26.7,200.2721,2.6676,1.0953,55.814007,37.500256,208.3549,0,5307
0.035914,-0.409421,9.890749,-0.008031,-0.019755,1.408424,16.08,-46.38,26.58,200.2721,2.6676,1.0953,55.814007,37.500256,208.3549,0,5317
-0.10056,-0.447729,9.830893,0.004797,-0.039913,1.415754,16.08,-46.38,26.58,200.2721,2.6676,1.0953,55.814007,37.500256,208.3549,0,5327
-0.074223,-0.445335,9.830893,0.010906,-0.041135,1.420641,16.2,-46.5,26.46,200.1596,2.5686,0.992,55.814007,37.500256,208.3549,0,5337
-0.045491,-0.395055,9.826104,0.007851,-0.035026,1.425528,16.2,-46.5,26.46,200.1596,2.5686,0.992,55.814007,37.500256,208.3549,0,5347
-0.045491,-0.395055,9.826104,0.001132,-0.050909,1.425528,15.96,-46.74,26.82,200.1596,2.5686,0.992,55.814007,37.500256,208.3549,0,5357
0.043097,-0.38069,9.747093,0.001132,-0.050909,1.425528,15.96,-46.74,26.82,200.1596,2.5686,0.992,55.814007,37.500256,208.3549,0,5366
0.153234,-0.366324,9.816526,-0.004977,-0.046633,1.419419,15.78,-46.74,26.76,199.5769,2.417,0.6333,55.814007,37.500256,208.3549,0,5377
0.186753,-0.366324,9.826104,-0.004977,-0.033805,1.42003,15.78,-46.74,26.76,199.5769,2.417,0.6333,55.814007,37.500256,208.3549,0,5387
0.225062,-0.395055,9.814133,-0.004977,-0.038081,1.419419,15.24,-47.1,26.16,199.5769,2.417,0.6333,55.814007,37.500256,208.3549,0,5397
0.225062,-0.395055,9.814133,0.001132,-0.024642,1.416365,15.24,-47.1,26.16,199.5769,2.417,0.6333,55.814007,37.500256,208.3549,0,5406
0.177176,-0.423787,9.833286,-9E-05,-0.024031,1.416365,15.24,-47.64,25.74,197.9256,2.3483,0.3773,55.814007,37.500256,208.3549,0,5417
0.090982,-0.402238,9.842864,0.001132,-0.025863,1.421252,15.24,-47.64,25.74,197.9256,2.3483,0.3773,55.814007,37.500256,208.3549,0,5427
0.047885,-0.251399,9.79019,0.002354,-0.025863,1.424917,16.5,-48.12,25.98,197.9256,2.3483,0.3773,55.814007,37.500256,208.3549,0,5436
0.090982,-0.548289,9.308941,0.011517,-0.058239,1.420641,16.5,-48.12,25.98,197.9256,2.3483,0.3773,55.814007,37.500256,208.3549,0,5447
0.090982,-0.548289,9.308941,-0.001312,-0.010592,1.409035,16.2,-48.12,26.58,198.8933,2.3065,0.0912,55.814007,37.500256,208.3549,0,5456
-0.004789,-0.244216,10.527626,-0.008642,-0.022198,1.423085,16.2,-48.12,26.58,198.8933,2.3065,0.0912,55.814007,37.500256,208.3549,0,5466
0.047885,-0.632089,9.253872,-0.018416,-0.061904,1.424306,15.48,-47.64,27,198.8933,2.3065,0.0912,55.814007,37.500256,208.3549,0,5477
0.009577,-0.565049,10.020041,-0.022081,0.004069,1.426139,15.48,-47.64,27,198.8933,2.3065,0.0912,55.814007,37.500256,208.3549,0,5487
0.203513,-0.29689,9.98652,-0.011085,-0.052131,1.427361,15.84,-47.76,26.94,198.7893,2.3023,-0.1106,55.814007,37.500256,208.3549,0,5497
0.203513,-0.29689,9.98652,0.004186,-0.055796,1.416976,15.84,-47.76,26.94,198.7893,2.3023,-0.1106,55.814007,37.500256,208.3549,0,5507
0.181965,-0.339987,9.943423,0.02068,0.01201,1.42003,15.66,-47.88,26.58,198.7893,2.3023,-0.1106,55.814007,37.500256,208.3549,0,5516
-0.002394,-0.339987,9.522031,0.021901,-0.028918,1.423695,15.66,-47.88,26.58,198.7893,2.3023,-0.1106,55.814007,37.500256,208.3549,0,5526
-0.002394,-0.339987,9.522031,0.000521,-0.05885,1.428582,15.6,-48.66,27.12,198.3712,2.4448,-0.2662,55.814007,37.500256,208.3549,0,5536
0.045491,-0.402238,9.881172,-0.019027,-0.020976,1.433469,15.6,-48.66,27.12,198.3712,2.4448,-0.2662,55.814007,37.500256,208.3549,0,5547
0.035914,-0.538712,9.646533,-0.0288,-0.062515,1.426139,15.84,-49.44,27.24,198.3712,2.4448,-0.2662,55.814007,37.500256,208.3549,0,5557
0.181965,-0.452518,10.039194,-0.020859,-0.056407,1.421252,15.84,-49.44,27.24,198.3712,2.4448,-0.2662,55.814007,37.500256,208.3549,0,5567
0.181965,-0.452518,10.039194,-0.020859,-0.056407,1.421252,15.3,-49.32,26.7,197.2353,2.4695,-0.3711,55.814007,37.500256,208.3549,0,5576
0.227456,-0.390267,9.864412,-0.006809,-0.015479,1.412089,15.3,-49.32,26.7,197.2353,2.4695,-0.3711,55.814007,37.500256,208.3549,0,5586
0.193936,-0.328016,9.842864,0.017625,-0.046633,1.40598,14.88,-48.84,26.52,197.2353,2.4695,-0.3711,55.814007,37.500256,208.3549,0,5597
0.210696,-0.344776,9.876384,0.026177,-0.033805,1.402315,14.88,-48.84,26.52,197.2353,2.4695,-0.3711,55.814007,37.500256,208.3549,0,5606
0.136474,-0.387873,9.701602,0.012128,-0.017922,1.398039,15.36,-48.66,26.28,197.2041,2.4675,-0.4184,55.814007,37.500256,208.3549,0,5617
0.136474,-0.387873,9.701602,-0.012307,-0.054574,1.392541,15.36,-48.66,26.28,197.2041,2.4675,-0.4184,55.814007,37.500256,208.3549,0,5626
0.138868,-0.500403,9.725544,-0.019027,-0.050298,1.386433,15.9,-48.84,26.28,197.2041,2.4675,-0.4184,55.814007,37.500256,208.3549,0,5637
0.29689,-0.471672,9.921875,-0.01414,-0.033194,1.380935,15.9,-48.84,26.28,197.2041,2.4675,-0.4184,55.814007,37.500256,208.3549,0,5646
0.349564,-0.392661,9.967366,-0.000701,-0.045411,1.368107,15.42,-49.02,25.92,197.1299,2.4003,-0.5458,55.814007,37.500256,208.3549,0,5657
0.375901,-0.344776,9.811738,0.017625,-0.03747,1.361998,15.18,-48.78,25.62,197.1299,2.4003,-0.5458,55.814007,37.500256,208.3549,0,5666
0.375901,-0.344776,9.811738,0.030453,-0.033194,1.34917,15.18,-48.78,25.62,197.1299,2.4003,-0.5458,55.814007,37.500256,208.3549,0,5677
0.421392,-0.29689,9.73991,0.022512,-0.031972,1.340618,15.48,-48.9,25.56,197.1299,2.4003,-0.5458,55.814007,37.500256,208.3549,0,5687
0.301679,-0.339987,9.761458,-0.003144,-0.0167,1.329622,15.48,-48.9,25.56,197.1299,2.4003,-0.5458,55.814007,37.500256,208.3549,0,5697
0.167599,-0.442941,9.711179,-0.019027,-0.031972,1.329011,16.2,-49.44,26.22,198.0949,2.3948,-0.7925,55.814007,37.500256,208.3549,0,5707
0.167599,-0.442941,9.711179,-0.02147,-0.0448,1.323513,15.96,-49.2,26.16,198.0949,2.3948,-0.7925,55.814007,37.500256,208.3549,0,5717
0.205908,-0.524346,9.924269,-0.02147,-0.0448,1.323513,15.96,-49.2,26.16,198.0949,2.3948,-0.7925,55.814007,37.500256,208.3549,0,5727
0.22985,-0.490826,9.979338,-0.004366,-0.03075,1.319848,15.48,-49.32,26.16,198.0949,2.3948,-0.7925,55.814007,37.500256,208.3549,0,5737
0.22985,-0.490826,9.979338,0.020069,-0.035637,1.316183,14.94,-48.96,25.98,196.9614,2.4146,-0.8899,55.814007,37.500256,208.3549,0,5747
0.22985,-0.490826,9.979338,0.020069,-0.035637,1.316183,14.94,-48.96,25.98,196.9614,2.4146,-0.8899,55.814007,37.500256,208.3549,0,5757
0.22985,-0.490826,9.979338,0.020069,-0.035637,1.316183,14.94,-48.96,25.98,196.9614,2.4146,-0.8899,55.814007,37.500256,208.3549,0,5767
0.227456,-0.433364,9.852441,0.031675,-0.038081,1.314351,15.12,-49.2,26.28,196.9614,2.4146,-0.8899,55.814007,37.500256,208.3549,0,5777
0.29689,-0.328016,9.766247,-0.015972,-0.038692,1.275255,15.48,-50.76,26.16,196.3305,2.4237,-0.8677,55.814007,37.500256,208.3549,0,5787
0.395055,-0.36393,9.665688,-0.036742,-0.057628,1.265481,15.48,-50.76,26.16,196.3305,2.4237,-0.8677,55.814007,37.500256,208.3549,0,5796
0.395055,-0.36393,9.665688,-0.036742,-0.0448,1.255707,15.48,-51.06,25.74,196.3305,2.4237,-0.8677,55.814007,37.500256,208.3549,0,5806
0.354353,-0.153234,10.118205,-0.008031,-0.036248,1.237382,15.12,-50.7,25.8,196.3472,2.4585,-0.8439,55.814007,37.500256,208.3549,0,5817
0.373507,-0.131685,9.890749,-0.008031,-0.036248,1.237382,15.12,-50.7,25.8,196.3472,2.4585,-0.8439,55.814007,37.500256,208.3549,0,5826
0.52674,-0.131685,9.876384,0.033508,-0.049076,1.211725,15.12,-50.88,26.4,196.3472,2.4585,-0.8439,55.814007,37.500256,208.3549,0,5837
0.284919,-0.136474,9.828498,0.027399,-0.000818,1.193399,15.12,-50.88,26.4,196.3472,2.4585,-0.8439,55.814007,37.500256,208.3549,0,5847
0.205908,-0.079011,9.493299,0.004797,-0.028918,1.173852,14.58,-51.66,25.98,196.3472,2.4585,-0.8439,55.814007,37.500256,208.3549,0,5857
0.205908,-0.079011,9.493299,-0.013529,-0.053352,1.167132,14.76,-51.48,25.68,196.3735,2.4914,-0.7999,55.814007,37.500256,208.3549,0,5867
0.119714,-0.081405,9.768641,-0.027579,-0.022198,1.157969,14.76,-51.48,25.68,196.3735,2.4914,-0.7999,55.814007,37.500256,208.3549,0,5877
-0.028731,-0.162811,9.797373,-0.026357,-0.043579,1.155526,14.46,-51.54,26.22,196.3735,2.4914,-0.7999,55.814007,37.500256,208.3549,0,5886
-0.107742,-0.225062,9.766247,-0.01414,-0.047244,1.164689,14.46,-51.54,26.22,196.3735,2.4914,-0.7999,55.814007,37.500256,208.3549,0,5897
-0.023943,-0.316044,9.72315,-0.006198,-0.043579,1.168354,14.28,-52.02,26.64,195.0382,2.5362,-0.7747,55.814007,37.500256,208.3549,0,5907
0.169994,-0.423787,9.876384,-0.004366,-0.060072,1.176906,14.28,-52.02,26.64,195.0382,2.5362,-0.7747,55.814007,37.500256,208.3549,0,5917
0.169994,-0.423787,9.876384,-0.010475,-0.050298,1.180571,14.64,-52.02,26.1,195.0382,2.5362,-0.7747,55.814007,37.500256,208.3549,0,5926
0.342381,-0.483643,9.826104,-0.015972,-0.035026,1.184236,14.22,-51.66,26.34,195.0382,2.5362,-0.7747,55.814007,37.500256,208.3549,0,5937
0.392661,-0.442941,9.838076,-0.016583,-0.036248,1.190956,14.22,-51.66,26.34,195.0382,2.5362,-0.7747,55.814007,37.500256,208.3549,0,5946
0.33041,-0.409421,9.914692,-0.010475,-0.021587,1.198897,14.64,-50.82,26.64,196.4096,2.6139,-0.7644,55.814007,37.500256,208.3549,0,5957
0.167599,-0.41421,9.754275,-0.001922,-0.014257,1.21539,14.64,-50.82,26.64,196.4096,2.6139,-0.7644,55.814007,37.500256,208.3549,0,5967
0.167599,-0.41421,9.754275,-0.003144,-0.022809,1.226386,13.98,-51.6,26.52,196.4096,2.6139,-0.7644,55.814007,37.500256,208.3549,0,5977
0.014366,-0.495615,9.77343,-0.009253,-0.027085,1.234938,13.98,-51.6,26.52,196.4096,2.6139,-0.7644,55.814007,37.500256,208.3549,0,5987
-0.031126,-0.502798,9.854836,-0.018416,-0.026474,1.245934,13.08,-52.14,26.34,194.0358,2.6719,-0.7017,55.814007,37.500256,208.3549,0,5996
-0.110137,-0.469278,9.80695,-0.015361,-0.032583,1.258151,13.08,-52.14,26.34,194.0358,2.6719,-0.7017,55.814007,37.500256,208.3549,0,6006
-0.150839,-0.428575,9.794978,-0.008031,-0.040524,1.270368,13.2,-52.08,26.34,194.0358,2.6719,-0.7017,55.814007,37.500256,208.3549,0,6017
-0.150839,-0.428575,9.794978,0.004186,-0.047855,1.283807,13.2,-52.08,26.34,194.0358,2.6719,-0.7017,55.814007,37.500256,208.3549,0,6027
-0.110137,-0.411815,9.821315,0.010295,-0.046633,1.293581,13.5,-52.56,26.04,194.8436,2.6701,-0.6412,55.814007,37.500256,208.3549,0,6037
-0.055068,-0.34717,9.732727,0.002354,-0.05152,1.302744,13.5,-52.56,26.04,194.8436,2.6701,-0.6412,55.814007,37.500256,208.3549,0,6047
0.081405,-0.517163,9.742304,0.002354,-0.05152,1.302744,13.44,-52.56,25.74,194.8436,2.6701,-0.6412,55.814007,37.500256,208.3549,0,6056
0.234639,-0.541106,9.873989,-0.013529,-0.058239,1.305798,13.44,-52.56,25.74,194.8436,2.6701,-0.6412,55.814007,37.500256,208.3549,0,6067
0.234639,-0.541106,9.873989,-0.018416,-0.050298,1.309464,13.5,-52.56,26.34,194.8761,2.6809,-0.575,55.814007,37.500256,208.3549,0,6077
0.392661,-0.505192,9.871595,-0.010475,-0.054574,1.310075,13.5,-52.56,26.34,194.8761,2.6809,-0.575,55.814007,37.500256,208.3549,0,6087
0.517163,-0.507586,9.854836,0.009073,-0.041135,1.310685,13.5,-52.2,26.22,194.8761,2.6809,-0.575,55.814007,37.500256,208.3549,0,6097
0.61054,-0.332804,9.77343,0.024345,-0.026474,1.308242,13.5,-52.2,26.22,194.8761,2.6809,-0.575,55.814007,37.500256,208.3549,0,6106
0.536318,-0.332804,9.749487,0.019458,-0.020366,1.29969,13.5,-52.14,25.62,195.1844,2.732,-0.5301,55.814007,37.500256,208.3549,0,6116
0.24661,-0.41421,9.692024,0.001132,-0.001429,1.303355,13.5,-52.14,25.62,195.1844,2.732,-0.5301,55.814007,37.500256,208.3549,0,6128
0.24661,-0.41421,9.692024,-0.0288,-0.013646,1.30702,13.08,-52.44,25.86,195.1844,2.732,-0.5301,55.813995,37.500248,206.4383,0,6137
-0.002394,-0.500403,9.75667,-0.0288,-0.013646,1.30702,13.08,-52.44,25.86,195.1844,2.732,-0.5301,55.813995,37.500248,206.4383,0,6146
-0.105348,-0.56026,9.840469,-0.038574,-0.013035,1.316183,12.9,-53.22,26.52,193.8912,2.7263,-0.479,55.813995,37.500248,206.4383,0,6156
-0.146051,-0.572232,9.866806,-0.025746,-0.019144,1.332676,12.9,-53.7,26.94,193.8912,2.7263,-0.479,55.813995,37.500248,206.4383,0,6167
-0.215485,-0.600963,9.873989,-0.003144,-0.028307,1.345505,12.9,-53.7,26.94,193.8912,2.7263,-0.479,55.813995,37.500248,206.4383,0,6177
-0.215485,-0.600963,9.873989,0.014571,-0.031361,1.358944,13.2,-53.28,26.7,193.8912,2.7263,-0.479,55.813995,37.500248,206.4383,0,6187
-0.265764,-0.588992,9.783007,0.02129,-0.038692,1.383378,13.2,-53.28,26.7,193.8912,2.7263,-0.479,55.813995,37.500248,206.4383,0,6197
-0.256187,-0.579414,9.70639,0.012738,-0.047855,1.405369,12.6,-52.8,26.4,193.9207,2.8096,-0.432,55.813995,37.500248,206.4383,0,6207
-0.047885,-0.615329,9.73991,-0.001312,-0.060072,1.423085,12.6,-52.8,26.4,193.9207,2.8096,-0.432,55.813995,37.500248,206.4383,0,6217
-0.047885,-0.615329,9.73991,-0.019027,-0.060683,1.445076,12.3,-53.4,25.56,193.9207,2.8096,-0.432,55.813995,37.500248,206.4383,0,6227
0.201119,-0.591386,9.883567,-0.017805,-0.054574,1.456071,11.94,-53.28,25.62,193.9207,2.8096,-0.432,55.813995,37.500248,206.4383,0,6237
0.304073,-0.59378,9.816526,0.004186,-0.049687,1.474397,11.94,-53.28,25.62,193.9207,2.8096,-0.432,55.813995,37.500248,206.4383,0,6247
0.304073,-0.59378,9.816526,0.015793,-0.042968,1.479895,11.76,-52.68,25.68,192.9254,2.8512,-0.3285,55.813995,37.500248,206.4383,0,6257
0.36393,-0.584203,9.835681,0.02129,-0.031361,1.492723,11.76,-52.68,25.68,192.9254,2.8512,-0.3285,55.813995,37.500248,206.4383,0,6266
0.368718,-0.565049,9.77343,0.015182,-0.025253,1.503108,11.94,-53.22,25.86,192.9254,2.8512,-0.3285,55.813995,37.500248,206.4383,0,6277
0.260976,-0.596174,9.703996,-0.001312,-0.0167,1.51166,11.94,-53.22,25.86,192.9254,2.8512,-0.3285,55.813995,37.500248,206.4383,0,6287
0.102954,-0.615329,9.785401,-0.015361,-0.017922,1.52571,11.7,-53.94,26.52,192.7264,2.8625,-0.2644,55.813995,37.500248,206.4383,0,6297
0.102954,-0.615329,9.785401,-0.020859,-0.02342,1.542814,11.7,-53.94,26.52,192.7264,2.8625,-0.2644,55.813995,37.500248,206.4383,0,6307
-0.035914,-0.670397,9.826104,-0.011085,-0.027696,1.557475,11.64,-53.82,26.94,192.7264,2.8625,-0.2644,55.813995,37.500248,206.4383,0,6317
-0.112531,-0.691945,9.823709,0.004186,-0.033194,1.574579,11.64,-53.82,26.94,192.7264,2.8625,-0.2644,55.813995,37.500248,206.4383,0,6329
-0.138868,-0.653637,9.854836,0.004186,-0.033194,1.574579,11.7,-53.4,26.52,193.0254,2.8813,-0.1466,55.813995,37.500248,206.4383,0,6337
-0.079011,-0.663214,9.771035,0.016404,-0.043579,1.592905,11.7,-53.4,26.52,193.0254,2.8813,-0.1466,55.813995,37.500248,206.4383,0,6347
-0.079011,-0.663214,9.771035,0.010295,-0.044189,1.607566,11.46,-53.04,26.64,193.0254,2.8813,-0.1466,55.813995,37.500248,206.4383,0,6356
0.035914,-0.689551,9.72315,0.000521,-0.050909,1.617951,11.46,-53.04,26.64,193.0254,2.8813,-0.1466,55.813995,37.500248,206.4383,0,6367
0.162811,-0.72786,9.759064,-0.009864,-0.055185,1.626503,11.34,-53.28,26.34,192.0094,2.8863,-0.0403,55.813995,37.500248,206.4383,0,6376
0.294496,-0.749408,9.828498,-0.012307,-0.052131,1.637498,11.34,-53.28,26.34,192.0094,2.8863,-0.0403,55.813995,37.500248,206.4383,0,6387
0.294496,-0.749408,9.828498,-0.004366,-0.046022,1.640553,10.56,-54.12,25.68,192.0094,2.8863,-0.0403,55.813995,37.500248,206.4383,0,6396
0.351958,-0.742225,9.881172,0.006019,-0.044189,1.642385,10.56,-54.12,25.68,192.0094,2.8863,-0.0403,55.813995,37.500248,206.4383,0,6407
0.318439,-0.687157,9.792584,0.01396,-0.03747,1.647272,10.26,-53.7,25.98,190.7729,2.8947,0.0258,55.813995,37.500248,206.4383,0,6417
0.268159,-0.641666,9.768641,0.012738,-0.035026,1.64544,10.26,-53.7,25.98,190.7729,2.8947,0.0258,55.813995,37.500248,206.4383,0,6427
0.268159,-0.641666,9.768641,0.006019,-0.036248,1.650937,10.02,-52.8,25.8,190.7729,2.8947,0.0258,55.813995,37.500248,206.4383,0,6437
0.158022,-0.557866,9.692024,-0.00742,-0.041746,1.653992,10.02,-52.8,25.8,190.7729,2.8947,0.0258,55.813995,37.500248,206.4383,0,6447
0.086194,-0.495615,9.648928,-0.00742,-0.041746,1.653992,9.06,-53.58,25.32,189.7488,2.885,0.1144,55.813995,37.500248,206.4383,0,6456
0.088588,-0.598569,9.751882,-0.019637,-0.048465,1.661933,9.06,-53.58,25.32,189.7488,2.885,0.1144,55.813995,37.500248,206.4383,0,6467
0.181965,-0.720677,9.747093,-0.025746,-0.052741,1.661322,8.88,-54.06,25.56,189.7488,2.885,0.1144,55.813995,37.500248,206.4383,0,6477
0.181965,-0.720677,9.747093,-0.023303,-0.059461,1.666209,8.88,-54.06,25.56,189.7488,2.885,0.1144,55.813995,37.500248,206.4383,0,6487
0.359141,-0.854756,9.890749,-0.017194,-0.054574,1.664987,9.12,-54,25.74,189.8031,2.8881,0.2039,55.813995,37.500248,206.4383,0,6497
0.41421,-0.866727,9.981731,-0.008031,-0.040524,1.668652,9.12,-54,25.74,189.8031,2.8881,0.2039,55.813995,37.500248,206.4383,0,6507
0.383084,-0.864333,9.794978,0.002354,-0.0448,1.673539,9,-54,25.98,189.8031,2.8881,0.2039,55.813995,37.500248,206.4383,0,6516
0.268159,-0.845179,9.766247,0.012738,-0.029529,1.674761,9,-54,25.98,189.8031,2.8881,0.2039,55.813995,37.500248,206.4383,0,6526
0.268159,-0.845179,9.766247,0.008462,-0.029529,1.675372,8.4,-53.58,26.52,188.7906,2.9202,0.2704,55.813995,37.500248,206.4383,0,6537
0.129291,-0.847573,9.828498,-0.001922,-0.038692,1.682091,8.4,-53.58,26.52,188.7906,2.9202,0.2704,55.813995,37.500248,206.4383,0,6547
0.071828,-0.854756,9.684841,-0.008031,-0.047855,1.682702,8.88,-53.64,26.64,188.7906,2.9202,0.2704,55.813995,37.500248,206.4383,0,6557
0.160416,-0.787716,9.847652,-0.008031,-0.055185,1.675983,8.88,-53.64,26.64,188.7906,2.9202,0.2704,55.813995,37.500248,206.4383,0,6567
0.160416,-0.787716,9.847652,0.002354,-0.063126,1.678426,9,-54,26.58,189.6519,3.4374,-0.2301,55.813995,37.500248,206.4383,0,6577
0.26337,-0.802082,9.876384,0.009073,-0.061904,1.671096,9,-54,26.58,189.6519,3.4374,-0.2301,55.813995,37.500248,206.4383,0,6587
0.442941,-0.696734,9.656111,0.009073,-0.061904,1.671096,7.86,-53.82,26.22,189.6519,3.4374,-0.2301,55.813995,37.500248,206.4383,0,6596
0.596174,-0.608146,9.80695,0.01396,-0.060683,1.661933,7.86,-53.82,26.22,189.6519,3.4374,-0.2301,55.813995,37.500248,206.4383,0,6607
0.596174,-0.608146,9.80695,0.007241,-0.045411,1.650937,7.68,-53.4,25.92,188.6649,3.88,-0.463,55.813995,37.500248,206.4383,0,6617
0.579415,-0.600963,9.749487,-0.003144,-0.035637,1.644218,7.68,-53.4,25.92,188.6649,3.88,-0.463,55.813995,37.500248,206.4383,0,6626
0.462095,-0.689551,9.63935,-0.019027,-0.03747,1.634444,7.98,-52.86,26.34,188.6649,3.88,-0.463,55.813995,37.500248,206.4383,0,6637
0.378295,-0.770956,9.862018,-0.025135,-0.039302,1.619783,7.98,-52.86,26.34,188.6649,3.88,-0.463,55.813995,37.500248,206.4383,0,6647
0.407027,-0.85715,9.802161,-0.023914,-0.049076,1.606955,7.38,-53.34,26.1,187.3916,4.0635,-0.8394,55.813995,37.500248,206.4383,0,6657
0.407027,-0.85715,9.802161,-0.008031,-0.044189,1.594127,7.38,-53.34,26.1,187.3916,4.0635,-0.8394,55.813995,37.500248,206.4383,0,6667
0.454912,-0.883487,9.888355,0.007851,-0.036859,1.584964,6.54,-53.82,25.74,187.3916,4.0635,-0.8394,55.813995,37.500248,206.4383,0,6677
0.438152,-0.82363,9.888355,0.016404,-0.033805,1.58252,6.54,-53.82,25.74,187.3916,4.0635,-0.8394,55.813995,37.500248,206.4383,0,6687
0.438152,-0.82363,9.888355,0.016404,-0.033805,1.58252,6.84,-53.28,26.16,187.2145,4.2294,-1.2157,55.813995,37.500248,206.4383,0,6697
0.265765,-0.718282,9.687236,0.018236,-0.024642,1.576412,6.84,-53.28,26.16,187.2145,4.2294,-1.2157,55.813995,37.500248,206.4383,0,6706
0.158022,-0.665608,9.763853,0.002965,-0.036248,1.573357,7.2,-53.1,26.28,187.2145,4.2294,-1.2157,55.813995,37.500248,206.4383,0,6717
0.158022,-0.665608,9.763853,-0.010475,-0.042357,1.570303,7.2,-53.1,26.28,187.2145,4.2294,-1.2157,55.813995,37.500248,206.4383,0,6727
0.215485,-0.749408,9.725544,-0.022692,-0.0448,1.569081,7.08,-52.74,26.28,187.2567,4.3054,-1.1433,55.813995,37.500248,206.4383,0,6738
0.256187,-0.806871,9.766247,-0.025746,-0.048465,1.566638,7.08,-52.74,26.28,187.2567,4.3054,-1.1433,55.813995,37.500248,206.4383,0,6747
0.294496,-0.845179,9.90272,-0.00742,-0.041135,1.564194,6.24,-52.02,25.74,187.2567,4.3054,-1.1433,55.813995,37.500248,206.4383,0,6757
0.294496,-0.790111,9.828498,0.008462,-0.035026,1.562362,6.24,-52.02,25.74,187.2567,4.3054,-1.1433,55.813995,37.500248,206.4383,0,6766
0.294496,-0.790111,9.828498,0.016404,-0.036859,1.56114,5.64,-52.32,25.5,186.3625,4.4075,-0.9732,55.813995,37.500248,206.4383,0,6776
0.256187,-0.782928,9.768641,0.013349,-0.035026,1.566027,5.28,-52.56,25.86,186.3625,4.4075,-0.9732,55.813995,37.500248,206.4383,0,6787
0.256187,-0.782928,9.768641,-0.006198,-0.026474,1.570914,5.28,-52.56,25.86,186.3625,4.4075,-0.9732,55.813995,37.500248,206.4383,0,6797
0.102954,-0.763774,9.725544,-0.006198,-0.026474,1.570914,5.34,-52.5,25.2,186.3625,4.4075,-0.9732,55.813995,37.500248,206.4383,0,6806
-0.01676,-0.804476,9.780613,-0.017194,-0.040524,1.58252,5.34,-52.5,25.2,186.3625,4.4075,-0.9732,55.813995,37.500248,206.4383,0,6817
-0.043097,-0.828419,9.778218,-0.017194,-0.040524,1.58252,5.76,-52.5,25.2,186.4962,4.4556,-0.729,55.813995,37.500248,206.4383,0,6826
0.10056,-0.919401,9.783007,-0.008031,-0.05152,1.583131,5.76,-52.5,25.2,186.4962,4.4556,-0.729,55.813995,37.500248,206.4383,0,6837
0.10056,-0.919401,9.783007,0.000521,-0.061294,1.583131,5.7,-52.2,26.64,186.4962,4.4556,-0.729,55.813995,37.500248,206.4383,0,6847
0.10056,-0.919401,9.783007,0.000521,-0.061294,1.583131,5.7,-52.2,26.64,186.4962,4.4556,-0.729,55.813995,37.500248,206.4383,0,6856
0.10056,-0.919401,9.783007,0.000521,-0.061294,1.583131,5.7,-52.2,26.64,186.4962,4.4556,-0.729,55.813995,37.500248,206.4383,0,6867
0.335198,-0.888276,9.881172,0.009684,-0.053352,1.584353,5.34,-51.78,27.36,185.3644,4.5753,-0.7109,55.813995,37.500248,206.4383,0,6876
0.335198,-0.888276,9.881172,0.009684,-0.053352,1.584353,5.34,-51.78,27.36,185.3644,4.5753,-0.7109,55.813995,37.500248,206.4383,0,6887
0.289707,-0.751802,9.720756,-0.003144,-0.033194,1.574579,5.34,-50.76,26.04,185.3644,4.5753,-0.7109,55.813995,37.500248,206.4383,0,6897
0.225062,-0.794899,9.783007,-0.006198,-0.033805,1.572136,5.34,-50.76,26.04,185.3644,4.5753,-0.7109,55.813995,37.500248,206.4383,0,6906
0.225062,-0.794899,9.783007,-0.004977,-0.03075,1.570303,4.86,-50.58,26.94,185.3644,4.5753,-0.7109,55.813995,37.500248,206.4383,0,6917
0.150839,-0.828419,9.794978,-0.003144,-0.030139,1.570303,4.86,-50.58,26.94,185.3644,4.5753,-0.7109,55.813995,37.500248,206.4383,0,6926
0.122108,-0.797293,9.761458,-0.002533,-0.03747,1.572747,4.98,-50.52,26.82,185.4077,4.7357,-0.8482,55.813995,37.500248,206.4383,0,6937
0.131685,-0.799688,9.799767,0.001132,-0.035026,1.576412,4.98,-50.52,26.82,185.4077,4.7357,-0.8482,55.813995,37.500248,206.4383,0,6946
0.05028,-0.835602,9.771035,-9E-05,-0.033805,1.580077,5.4,-49.98,26.28,185.4077,4.7357,-0.8482,55.813995,37.500248,206.4383,0,6957
0.05028,-0.835602,9.771035,-0.009253,-0.040524,1.58252,5.4,-49.98,26.28,185.4077,4.7357,-0.8482,55.813995,37.500248,206.4383,0,6967
0.052674,-0.775745,9.730332,-0.009253,-0.040524,1.58252,4.86,-49.68,27,185.5242,4.7626,-0.8442,55.813995,37.500248,206.4383,0,6976
0.150839,-0.861939,9.873989,-0.006809,-0.049687,1.587407,4.38,-49.5,27.06,185.5242,4.7626,-0.8442,55.813995,37.500248,206.4383,0,6987
0.155628,-0.988835,9.708784,-0.008642,-0.042968,1.587407,4.38,-49.5,27.06,185.5242,4.7626,-0.8442,55.813995,37.500248,206.4383,0,6998
0.155628,-0.988835,9.708784,-0.008031,-0.039913,1.592294,4.2,-49.86,26.7,185.5242,4.7626,-0.8442,55.813995,37.500248,206.4383,0,7006
0.201119,-0.967287,9.75667,-0.004977,-0.047855,1.591073,4.2,-49.86,26.7,185.5242,4.7626,-0.8442,55.813995,37.500248,206.4383,0,7017
0.354353,-0.806871,9.981731,0.008462,-0.034416,1.599625,4.44,-49.32,26.88,184.533,4.8453,-0.6577,55.813995,37.500248,206.4383,0,7027
0.260976,-0.816448,9.794978,0.013349,-0.008148,1.608788,4.56,-49.26,26.94,184.533,4.8453,-0.6577,55.813995,37.500248,206.4383,0,7036
-0.201119,-0.895459,9.751882,0.004797,-0.014868,1.622837,4.56,-49.26,26.94,184.533,4.8453,-0.6577,55.813995,37.500248,206.4383,0,7047
-0.201119,-0.895459,9.751882,-0.006198,-0.047855,1.633222,4.56,-49.14,27.24,184.533,4.8453,-0.6577,55.813995,37.500248,206.4383,0,7057
-0.311256,-0.909824,9.833286,-0.006809,-0.057628,1.638109,4.56,-49.14,27.24,184.533,4.8453,-0.6577,55.813995,37.500248,206.4383,0,7067
-0.189148,-0.828419,9.72315,-0.003144,-0.060683,1.648494,4.8,-48.9,27.12,185.7907,4.9241,-0.6034,55.813995,37.500248,206.4383,0,7077
0.021548,-0.792505,9.689631,-0.000701,-0.047855,1.654602,4.8,-48.9,27.12,185.7907,4.9241,-0.6034,55.813995,37.500248,206.4383,0,7086
0.086194,-1.039115,9.90272,-9E-05,-0.053963,1.663765,5.16,-48.66,26.4,185.7907,4.9241,-0.6034,55.813995,37.500248,206.4383,0,7097
0.086194,-1.039115,9.90272,-0.004977,-0.055796,1.668652,5.16,-48.66,26.4,185.7907,4.9241,-0.6034,55.813995,37.500248,206.4383,0,7107
0.150839,-0.969681,9.768641,-0.006809,-0.042357,1.677205,4.86,-48.42,26.34,186.0933,4.99,-0.3018,55.813995,37.500248,206.4383,0,7116
0.143657,-0.917007,9.725544,-0.006809,-0.042357,1.677205,4.86,-48.42,26.34,186.0933,4.99,-0.3018,55.813995,37.500248,206.4383,0,7127
0.129291,-0.859545,9.964972,-9E-05,-0.048465,1.677205,4.8,-48.6,26.82,186.0933,4.99,-0.3018,55.813995,37.500248,206.9284,0,7136
0.040703,-0.905036,9.715967,0.005408,-0.052741,1.679648,4.8,-48.6,26.82,186.0933,4.99,-0.3018,55.813995,37.500248,206.9284,0,7147
0.040703,-0.905036,9.715967,0.00663,-0.036248,1.686367,4.14,-48.6,27.12,184.8857,5.0323,-0.0641,55.813995,37.500248,206.9284,0,7157
-0.007183,-0.893064,9.70639,0.002965,-0.0448,1.690643,4.14,-48.6,27.12,184.8857,5.0323,-0.0641,55.813995,37.500248,206.9284,0,7167
0.026337,-0.849968,9.854836,-0.003144,-0.052741,1.699807,3.42,-47.82,27.12,184.8857,5.0323,-0.0641,55.813995,37.500248,206.9284,0,7177
0.009577,-0.830813,9.675264,-0.012918,-0.043579,1.707748,3.42,-47.82,27.12,184.8857,5.0323,-0.0641,55.813995,37.500248,206.9284,0,7187
-0.009577,-0.952921,9.804555,-0.015361,-0.05152,1.713246,3.42,-47.46,26.82,184.0338,5.0237,0.2866,55.813995,37.500248,206.9284,0,7197
-0.009577,-0.952921,9.804555,-0.016583,-0.050298,1.726685,3.42,-47.46,26.82,184.0338,5.0237,0.2866,55.813995,37.500248,206.9284,0,7206
0,-1.077424,9.883567,-0.016583,-0.041135,1.740734,4.2,-48.06,26.7,184.0338,5.0237,0.2866,55.813995,37.500248,206.9284,0,7217
-0.03352,-1.101366,9.787795,-0.010475,-0.045411,1.75173,4.2,-48.06,26.7,184.0338,5.0237,0.2866,55.813995,37.500248,206.9284,0,7226
-0.129291,-1.075029,9.866806,-0.001922,-0.042968,1.763947,3.84,-47.76,26.7,185.2656,5.0306,0.4007,55.813995,37.500248,206.9284,0,7237
-0.181965,-1.077424,9.850046,0.008462,-0.047244,1.778608,3.84,-47.76,26.7,185.2656,5.0306,0.4007,55.813995,37.500248,206.9284,0,7247
-0.181965,-1.077424,9.850046,0.011517,-0.053963,1.79388,3.3,-46.5,27.6,185.2656,5.0306,0.4007,55.813995,37.500248,206.9284,0,7257
-0.143656,-1.087001,9.718362,0.007241,-0.049076,1.808541,3.3,-46.5,27.6,185.2656,5.0306,0.4007,55.813995,37.500248,206.9284,0,7267
-0.112531,-1.010384,9.804555,0.002965,-0.047244,1.823201,3.96,-46.26,27.66,185.6838,5.013,0.6505,55.813995,37.500248,206.9284,0,7276
-0.107742,-0.986441,9.799767,-0.003755,-0.056407,1.840306,3.96,-46.26,27.66,185.6838,5.013,0.6505,55.813995,37.500248,206.9284,0,7287
-0.023943,-0.952921,9.701602,-0.005588,-0.049687,1.853745,3.84,-46.68,27.18,185.6838,5.013,0.6505,55.813995,37.500248,206.9284,0,7297
-0.023943,-0.952921,9.701602,-0.003144,-0.044189,1.865351,3.84,-46.68,27.18,185.6838,5.013,0.6505,55.813995,37.500248,206.9284,0,7307
-0.074223,-0.945739,9.828498,-0.003755,-0.0448,1.884288,3.3,-46.8,27.36,184.3933,4.947,0.8898,55.813995,37.500248,206.9284,0,7316
-0.117319,-0.964893,9.818921,-0.003755,-0.0448,1.884288,3.3,-46.8,27.36,184.3933,4.947,0.8898,55.813995,37.500248,206.9284,0,7327
-0.162811,-1.019961,9.677659,-0.006809,-0.047855,1.89956,3.12,-45.9,27.78,184.3933,4.947,0.8898,55.813995,37.500248,206.9284,0,7336
-0.169993,-1.161223,9.814133,-0.009253,-0.042968,1.917885,3.12,-45.9,27.78,184.3933,4.947,0.8898,55.813995,37.500248,206.9284,0,7347
-0.237033,-1.252206,9.871595,-0.019027,-0.050909,1.936822,3.84,-44.4,27.9,186.2754,4.8834,1.1468,55.813995,37.500248,206.9284,0,7357
-0.237033,-1.252206,9.871595,-0.020248,-0.046022,1.960646,3.84,-44.4,27.9,186.2754,4.8834,1.1468,55.813995,37.500248,206.9284,0,7367
-0.308861,-1.240234,9.823709,-0.009253,-0.052131,1.979583,4.2,-44.04,27.3,186.2754,4.8834,1.1468,55.813995,37.500248,206.9284,0,7377
-0.316044,-1.216291,9.914692,0.00663,-0.05885,2.002796,4.2,-44.04,27.3,186.2754,4.8834,1.1468,55.813995,37.500248,206.9284,0,7386
-0.316044,-1.216291,9.914692,0.016404,-0.050298,2.029063,3.78,-44.58,26.76,186.251,4.8228,1.4117,55.813995,37.500248,206.9284,0,7397
-0.301679,-1.201926,9.751882,0.015182,-0.060072,2.049832,3.78,-44.58,26.76,186.251,4.8228,1.4117,55.813995,37.500248,206.9284,0,7407
-0.256187,-1.177983,9.759064,0.006019,-0.066791,2.067547,4.14,-44.4,26.82,186.251,4.8228,1.4117,55.813995,37.500248,206.9284,0,7417
-0.256187,-1.177983,9.759064,-0.005588,-0.064348,2.084041,4.14,-44.4,26.82,186.251,4.8228,1.4117,55.813995,37.500248,206.9284,0,7427
-0.162811,-1.137281,9.768641,-0.010475,-0.069846,2.09748,4.26,-43.56,27.6,186.6048,4.6908,1.6688,55.813995,37.500248,206.9284,0,7437
-0.079011,-1.156435,9.785401,-0.005588,-0.070457,2.105421,4.26,-43.56,27.6,186.6048,4.6908,1.6688,55.813995,37.500248,206.9284,0,7447
-0.019154,-1.161223,9.826104,0.000521,-0.062515,2.112752,3.96,-42.9,26.88,186.6048,4.6908,1.6688,55.813995,37.500248,206.9284,0,7456
0.011971,-1.15404,9.766247,0.004186,-0.061294,2.118249,3.96,-42.9,26.88,186.6048,4.6908,1.6688,55.813995,37.500248,206.9284,0,7467
0.035914,-1.139675,9.79019,0.004797,-0.061904,2.121915,4.74,-42.84,25.92,188.1694,4.5508,1.9003,55.813995,37.500248,206.9284,0,7477
0.035914,-1.139675,9.79019,0.001132,-0.058239,2.126191,4.74,-42.84,25.92,188.1694,4.5508,1.9003,55.813995,37.500248,206.9284,0,7487
0.043097,-1.151646,9.787795,-0.006198,-0.05885,2.126191,4.62,-42.96,26.34,188.1694,4.5508,1.9003,55.813995,37.500248,206.9284,0,7497
0,-1.242629,9.73991,-0.010475,-0.060683,2.134132,4.62,-42.96,26.34,188.1694,4.5508,1.9003,55.813995,37.500248,206.9284,0,7506
0.03352,-1.264177,9.833286,-0.011085,-0.061294,2.13291,4.2,-43.08,26.22,186.9195,4.3855,2.1296,55.813995,37.500248,206.9284,0,7517
0.03352,-1.264177,9.833286,-0.000701,-0.058239,2.134132,4.2,-43.08,26.22,186.9195,4.3855,2.1296,55.813995,37.500248,206.9284,0,7527
0.028731,-1.233051,9.838076,0.007851,-0.057628,2.134743,4.98,-42.78,26.34,186.9195,4.3855,2.1296,55.813995,37.500248,206.9284,0,7537
0.031126,-1.163618,9.77343,0.007851,-0.057628,2.134743,4.98,-42.78,26.34,186.9195,4.3855,2.1296,55.813995,37.500248,206.9284,0,7547
0.031126,-1.163618,9.77343,0.015793,-0.060683,2.136575,5.7,-42.72,26.64,189.9029,4.1215,2.4578,55.813995,37.500248,206.9284,0,7557
0.040703,-1.079818,9.771035,0.016404,-0.060072,2.136575,5.7,-42.72,26.64,189.9029,4.1215,2.4578,55.813995,37.500248,206.9284,0,7566
0.057463,-1.058269,9.692024,0.006019,-0.05885,2.135353,5.76,-42.9,26.34,189.9029,4.1215,2.4578,55.813995,37.500248,206.9284,0,7577
0.076617,-1.072635,9.727939,-0.011696,-0.061294,2.131688,5.76,-42.9,26.34,189.9029,4.1215,2.4578,55.813995,37.500248,206.9284,0,7587
0.076617,-1.072635,9.727939,-0.019027,-0.060683,2.127412,5.34,-42.48,26.94,188.8035,4.0042,2.5566,55.813995,37.500248,206.9284,0,7597
0.038308,-1.192349,9.783007,-0.02147,-0.061904,2.128023,5.34,-42.48,26.94,188.8035,4.0042,2.5566,55.813995,37.500248,206.9284,0,7606
-0.009577,-1.230657,9.873989,-0.012918,-0.05885,2.122525,5.28,-41.16,27.3,188.8035,4.0042,2.5566,55.813995,37.500248,206.9284,0,7617
-0.040703,-1.245023,9.80695,0.005408,-0.058239,2.119471,5.28,-41.16,27.3,188.8035,4.0042,2.5566,55.813995,37.500248,206.9284,0,7627
-0.031126,-1.223474,9.854836,0.01396,-0.064959,2.121915,5.64,-40.8,26.82,190.2663,4.3567,2.2096,55.813995,37.500248,206.9284,0,7636
-0.031126,-1.223474,9.854836,0.01396,-0.064959,2.121915,5.64,-40.8,26.82,190.2663,4.3567,2.2096,55.813995,37.500248,206.9284,0,7647
0.019154,-1.149252,9.761458,0.012738,-0.056407,2.119471,5.7,-41.58,26.46,190.2663,4.3567,2.2096,55.813995,37.500248,206.9284,0,7656
0.052674,-1.079818,9.732727,0.009073,-0.061904,2.115806,5.7,-41.58,26.46,190.2663,4.3567,2.2096,55.813995,37.500248,206.9284,0,7667
0.069434,-1.063058,9.775824,0.002354,-0.064348,2.11153,5.94,-41.88,26.76,189.7356,5.0759,1.641,55.813995,37.500248,206.9284,0,7676
0.069434,-1.063058,9.775824,-0.005588,-0.060072,2.107865,5.94,-41.88,26.76,189.7356,5.0759,1.641,55.813995,37.500248,206.9284,0,7687
0.102954,-1.082212,9.749487,-0.008031,-0.072289,2.101756,6.6,-41.04,27,189.7356,5.0759,1.641,55.813995,37.500248,206.9284,0,7696
0.126897,-1.077424,9.80695,-0.004366,-0.061294,2.092593,6.54,-41.28,26.7,189.7356,5.0759,1.641,55.813995,37.500248,206.9284,0,7706
0.126897,-1.077424,9.80695,-0.004366,-0.057628,2.079154,6.54,-41.28,26.7,189.7356,5.0759,1.641,55.813995,37.500248,206.9284,0,7716
0.112531,-1.053481,9.761458,0.001743,-0.05885,2.068769,6.24,-41.58,26.58,189.5149,5.6322,1.199,55.813995,37.500248,206.9284,0,7727
0.05028,-1.02475,9.75667,-9E-05,-0.05152,2.066326,6.24,-41.58,26.58,189.5149,5.6322,1.199,55.813995,37.500248,206.9284,0,7737
-0.019154,-1.060664,9.766247,-0.006198,-0.055185,2.061439,6.18,-40.68,27,189.5149,5.6322,1.199,55.813995,37.500248,206.9284,0,7747
-0.019154,-1.060664,9.766247,-0.006198,-0.055185,2.061439,6.18,-40.68,27,189.5149,5.6322,1.199,55.813995,37.500248,206.9284,0,7756
-0.124502,-1.115732,9.80695,-0.010475,-0.052131,2.063271,6.42,-40.56,27.48,189.5717,5.876,0.878,55.813995,37.500248,206.9284,0,7766
-0.143656,-1.151646,9.744699,-0.011085,-0.064959,2.061439,6.42,-40.56,27.48,189.5717,5.876,0.878,55.813995,37.500248,206.9284,0,7776
-0.088588,-1.144463,9.842864,-0.003755,-0.067402,2.061439,7.2,-40.44,27.36,189.5717,5.876,0.878,55.813995,37.500248,206.9284,0,7787
-0.038308,-1.082212,9.857229,0.002354,-0.06557,2.054719,7.02,-40.8,27.48,189.5717,5.876,0.878,55.813995,37.500248,206.9284,0,7797
-0.038308,-1.082212,9.857229,0.008462,-0.068013,2.051054,7.02,-40.8,27.48,189.5717,5.876,0.878,55.813995,37.500248,206.9284,0,7807
0.014366,-0.979258,9.778218,0.013349,-0.06557,2.049222,7.44,-40.8,27.78,191.0895,6.0162,0.8586,55.813995,37.500248,206.9284,0,7817
0.05028,-0.95771,9.701602,0.005408,-0.060683,2.044945,7.44,-40.8,27.78,191.0895,6.0162,0.8586,55.813995,37.500248,206.9284,0,7827
0.076617,-0.984047,9.696813,-0.003755,-0.067402,2.040058,7.8,-40.32,27.12,191.0895,6.0162,0.8586,55.813995,37.500248,206.9284,0,7836
0.076617,-0.984047,9.696813,-0.01414,-0.055796,2.032117,7.8,-40.32,27.12,191.0895,6.0162,0.8586,55.813995,37.500248,206.9284,0,7847
0.069434,-0.998413,9.811738,-0.017194,-0.052131,2.025398,8.46,-39.66,26.88,192.8366,6.0545,0.889,55.813995,37.500248,206.9284,0,7857
0.038308,-1.031932,9.804555,-0.00742,-0.059461,2.017457,8.46,-39.66,26.88,192.8366,6.0545,0.889,55.813995,37.500248,206.9284,0,7867
-0.019154,-1.060664,9.852441,0.002354,-0.057628,2.01318,8.88,-39.54,27.72,192.8366,6.0545,0.889,55.813995,37.500248,206.9284,0,7877
-0.043097,-1.058269,9.864412,0.012738,-0.057628,2.008904,8.88,-39.54,27.72,192.8366,6.0545,0.889,55.813995,37.500248,206.9284,0,7887
-0.043097,-1.058269,9.864412,0.012738,-0.057628,2.008904,8.7,-40.08,27.96,194.3187,6.0194,0.8361,55.813995,37.500248,206.9284,0,7896
-0.047885,-1.012778,9.747093,0.010906,-0.061294,2.003407,8.7,-40.08,27.96,194.3187,6.0194,0.8361,55.813995,37.500248,206.9284,0,7907
-0.011971,-0.955316,9.735122,0.008462,-0.061294,1.99913,7.98,-40.14,27.72,194.3187,6.0194,0.8361,55.813995,37.500248,206.9284,0,7917
0.064645,-0.921796,9.799767,0.002965,-0.061294,1.997298,7.98,-40.14,27.72,194.3187,6.0194,0.8361,55.813995,37.500248,206.9284,0,7927
0.110137,-0.902642,9.759064,-0.00742,-0.061904,1.981415,8.4,-39.72,27.48,192.7753,5.9647,0.8234,55.813995,37.500248,206.9284,0,7937
0.110137,-0.902642,9.759064,-0.004977,-0.061294,1.972863,8.4,-39.72,27.48,192.7753,5.9647,0.8234,55.813995,37.500248,206.9284,0,7947
0.136474,-0.893064,9.852441,0.001132,-0.052131,1.965533,9,-39.78,28.08,192.7753,5.9647,0.8234,55.813995,37.500248,206.9284,0,7957
0.095771,-0.900247,9.895537,0.006019,-0.050909,1.953927,9,-39.78,28.08,192.7753,5.9647,0.8234,55.813995,37.500248,206.9284,0,7967
0.014366,-0.917007,9.718362,0.005408,-0.049076,1.947207,8.52,-39.66,27.84,194.2502,5.8774,0.7803,55.813995,37.500248,206.9284,0,7976
0.014366,-0.917007,9.718362,0.001132,-0.039302,1.944763,8.52,-39.66,27.84,194.2502,5.8774,0.7803,55.813995,37.500248,206.9284,0,7986
-0.107742,-0.960104,9.804555,-0.003144,-0.048465,1.942931,8.76,-39.78,27.48,194.2502,5.8774,0.7803,55.813995,37.500248,206.9284,0,7997
-0.177176,-0.952921,9.859624,-0.003144,-0.048465,1.942931,8.76,-39.78,27.48,194.2502,5.8774,0.7803,55.813995,37.500248,206.9284,0,8007
-0.198725,-0.928979,9.689631,-0.003144,-0.05152,1.941709,9.18,-39.84,27.66,194.3934,5.7794,1.0134,55.813995,37.500248,206.9284,0,8017
-0.148445,-0.926584,9.792584,0.002965,-0.052741,1.939266,9.18,-39.84,27.66,194.3934,5.7794,1.0134,55.813995,37.500248,206.9284,0,8027
-0.148445,-0.926584,9.792584,0.007851,-0.059461,1.933768,9.48,-39.6,27.66,194.3934,5.7794,1.0134,55.813995,37.500248,206.9284,0,8037
-0.057463,-0.845179,9.818921,0.009684,-0.057018,1.930103,9.48,-39.6,27.66,194.3934,5.7794,1.0134,55.813995,37.500248,206.9284,0,8047
0.052674,-0.849968,9.735122,0.002965,-0.056407,1.927659,9.6,-40.2,27.84,196.0419,5.6898,1.343,55.813995,37.500248,206.9284,0,8056
0.079011,-0.849968,9.80695,-0.003755,-0.060072,1.917275,9.6,-40.2,27.84,196.0419,5.6898,1.343,55.813995,37.500248,206.9284,0,8066
0.079011,-0.849968,9.80695,-0.005588,-0.050298,1.90689,9.6,-40.26,27.96,196.0419,5.6898,1.343,55.813995,37.500248,206.9284,0,8077
0.06704,-0.814053,9.778218,-0.004366,-0.047855,1.902614,9.6,-40.26,27.96,196.0419,5.6898,1.343,55.813995,37.500248,206.9284,0,8087
-0.004789,-0.814053,9.80695,0.001132,-0.049076,1.895894,9.54,-39.96,27.6,196.0183,5.5074,1.3687,55.813995,37.500248,206.9284,0,8096
-0.076617,-0.845179,9.811738,0.004186,-0.046022,1.890396,9.54,-39.96,27.6,196.0183,5.5074,1.3687,55.813995,37.500248,206.9284,0,8107
-0.076617,-0.845179,9.811738,0.005408,-0.052131,1.887342,10.02,-39.72,27.6,196.0183,5.5074,1.3687,55.813995,37.500248,206.9284,0,8118
-0.095771,-0.845179,9.80695,0.004186,-0.054574,1.878179,10.02,-39.72,27.6,196.0183,5.5074,1.3687,55.814007,37.500233,207.7629,0,8127
-0.076617,-0.809265,9.794978,0.000521,-0.050298,1.876347,10.68,-39.36,28.2,197.6664,5.2926,1.1347,55.814007,37.500233,207.7629,0,8137
-0.076617,-0.780534,9.780613,0.000521,-0.052741,1.87146,10.68,-39.36,28.2,197.6664,5.2926,1.1347,55.814007,37.500233,207.7629,0,8147
-0.047885,-0.790111,9.780613,-0.000701,-0.059461,1.863518,11.04,-39.24,28.5,197.6664,5.2926,1.1347,55.814007,37.500233,207.7629,0,8157
-0.047885,-0.790111,9.780613,-9E-05,-0.053352,1.856799,11.04,-39.24,28.5,197.6664,5.2926,1.1347,55.814007,37.500233,207.7629,0,8166
-0.009577,-0.794899,9.763853,0.001743,-0.055796,1.848247,11.88,-39.42,27.66,198.9699,5.1159,1.0291,55.814007,37.500233,207.7629,0,8177
0.069434,-0.780534,9.826104,0.002965,-0.061294,1.832975,11.88,-39.42,27.66,198.9699,5.1159,1.0291,55.814007,37.500233,207.7629,0,8187
0.134079,-0.730254,9.783007,0.002965,-0.061294,1.832975,12.06,-39.78,26.76,198.9699,5.1159,1.0291,55.814007,37.500233,207.7629,0,8196
0.141262,-0.72786,9.766247,0.007851,-0.050909,1.803043,12.06,-39.78,26.76,198.9699,5.1159,1.0291,55.814007,37.500233,207.7629,0,8207
0.141262,-0.72786,9.766247,0.007851,-0.050909,1.803043,11.7,-40.08,27.72,198.3905,4.9406,0.931,55.814007,37.500233,207.7629,0,8218
0.162811,-0.646454,9.821315,0.007241,-0.052741,1.788993,11.7,-40.08,27.72,198.3905,4.9406,0.931,55.814007,37.500233,207.7629,0,8227
0.155628,-0.61054,9.754275,0.002354,-0.041746,1.773721,11.58,-39.84,27.9,198.3905,4.9406,0.931,55.814007,37.500233,207.7629,0,8237
0.126897,-0.636877,9.766247,-0.005588,-0.043579,1.754174,11.58,-39.84,27.9,198.3905,4.9406,0.931,55.814007,37.500233,207.7629,0,8247
0.071828,-0.651243,9.842864,-0.006809,-0.046633,1.746843,11.46,-40.2,27.72,197.1356,4.8506,1.1601,55.814007,37.500233,207.7629,0,8257
0.071828,-0.651243,9.842864,-0.008031,-0.041746,1.735237,11.46,-40.2,27.72,197.1356,4.8506,1.1601,55.814007,37.500233,207.7629,0,8266
0.045491,-0.620117,9.818921,-0.001922,-0.042968,1.723019,11.94,-40.38,28.38,197.1356,4.8506,1.1601,55.814007,37.500233,207.7629,0,8277
0,-0.6273,9.792584,0.008462,-0.040524,1.711413,11.94,-40.38,28.38,197.1356,4.8506,1.1601,55.814007,37.500233,207.7629,0,8287
-0.055068,-0.6273,9.785401,0.007851,-0.042968,1.704083,12.12,-39.84,28.68,198.782,4.7136,1.5014,55.814007,37.500233,207.7629,0,8296
-0.05028,-0.624906,9.751882,-9E-05,-0.045411,1.697974,12.12,-39.84,28.68,198.782,4.7136,1.5014,55.814007,37.500233,207.7629,0,8307
-0.05028,-0.624906,9.751882,-9E-05,-0.045411,1.697974,12.66,-40.14,28.5,198.782,4.7136,1.5014,55.814007,37.500233,207.7629,0,8317
-0.043097,-0.632089,9.766247,-0.011696,-0.048465,1.685757,12.66,-40.14,28.5,198.782,4.7136,1.5014,55.814007,37.500233,207.7629,0,8327
-0.040703,-0.646454,9.821315,-0.008642,-0.050909,1.675372,12.42,-40.08,27.96,198.7643,4.6525,1.6113,55.814007,37.500233,207.7629,0,8337
0.014366,-0.675185,9.845258,-0.000701,-0.050298,1.664987,12.42,-40.08,27.96,198.7643,4.6525,1.6113,55.814007,37.500233,207.7629,0,8347
0.0838,-0.646454,9.814133,0.006019,-0.047855,1.649715,11.76,-40.32,27.48,198.7643,4.6525,1.6113,55.814007,37.500233,207.7629,0,8357
0.0838,-0.646454,9.814133,0.011517,-0.052741,1.636887,11.76,-40.32,27.48,198.7643,4.6525,1.6113,55.814007,37.500233,207.7629,0,8367
0.162811,-0.617723,9.818921,0.009684,-0.047244,1.622837,11.94,-40.32,27.12,198.7806,4.5492,1.7985,55.814007,37.500233,207.7629,0,8377
0.244216,-0.521952,9.751882,0.003575,-0.042357,1.613064,11.94,-40.32,27.12,198.7806,4.5492,1.7985,55.814007,37.500233,207.7629,0,8387
0.253793,-0.502798,9.775824,-0.003144,-0.038081,1.593516,11.94,-40.5,27.36,198.7806,4.5492,1.7985,55.814007,37.500233,207.7629,0,8397
0.179571,-0.493221,9.79019,-0.008031,-0.03075,1.580688,11.94,-40.5,27.36,198.7806,4.5492,1.7985,55.814007,37.500233,207.7629,0,8407
0.179571,-0.493221,9.79019,-0.003755,-0.028918,1.571525,12.78,-40.38,27.54,200.2806,4.4021,1.9733,55.814007,37.500233,207.7629,0,8417
0.079011,-0.509981,9.80695,-0.003144,-0.026474,1.56114,12.78,-40.38,27.54,200.2806,4.4021,1.9733,55.814007,37.500233,207.7629,0,8427
-0.031126,-0.56026,9.811738,-0.000701,-0.025863,1.558697,13.44,-40.62,28.2,200.2806,4.4021,1.9733,55.814007,37.500233,207.7629,0,8437
-0.131685,-0.581809,9.821315,0.004186,-0.028307,1.550145,13.44,-40.62,28.2,200.2806,4.4021,1.9733,55.814007,37.500233,207.7629,0,8447
-0.249005,-0.553077,9.79019,0.004186,-0.028307,1.550145,13.26,-40.68,28.68,199.9702,4.2744,2.1636,55.814007,37.500233,207.7629,0,8456
-0.249005,-0.553077,9.79019,0.001132,-0.036248,1.548312,13.26,-40.68,28.68,199.9702,4.2744,2.1636,55.814007,37.500233,207.7629,0,8467
-0.24661,-0.529135,9.744699,0.001132,-0.041746,1.545258,13.32,-40.02,28.32,199.9702,4.2744,2.1636,55.814007,37.500233,207.7629,0,8477
-0.184359,-0.502798,9.79019,-9E-05,-0.046022,1.544036,13.32,-40.02,28.32,199.9702,4.2744,2.1636,55.814007,37.500233,207.7629,0,8487
-0.05028,-0.495615,9.754275,-9E-05,-0.052131,1.541592,13.8,-40.8,27.78,201.2498,4.1315,2.3466,55.814007,37.500233,207.7629,0,8497
-0.05028,-0.495615,9.754275,-0.003144,-0.055796,1.536706,13.8,-40.8,27.78,201.2498,4.1315,2.3466,55.814007,37.500233,207.7629,0,8507
0.10056,-0.493221,9.799767,-0.006198,-0.05152,1.526321,13.56,-41.04,27.36,201.2498,4.1315,2.3466,55.814007,37.500233,207.7629,0,8517
0.198725,-0.519558,9.828498,-0.003144,-0.045411,1.51838,13.56,-41.04,27.36,201.2498,4.1315,2.3466,55.814007,37.500233,207.7629,0,8527
0.158022,-0.505192,9.833286,-0.004977,-0.038692,1.51166,13.32,-40.56,27.6,200.0049,3.9792,2.4775,55.814007,37.500233,207.7629,0,8537
0.158022,-0.505192,9.833286,-0.001312,-0.031361,1.501886,13.32,-40.56,27.6,200.0049,3.9792,2.4775,55.814007,37.500233,207.7629,0,8546
0.038308,-0.476461,9.809344,0.002354,-0.028918,1.496999,13.5,-40.98,28.14,200.0049,3.9792,2.4775,55.814007,37.500233,207.7629,0,8557
-0.081405,-0.440547,9.780613,0.001132,-0.032583,1.491502,13.5,-40.98,28.14,200.0049,3.9792,2.4775,55.814007,37.500233,207.7629,0,8567
-0.138868,-0.454912,9.77343,-0.003144,-0.034416,1.491502,13.8,-41.46,28.02,201.3267,3.8316,2.6054,55.814007,37.500233,207.7629,0,8577
-0.138868,-0.454912,9.77343,-0.008031,-0.03747,1.492112,13.8,-41.46,28.02,201.3267,3.8316,2.6054,55.814007,37.500233,207.7629,0,8587
-0.155628,-0.478855,9.751882,-0.009864,-0.038081,1.492723,13.92,-41.7,27.54,201.3267,3.8316,2.6054,55.814007,37.500233,207.7629,0,8597
-0.153234,-0.502798,9.811738,-0.009864,-0.035637,1.49761,13.92,-41.7,27.54,201.3267,3.8316,2.6054,55.814007,37.500233,207.7629,0,8607
-0.196331,-0.500403,9.802161,-0.006198,-0.038692,1.500054,14.04,-42,27.66,200.8824,3.6674,2.7443,55.814007,37.500233,207.7629,0,8617
-0.186753,-0.529135,9.804555,-0.004366,-0.044189,1.505551,14.04,-42,27.66,200.8824,3.6674,2.7443,55.814007,37.500233,207.7629,0,8627
-0.186753,-0.529135,9.804555,-0.004366,-0.044189,1.505551,14.1,-42,27.66,200.8824,3.6674,2.7443,55.814007,37.500233,207.7629,0,8637
-0.146051,-0.565049,9.818921,-0.000701,-0.046633,1.509827,14.1,-42,27.66,200.8824,3.6674,2.7443,55.814007,37.500233,207.7629,0,8647
-0.122108,-0.545895,9.811738,0.001132,-0.044189,1.514714,13.92,-41.64,27.96,200.38,3.2948,2.0453,55.814007,37.500233,207.7629,0,8657
-0.093377,-0.519558,9.802161,-9E-05,-0.044189,1.517769,13.92,-41.64,27.96,200.38,3.2948,2.0453,55.814007,37.500233,207.7629,0,8667
-0.093377,-0.519558,9.802161,-9E-05,-0.044189,1.517769,14.04,-41.52,28.32,200.38,3.2948,2.0453,55.814007,37.500233,207.7629,0,8677
-0.011971,-0.272947,9.802161,0.004797,-0.042357,1.522045,14.04,-41.52,28.32,200.38,3.2948,2.0453,55.814007,37.500233,207.7629,0,8687
0.076617,-0.416604,9.771035,0.004797,-0.042357,1.522045,14.04,-41.82,28.38,200.0958,3.11,1.6411,55.814007,37.500233,207.7629,0,8697
-0.052674,-0.428575,9.768641,-0.000701,-0.033805,1.51838,14.04,-41.82,28.38,200.0958,3.11,1.6411,55.814007,37.500233,207.7629,0,8707
-0.052674,-0.428575,9.768641,-0.011085,-0.03747,1.520823,14.52,-41.46,28.02,200.0958,3.11,1.6411,55.814007,37.500233,207.7629,0,8717
-0.090982,-0.509981,9.711179,-0.014751,-0.046022,1.520212,14.52,-41.46,28.02,200.0958,3.11,1.6411,55.814007,37.500233,207.7629,0,8726
-0.081405,-0.433364,9.562734,-0.011696,-0.033194,1.523266,14.94,-41.7,27.78,201.0969,2.9623,1.2989,55.814007,37.500233,207.7629,0,8736
-0.112531,-0.57702,10.225947,-0.010475,-0.039913,1.525099,14.94,-41.7,27.78,201.0969,2.9623,1.2989,55.814007,37.500233,207.7629,0,8746
-0.141262,-0.708705,9.787795,-0.006198,-0.053963,1.530597,15,-42,27.78,201.0969,2.9623,1.2989,55.814007,37.500233,207.7629,0,8757
-0.141262,-0.708705,9.787795,0.002965,-0.046633,1.546479,15,-42,27.78,201.0969,2.9623,1.2989,55.814007,37.500233,207.7629,0,8767
-0.189148,-0.670397,9.526819,0.010906,-0.041746,1.546479,15.06,-41.88,27.78,200.9014,2.826,1.0237,55.814007,37.500233,207.7629,0,8776
-0.019154,-0.466884,10.209188,0.010906,-0.041746,1.546479,15.06,-41.88,27.78,200.9014,2.826,1.0237,55.814007,37.500233,207.7629,0,8787
0.047885,-0.354353,9.478934,0.017014,-0.066791,1.551366,15.36,-41.34,28.68,200.9014,2.826,1.0237,55.814007,37.500233,207.7629,0,8796
-0.107742,-0.488432,9.653716,0.011517,-0.009981,1.55381,15.36,-41.34,28.68,200.9014,2.826,1.0237,55.814007,37.500233,207.7629,0,8807
-0.107742,-0.488432,9.653716,-0.004977,-0.011814,1.55381,15.06,-42.06,28.98,200.8528,2.7895,0.8855,55.814007,37.500233,207.7629,0,8817
-0.179571,-0.588992,10.065532,-0.027579,-0.061904,1.56114,15.06,-42.06,28.98,200.8528,2.7895,0.8855,55.814007,37.500233,207.7629,0,8827
-0.193936,-0.679974,9.579494,-0.031855,-0.030139,1.566638,14.94,-42.84,28.5,200.8528,2.7895,0.8855,55.814007,37.500233,207.7629,0,8837
-0.071828,-0.629694,9.924269,-0.006198,-0.062515,1.559308,14.94,-42.84,28.5,200.8528,2.7895,0.8855,55.814007,37.500233,207.7629,0,8847
0.086194,-0.59378,10.235525,0.02129,-0.068624,1.558697,14.82,-43.14,28.5,200.3353,2.8069,0.7825,55.814007,37.500233,207.7629,0,8856
0.086194,-0.59378,10.235525,0.039006,-0.018533,1.553199,14.82,-43.14,28.5,200.3353,2.8069,0.7825,55.814007,37.500233,207.7629,0,8867
0.126897,-0.541106,9.488511,0.039616,-0.040524,1.544036,15.12,-43.86,27.36,200.3353,2.8069,0.7825,55.814007,37.500233,207.7629,0,8877
0.241822,-0.52674,9.809344,0.017625,-0.048465,1.533651,15.12,-43.86,27.36,200.3353,2.8069,0.7825,55.814007,37.500233,207.7629,0,8887
0.31365,-0.581809,9.895537,0.017625,-0.048465,1.533651,16.26,-43.62,27.18,200.9936,2.9175,0.7223,55.814007,37.500233,207.7629,0,8897
0.289707,-0.581809,9.670476,-0.006198,-0.017311,1.522045,16.26,-43.62,27.18,200.9936,2.9175,0.7223,55.814007,37.500233,207.7629,0,8906
0.289707,-0.581809,9.670476,-0.006198,-0.035026,1.507995,15.96,-43.8,28.86,200.9936,2.9175,0.7223,55.814007,37.500233,207.7629,0,8917
0.179571,-0.452518,10.039194,0.015182,-0.024642,1.498221,15.96,-43.8,28.86,200.9936,2.9175,0.7223,55.814007,37.500233,207.7629,0,8926
-0.011971,-0.196331,9.804555,0.038395,-0.003872,1.496388,15.36,-44.1,28.56,199.7302,2.9678,0.4415,55.814007,37.500233,207.7629,0,8937
-0.150839,-0.038308,9.536397,0.054888,-0.015479,1.493945,15.36,-44.1,28.56,199.7302,2.9678,0.4415,55.814007,37.500233,207.7629,0,8947
-0.160416,-0.045491,9.567522,0.043282,-0.026474,1.493334,15.78,-44.22,28.5,199.7302,2.9678,0.4415,55.814007,37.500233,207.7629,0,8957
-0.160416,-0.045491,9.567522,0.010295,-0.027085,1.496388,15.78,-44.22,28.5,199.7302,2.9678,0.4415,55.814007,37.500233,207.7629,0,8967
-0.136474,-0.189148,9.541185,-0.033687,-0.044189,1.502497,16.38,-45.12,28.62,200.2934,2.8611,0.168,55.814007,37.500233,207.7629,0,8977
-0.023943,-0.418998,9.742304,-0.065452,-0.05152,1.503108,16.38,-45.12,28.62,200.2934,2.8611,0.168,55.814007,37.500233,207.7629,0,8987
0.014366,-0.612934,9.869201,-0.06362,-0.045411,1.50433,16.08,-44.58,28.62,200.2934,2.8611,0.168,55.814007,37.500233,207.7629,0,8997
0.014366,-0.612934,9.869201,-0.031244,-0.041746,1.509217,16.08,-44.58,28.62,200.2934,2.8611,0.168,55.814007,37.500233,207.7629,0,9006
0.011971,-0.615329,10.091868,0.01396,-0.044189,1.509217,15.96,-43.68,29.34,200.6839,2.5879,0.2012,55.814007,37.500233,207.7629,0,9017
0.047885,-0.596174,9.91948,0.035951,-0.025863,1.517158,15.96,-43.68,29.34,200.6839,2.5879,0.2012,55.814007,37.500233,207.7629,0,9027
