ACCELEROMETER X (m/s²),ACCELEROMETER Y (m/s²),ACCELEROMETER Z (m/s²),GYROSCOPE X (rad/s),GYROSCOPE Y (rad/s),GYROSCOPE Z (rad/s),MAGNETIC FIELD X (μT),MAGNETIC FIELD Y (μT),MAGNETIC FIELD Z (μT),ORIENTATION Z (azimuth °),ORIENTATION X (pitch °),ORIENTATION Y (roll °),LOCATION Latitude : ,LOCATION Longitude : ,LOCATION Altitude ( m),LOCATION Speed ( m/s),Time since start in ms 
-0.148445,0.002394,9.823709,-0.007464,0.002082,-0.002803,4.74,-2.22,-48.42,247.5995,-0.2146,0.6973,55.814037,37.500305,219.5765,0,37
-0.129291,-0.023943,9.833286,-0.000744,-0.000361,0.000251,4.56,-1.68,-47.58,247.5995,-0.2146,0.6973,55.814037,37.500305,219.5765,0,47
-0.129291,-0.023943,9.833286,0.003532,-0.001583,0.002695,4.56,-1.68,-47.58,247.5995,-0.2146,0.6973,55.814037,37.500305,219.5765,0,58
-0.126897,0.021548,9.850046,0.004143,-0.002194,-0.00036,5.16,-1.86,-48.24,247.7026,-0.2222,0.6888,55.814037,37.500305,219.5765,0,67
-0.126897,0.043097,9.792584,0.006586,0.001472,-0.000971,5.16,-1.86,-48.24,247.7026,-0.2222,0.6888,55.814037,37.500305,219.5765,0,78
-0.10056,0.071828,9.787795,0.001699,-0.002804,-0.00036,5.7,-2.76,-48.6,247.7026,-0.2222,0.6888,55.814037,37.500305,219.5765,0,88
-0.107742,0.076617,9.816526,-0.001355,-0.000972,-0.000971,5.7,-2.76,-48.6,247.7026,-0.2222,0.6888,55.814037,37.500305,219.5765,0,98
-0.107742,0.076617,9.816526,-0.000133,0.001472,-0.00036,5.7,-2.76,-48.6,247.7026,-0.2222,0.6888,55.814037,37.500305,219.5765,0,108
-0.129291,0.062251,9.814133,-0.002577,0.003915,-0.000971,5.52,-2.76,-48.42,242.4745,-0.2109,0.6953,55.814037,37.500305,219.5765,0,117
-0.122108,0.05028,9.816526,-0.003798,-0.000361,0.000862,5.28,-3.18,-48.12,242.4745,-0.2109,0.6953,55.814037,37.500305,219.5765,0,128
-0.122108,0.011971,9.799767,-0.003187,-0.000361,0.000251,5.28,-3.18,-48.12,242.4745,-0.2109,0.6953,55.814037,37.500305,219.5765,0,138
-0.105348,0.009577,9.814133,-0.001966,-0.000361,-0.00036,5.16,-2.88,-47.58,237.4841,-0.2206,0.6969,55.814037,37.500305,219.5765,0,147
-0.105348,0.009577,9.814133,-0.001966,-0.000361,-0.00036,5.16,-2.88,-47.58,237.4841,-0.2206,0.6969,55.814037,37.500305,219.5765,0,158
-0.114925,0.03352,9.821315,0.001089,-0.004026,-0.001582,5.52,-2.46,-47.58,237.4841,-0.2206,0.6969,55.814037,37.500305,219.5765,0,167
-0.124502,0.03352,9.80695,0.002921,-0.000361,0.001473,5.52,-2.46,-47.58,237.4841,-0.2206,0.6969,55.814037,37.500305,219.5765,0,178
-0.110137,0.057463,9.821315,0.003532,0.001472,0.002084,5.34,-2.76,-48,237.4755,-0.2183,0.6949,55.814037,37.500305,219.5765,0,188
-0.129291,0.0838,9.80695,0.00231,-0.001583,0.000251,5.34,-2.76,-48,237.4755,-0.2183,0.6949,55.814037,37.500305,219.5765,0,197
-0.129291,0.0838,9.80695,-0.000133,-0.002194,0.000862,5.28,-2.7,-49.02,237.4755,-0.2183,0.6949,55.814037,37.500305,219.5765,0,208
-0.117319,0.06704,9.811738,-0.000744,0.00025,-0.00036,5.28,-2.7,-49.02,237.4755,-0.2183,0.6949,55.814037,37.500305,219.5765,0,217
-0.117319,0.045491,9.818921,-0.004409,-0.002804,-0.001582,5.28,-2.7,-49.02,237.4755,-0.2183,0.6949,55.814037,37.500305,219.5765,0,228
-0.114925,0.023943,9.835681,-0.003187,-0.002804,-0.000971,5.82,-2.52,-48.6,242.524,-0.2213,0.696,55.814037,37.500305,219.5765,0,237
-0.124502,0.004789,9.838076,-0.002577,-0.000972,-0.00036,6.24,-2.4,-48.24,242.524,-0.2213,0.696,55.814037,37.500305,219.5765,0,248
-0.124502,0.004789,9.838076,0.00231,0.002082,0.002695,6.24,-2.4,-48.24,242.524,-0.2213,0.696,55.814037,37.500305,219.5765,0,257
-0.138868,0.01676,9.821315,0.003532,0.001472,-0.00036,5.94,-2.7,-47.94,242.5039,-0.2158,0.6966,55.814037,37.500305,219.5765,0,268
-0.134079,0.021548,9.80695,-0.000744,-0.002804,-0.00036,5.94,-2.7,-47.94,242.5039,-0.2158,0.6966,55.814037,37.500305,219.5765,0,278
-0.134079,0.052674,9.828498,0.00231,-0.004026,0.000251,5.4,-2.82,-47.52,242.5039,-0.2158,0.6966,55.814037,37.500305,219.5765,0,288
-0.110137,0.055068,9.826104,0.00231,-0.000361,0.000251,5.4,-2.82,-47.52,242.5039,-0.2158,0.6966,55.814037,37.500305,219.5765,0,298
-0.107742,0.047885,9.811738,-0.001966,-0.004637,0.002084,5.22,-2.52,-48.66,237.414,-0.2172,0.6981,55.814037,37.500305,219.5765,0,307
-0.107742,0.047885,9.811738,-0.001355,-0.002804,-0.00036,5.22,-2.52,-48.66,237.414,-0.2172,0.6981,55.814037,37.500305,219.5765,0,318
-0.098165,0.071828,9.818921,-0.000744,0.00025,0.000862,5.16,-2.88,-48.78,237.414,-0.2172,0.6981,55.814037,37.500305,219.5765,0,327
-0.136474,0.05028,9.818921,-0.000133,0.006969,0.001473,5.16,-2.88,-48.78,237.414,-0.2172,0.6981,55.814037,37.500305,219.5765,0,338
-0.165205,0.004789,9.783007,-0.004409,-0.000361,-0.002803,5.16,-3.06,-48.18,237.5076,-0.2234,0.6965,55.814037,37.500305,219.5765,0,348
-0.134079,0.004789,9.814133,-0.004409,-0.000361,-0.002803,5.16,-3.06,-48.18,237.5076,-0.2234,0.6965,55.814037,37.500305,219.5765,0,357
-0.134079,0.004789,9.814133,0.000478,-0.010746,-0.00036,4.74,-2.22,-47.94,237.5076,-0.2234,0.6965,55.814037,37.500305,219.5765,0,368
-0.098165,0.011971,9.90272,0.004143,-0.002804,-0.00036,4.56,-2.04,-47.82,237.5076,-0.2234,0.6965,55.814037,37.500305,219.5765,0,377
-0.10056,0.05028,9.799767,0.00903,0.006358,0.000251,4.56,-2.04,-47.82,237.5076,-0.2234,0.6965,55.814037,37.500305,219.5765,0,388
-0.138868,0.076617,9.768641,0.009641,0.002693,-0.000971,4.74,-1.68,-48.18,247.5771,-0.2154,0.7051,55.814037,37.500305,219.5765,0,398
-0.126897,0.081405,9.823709,0.002921,-0.001583,0.001473,4.74,-2.04,-48.36,247.5771,-0.2154,0.7051,55.814037,37.500305,219.5765,0,408
-0.126897,0.081405,9.823709,-0.005631,-0.001583,0.000862,4.74,-2.04,-48.36,247.5771,-0.2154,0.7051,55.814037,37.500305,219.5765,0,418
-0.112531,0.055068,9.77343,-0.006853,0.000861,0.003916,5.1,-1.74,-48.42,247.5771,-0.2154,0.7051,55.814037,37.500305,219.5765,0,428
-0.095771,0.004789,9.794978,-0.007464,-0.005859,0.003305,5.1,-1.74,-48.42,247.5771,-0.2154,0.7051,55.814037,37.500305,219.5765,0,438
-0.117319,0.002394,9.862018,-0.002577,-0.002804,0.002695,5.22,-1.98,-48.78,247.6276,-0.2251,0.712,55.814037,37.500305,219.5765,0,448
-0.117319,0.002394,9.862018,0.005365,0.010024,0.00636,5.22,-1.98,-48.78,247.6276,-0.2251,0.712,55.814037,37.500305,219.5765,0,458
-0.167599,0.007183,9.818921,0.002921,0.011856,0.008192,5.34,-2.88,-48.96,247.6276,-0.2251,0.712,55.814037,37.500305,219.5765,0,468
-0.191542,-0.05028,9.749487,-0.008685,-0.002804,0.008803,5.34,-2.88,-48.96,247.6276,-0.2251,0.712,55.814037,37.500305,219.5765,0,477
-0.167599,-0.047885,9.802161,-0.006853,-0.0138,0.008192,6.24,-2.88,-48.48,242.5088,-0.226,0.7148,55.814037,37.500305,219.5765,0,488
-0.131685,0.007183,9.941029,0.009641,-0.013189,0.00636,6.24,-2.88,-48.48,242.5088,-0.226,0.7148,55.814037,37.500305,219.5765,0,498
-0.131685,0.007183,9.941029,0.031021,0.00758,0.005138,5.88,-3.12,-48.18,242.5088,-0.226,0.7148,55.814037,37.500305,219.5765,0,508
-0.131685,0.131685,9.802161,0.028577,0.005137,0.001473,5.88,-3.12,-48.18,242.5088,-0.226,0.7148,55.814037,37.500305,219.5765,0,518
-0.043097,0.232245,9.670476,-0.010518,-0.018687,0.003916,5.28,-2.7,-47.88,236.8957,-0.1754,0.7449,55.814037,37.500305,219.5765,0,528
-0.028731,0.205908,9.828498,-0.010518,-0.018687,0.003916,5.28,-2.7,-47.88,236.8957,-0.1754,0.7449,55.814037,37.500305,219.5765,0,538
-0.028731,0.205908,9.828498,-0.02579,-0.002194,0.01369,4.86,-2.28,-47.76,236.8957,-0.1754,0.7449,55.814037,37.500305,219.5765,0,547
-0.126897,0.090982,9.840469,-0.023957,0.029571,0.014912,4.86,-2.28,-47.76,236.8957,-0.1754,0.7449,55.814037,37.500305,219.5765,0,558
-0.24661,-0.069434,9.754275,-0.022735,0.018576,0.017355,5.04,-2.1,-48.42,248.0337,-0.2745,0.7304,55.814037,37.500305,219.5765,0,568
-0.241822,-0.184359,9.878778,-0.022124,-0.017465,0.021631,5.04,-2.1,-48.42,248.0337,-0.2745,0.7304,55.814037,37.500305,219.5765,0,578
-0.186753,-0.134079,9.960183,0.001089,-0.015633,0.022853,4.92,-2.58,-48.36,248.0337,-0.2745,0.7304,55.814037,37.500305,219.5765,0,588
-0.186753,-0.134079,9.960183,0.032243,0.000861,0.029573,4.92,-2.58,-48.36,248.0337,-0.2745,0.7304,55.814037,37.500305,219.5765,0,597
-0.181965,-0.004789,9.828498,0.048125,0.008191,0.032016,5.22,-2.76,-47.76,237.3121,-0.2297,0.7458,55.814037,37.500305,219.5765,0,608
-0.146051,0.165205,9.730332,0.033464,-0.004026,0.041179,5.22,-2.76,-47.76,237.3121,-0.2297,0.7458,55.814037,37.500305,219.5765,0,617
-0.102954,0.299284,9.761458,0.004143,-0.008913,0.04912,5.7,-2.22,-47.76,237.3121,-0.2297,0.7458,55.814037,37.500305,219.5765,0,628
-0.143656,0.26337,9.794978,0.004143,-0.008913,0.04912,5.7,-2.22,-47.76,237.3121,-0.2297,0.7458,55.814037,37.500305,219.5765,0,638
-0.237033,0.131685,9.751882,-0.027622,0.008802,0.065614,5.28,-2.52,-48.42,236.9762,-0.2271,0.8085,55.814037,37.500305,219.5765,0,647
-0.237033,0.131685,9.751882,-0.036174,0.010024,0.082107,5.28,-2.52,-48.42,236.9762,-0.2271,0.8085,55.814037,37.500305,219.5765,0,658
-0.318439,-0.040703,9.80695,-0.035563,0.001472,0.090048,4.92,-2.28,-48.48,236.9762,-0.2271,0.8085,55.814037,37.500305,219.5765,0,668
-0.351958,-0.126897,9.943423,-0.012961,-0.007081,0.10532,4.92,-2.28,-48.48,236.9762,-0.2271,0.8085,55.814037,37.500305,219.5765,0,678
-0.289707,-0.093377,9.873989,0.005365,-0.008913,0.123035,4.8,-2.46,-48.42,236.9762,-0.2271,0.8085,55.814037,37.500305,219.5765,0,688
-0.289707,-0.093377,9.873989,0.024912,-0.013189,0.136474,5.46,-2.46,-48.24,247.755,-0.3125,0.896,55.814037,37.500305,219.5765,0,698
-0.169993,0.043097,9.792584,0.023691,-0.009524,0.157854,5.46,-2.46,-48.24,247.755,-0.3125,0.896,55.814037,37.500305,219.5765,0,707
-0.165205,0.169994,9.799767,0.015749,0.003915,0.17618,5.46,-2.28,-48.24,247.755,-0.3125,0.896,55.814037,37.500305,219.5765,0,718
-0.265764,0.237033,9.763853,-0.001966,0.011245,0.191452,5.46,-2.28,-48.24,247.755,-0.3125,0.896,55.814037,37.500305,219.5765,0,728
-0.265764,0.237033,9.763853,-0.001966,0.011245,0.191452,5.1,-2.28,-48.54,248.2564,-0.3534,0.8698,55.814037,37.500305,219.5765,0,738
-0.342381,0.146051,9.749487,-0.027622,-0.008302,0.210389,5.1,-2.28,-48.54,248.2564,-0.3534,0.8698,55.814037,37.500305,219.5765,0,747
-0.239427,0.023943,9.838076,-0.030676,-0.02113,0.226882,4.8,-2.58,-48.72,248.2564,-0.3534,0.8698,55.814037,37.500305,219.5765,0,758
-0.10056,-0.0838,9.857229,-0.022124,-0.024185,0.240932,5.16,-2.16,-48.72,248.2564,-0.3534,0.8698,55.814037,37.500305,219.5765,0,768
-0.10056,-0.0838,9.857229,-0.008074,-0.010746,0.256204,5.16,-2.16,-48.72,248.2564,-0.3534,0.8698,55.814037,37.500305,219.5765,0,778
-0.134079,-0.011971,9.883567,0.013306,0.010024,0.272697,5.22,-1.74,-48.3,248.0589,-0.3255,0.8506,55.814037,37.500305,219.5765,0,787
-0.260976,0.112531,9.768641,0.019415,0.019798,0.293466,5.22,-1.74,-48.3,248.0589,-0.3255,0.8506,55.814037,37.500305,219.5765,0,798
-0.418998,0.189148,9.787795,0.005365,0.011856,0.313014,4.98,-2.28,-48.36,248.0589,-0.3255,0.8506,55.814037,37.500305,219.5765,0,807
-0.418998,0.189148,9.787795,-0.005631,0.000861,0.330729,4.98,-2.28,-48.36,248.0589,-0.3255,0.8506,55.814037,37.500305,219.5765,0,818
-0.452518,0.160416,9.766247,-0.020903,-0.014411,0.351499,4.98,-2.28,-48.36,248.0589,-0.3255,0.8506,55.814037,37.500305,219.5765,0,827
-0.342381,0.05028,9.77343,-0.030066,-0.032737,0.364327,5.04,-2.82,-48.12,237.6778,-0.3512,0.864,55.814037,37.500305,219.5765,0,838
-0.126897,-0.064645,9.862018,-0.028844,-0.038235,0.380209,4.8,-3.06,-48.12,237.6778,-0.3512,0.864,55.814037,37.500305,219.5765,0,847
-0.026337,-0.074223,9.888355,-0.018459,-0.02785,0.392427,4.8,-3.06,-48.12,237.6778,-0.3512,0.864,55.814037,37.500305,219.5765,0,858
-0.026337,-0.074223,9.888355,0.005365,0.001472,0.404033,4.8,-3.3,-48.42,237.6143,-0.3237,0.833,55.814037,37.500305,219.5765,0,868
-0.081405,0.007183,9.821315,0.018193,0.021019,0.418083,4.8,-3.3,-48.42,237.6143,-0.3237,0.833,55.814037,37.500305,219.5765,0,878
-0.256187,0.124502,9.783007,0.012695,0.020408,0.432744,4.8,-3.3,-48.78,237.6143,-0.3237,0.833,55.814037,37.500305,219.5765,0,887
-0.373507,0.177176,9.778218,-0.001966,0.008802,0.452291,4.8,-3.3,-48.78,237.6143,-0.3237,0.833,55.814037,37.500305,219.5765,0,898
-0.383084,0.155628,9.780613,-0.016627,-0.008302,0.462676,4.92,-3.24,-48.78,237.7602,-0.3376,0.8201,55.814037,37.500305,219.5765,0,908
-0.383084,0.155628,9.780613,-0.027011,-0.02052,0.477337,4.92,-3.24,-48.78,237.7602,-0.3376,0.8201,55.814037,37.500305,219.5765,0,918
-0.256187,0.035914,9.797373,-0.02579,-0.02785,0.485278,4.8,-3,-48.12,237.7602,-0.3376,0.8201,55.814037,37.500305,219.5765,0,928
-0.136474,-0.040703,9.857229,-0.020292,-0.029072,0.496274,4.8,-3,-48.12,237.7602,-0.3376,0.8201,55.814037,37.500305,219.5765,0,938
-0.079011,-0.059857,9.845258,-0.008074,-0.014411,0.504826,4.62,-3,-48.36,237.7854,-0.3273,0.8046,55.814037,37.500305,219.5765,0,948
-0.079011,-0.059857,9.845258,-0.000744,-0.010135,0.511545,4.62,-3,-48.36,237.7854,-0.3273,0.8046,55.814037,37.500305,219.5765,0,958
-0.06704,-0.01676,9.823709,0.00231,-0.007081,0.511545,5.1,-3,-49.02,237.7854,-0.3273,0.8046,55.814037,37.500305,219.5765,0,967
-0.090982,0.059857,9.783007,-0.002577,-0.00647,0.517043,5.1,-3,-49.02,237.7854,-0.3273,0.8046,55.814037,37.500305,219.5765,0,978
-0.122108,0.0838,9.778218,-0.010518,-0.004637,0.519487,5.46,-3.3,-48.54,237.8904,-0.315,0.7587,55.814037,37.500305,219.5765,0,987
-0.167599,0.05028,9.778218,-0.017237,-0.004637,0.526206,5.46,-3.3,-48.54,237.8904,-0.315,0.7587,55.814037,37.500305,219.5765,0,998
-0.167599,0.05028,9.778218,-0.017237,-0.004637,0.526206,5.46,-3.3,-48.54,237.8904,-0.315,0.7587,55.814037,37.500305,219.5765,0,1008
-0.174782,0.007183,9.845258,-0.019681,-0.010746,0.529871,5.52,-3.66,-48.66,237.8904,-0.315,0.7587,55.814037,37.500305,219.5765,0,1017
-0.150839,-0.03352,9.845258,-0.01235,-0.012578,0.533536,5.46,-3.48,-49.14,237.9755,-0.3144,0.7409,55.814037,37.500305,219.5765,0,1028
-0.10056,-0.03352,9.80695,-0.008074,-0.012578,0.536591,5.46,-3.48,-49.14,237.9755,-0.3144,0.7409,55.814037,37.500305,219.5765,0,1038
-0.10056,-0.03352,9.80695,-0.006853,-0.02052,0.536591,4.86,-3.66,-48.06,237.9755,-0.3144,0.7409,55.814037,37.500305,219.5765,0,1048
-0.019154,-0.021548,9.792584,-0.006242,-0.018076,0.535369,4.86,-3.66,-48.06,237.9755,-0.3144,0.7409,55.814037,37.500305,219.5765,0,1058
0.021548,0.01676,9.840469,-0.005631,-0.010135,0.538423,4.38,-3.12,-47.82,231.2805,-0.2963,0.6776,55.814037,37.500305,219.5765,0,1067
-0.040703,0.064645,9.821315,-0.003798,0.010024,0.53598,4.38,-3.12,-47.82,231.2805,-0.2963,0.6776,55.814037,37.500305,219.5765,0,1078
-0.146051,0.064645,9.749487,-0.007464,0.009413,0.540867,4.62,-2.82,-48.12,231.2805,-0.2963,0.6776,55.814037,37.500305,219.5765,0,1087
-0.146051,0.064645,9.749487,-0.017237,-0.008302,0.544532,4.62,-2.82,-48.12,231.2805,-0.2963,0.6776,55.814037,37.500305,219.5765,0,1098
-0.225062,0.047885,9.799767,-0.022124,-0.015633,0.545143,4.32,-3.42,-48.12,231.2651,-0.2797,0.6592,55.814037,37.500305,219.5765,0,1108
-0.181965,-0.01676,9.854836,-0.018459,-0.015022,0.547586,4.32,-3.42,-48.12,231.2651,-0.2797,0.6592,55.814037,37.500305,219.5765,0,1118
-0.129291,-0.055068,9.830893,-0.018459,-0.015022,0.547586,4.32,-3.42,-48.12,231.2651,-0.2797,0.6592,55.814037,37.500305,219.5765,0,1128
-0.059857,-0.03352,9.809344,-0.01174,-0.016854,0.550641,4.2,-4.08,-48.84,231.2651,-0.2797,0.6592,55.814037,37.500305,219.5765,0,1138
0.004789,-0.028731,9.842864,-0.006242,-0.02052,0.551862,4.38,-4.86,-48.84,215.5324,-0.214,0.6547,55.814037,37.500305,219.5765,0,1148
0.004789,-0.028731,9.842864,-0.002577,-0.015633,0.552473,4.38,-4.86,-48.84,215.5324,-0.214,0.6547,55.814037,37.500305,219.5765,0,1158
-0.007183,0.007183,9.814133,-0.000744,-0.005248,0.554917,4.5,-4.32,-48.3,215.5324,-0.214,0.6547,55.814037,37.500305,219.5765,0,1168
-0.081405,0.052674,9.809344,-0.004409,0.000861,0.557971,4.5,-4.32,-48.3,215.5324,-0.214,0.6547,55.814037,37.500305,219.5765,0,1178
-0.150839,0.06704,9.802161,-0.00502,0.003304,0.559804,4.8,-3.6,-48.36,229.1324,-0.1445,0.6169,55.814037,37.500305,219.5765,0,1188
-0.150839,0.06704,9.802161,-0.011129,0.002082,0.567134,4.8,-3.6,-48.36,229.1324,-0.1445,0.6169,55.814037,37.500305,219.5765,0,1198
-0.203513,0.031126,9.797373,-0.017237,-0.010135,0.564691,3.9,-4.2,-48.66,229.1324,-0.1445,0.6169,55.814037,37.500305,219.5765,0,1208
-0.150839,-0.009577,9.842864,-0.020903,-0.022963,0.568967,3.9,-4.2,-48.66,229.1324,-0.1445,0.6169,55.814037,37.500305,219.5765,0,1218
-0.03352,-0.047885,9.826104,-0.013572,-0.02052,0.572632,3.18,-4.08,-49.32,212.7654,-0.1172,0.573,55.814037,37.500305,219.5765,0,1228
-0.03352,-0.047885,9.826104,-0.008074,-0.011357,0.573243,3.18,-4.08,-49.32,212.7654,-0.1172,0.573,55.814037,37.500305,219.5765,0,1237
-0.03352,-0.014366,9.809344,-0.008074,-0.011357,0.573243,3.18,-4.08,-49.32,212.7654,-0.1172,0.573,55.814037,37.500305,219.5765,0,1248
-0.10056,0.002394,9.830893,-0.00502,-0.002194,0.576297,4.2,-3.54,-48.6,212.7654,-0.1172,0.573,55.814037,37.500305,219.5765,0,1257
-0.131685,0.035914,9.818921,-0.005631,-0.005248,0.580573,4.86,-3.54,-47.88,229.0866,-0.0619,0.5302,55.814037,37.500305,219.5765,0,1268
-0.131685,0.035914,9.818921,-0.01174,-0.011967,0.581184,4.86,-3.54,-47.88,229.0866,-0.0619,0.5302,55.814037,37.500305,219.5765,0,1278
-0.088588,0.026337,9.783007,-0.020292,-0.025406,0.576908,4.74,-3.48,-48,229.0866,-0.0619,0.5302,55.814037,37.500305,219.5765,0,1287
-0.019154,-0.026337,9.821315,-0.019681,-0.022963,0.578741,4.74,-3.48,-48,229.0866,-0.0619,0.5302,55.814037,37.500305,219.5765,0,1298
0.038308,-0.079011,9.833286,-0.016627,-0.014411,0.578741,4.92,-3.72,-47.76,229.0765,-0.0526,0.5213,55.814037,37.500305,219.5765,0,1308
0.014366,-0.076617,9.842864,-0.008074,-0.005859,0.576297,4.92,-3.72,-47.76,229.0765,-0.0526,0.5213,55.814037,37.500305,219.5765,0,1318
0.014366,-0.076617,9.842864,-0.002577,-0.003415,0.576908,4.74,-4.62,-47.34,229.0765,-0.0526,0.5213,55.814037,37.500305,219.5765,0,1328
-0.035914,-0.059857,9.835681,0.00231,-0.005248,0.576908,4.74,-4.62,-47.34,229.0765,-0.0526,0.5213,55.814037,37.500305,219.5765,0,1337
-0.071828,0.004789,9.821315,0.00231,-0.005248,0.576908,4.74,-4.62,-47.34,229.0765,-0.0526,0.5213,55.814037,37.500305,219.5765,0,1347
-0.05028,0.057463,9.799767,0.001089,-0.00647,0.574464,4.56,-4.74,-47.94,222.8011,0.0022,0.4392,55.814037,37.500305,219.5765,0,1358
-0.074223,0.076617,9.79019,-0.008074,-0.008913,0.575686,4.5,-4.62,-48.24,222.8011,0.0022,0.4392,55.814037,37.500305,219.5765,0,1368
-0.074223,0.076617,9.79019,-0.014794,-0.00647,0.578741,4.5,-4.62,-48.24,222.8011,0.0022,0.4392,55.814037,37.500305,219.5765,0,1377
-0.110137,0.021548,9.787795,-0.021513,-0.008913,0.581184,3.54,-4.56,-48,216.2956,0.0341,0.3661,55.814037,37.500305,219.5765,0,1388
-0.148445,-0.011971,9.823709,-0.020292,-0.008302,0.583627,3.54,-4.56,-48,216.2956,0.0341,0.3661,55.814037,37.500305,219.5765,0,1398
-0.129291,-0.090982,9.816526,-0.023957,-0.016244,0.584238,3.48,-4.74,-48.6,216.2956,0.0341,0.3661,55.814037,37.500305,219.5765,0,1408
0.004789,-0.131685,9.792584,-0.016627,-0.031515,0.581184,3.48,-4.74,-48.6,216.2956,0.0341,0.3661,55.814037,37.500305,219.5765,0,1418
0.004789,-0.131685,9.792584,-0.003187,-0.028461,0.576297,3.36,-5.34,-48.42,208.1011,0.0663,0.3586,55.814037,37.500305,219.5765,0,1428
0.124502,-0.102954,9.914692,0.008419,0.003304,0.576908,3.36,-5.34,-48.42,208.1011,0.0663,0.3586,55.814037,37.500305,219.5765,0,1438
0.079011,0.002394,9.766247,0.009641,0.018576,0.578741,3.18,-5.16,-48.6,208.1011,0.0663,0.3586,55.814037,37.500305,219.5765,0,1448
-0.081405,0.088588,9.72315,-0.002577,0.015521,0.583627,3.18,-5.16,-48.6,208.1011,0.0663,0.3586,55.814037,37.500305,219.5765,0,1458
-0.081405,0.088588,9.72315,-0.002577,0.015521,0.583627,3.78,-4.98,-49.02,216.4617,0.0955,0.2864,55.814037,37.500305,219.5765,0,1468
-0.232245,0.071828,9.857229,-0.019681,-0.005248,0.584238,3.78,-4.98,-49.02,216.4617,0.0955,0.2864,55.814037,37.500305,219.5765,0,1478
-0.193936,0.004789,9.80695,-0.023957,-0.018076,0.587903,3.9,-5.1,-48.96,216.4617,0.0955,0.2864,55.814037,37.500305,219.5765,0,1488
-0.019154,-0.079011,9.809344,-0.023957,-0.029683,0.58546,3.9,-5.1,-48.96,216.4617,0.0955,0.2864,55.814037,37.500305,219.5765,0,1498
-0.019154,-0.079011,9.809344,-0.01907,-0.032126,0.586682,3.66,-5.28,-48.66,216.4461,0.0887,0.2939,55.814037,37.500305,219.5765,0,1508
0.06704,-0.090982,9.866806,-0.007464,-0.016244,0.589125,3.66,-5.28,-48.66,216.4461,0.0887,0.2939,55.814037,37.500305,219.5765,0,1518
0.011971,-0.062251,9.830893,0.001089,0.003915,0.588514,3.78,-5.16,-48.48,216.4461,0.0887,0.2939,55.814037,37.500305,219.5765,0,1527
-0.079011,0.007183,9.799767,-0.001966,0.00025,0.590347,3.78,-5.16,-48.48,216.4461,0.0887,0.2939,55.814037,37.500305,219.5765,0,1538
-0.079011,0.007183,9.799767,-0.005631,-0.005859,0.590958,3.78,-5.16,-48.48,216.4461,0.0887,0.2939,55.814037,37.500305,219.5765,0,1548
-0.117319,0.040703,9.79019,-0.014794,-0.012578,0.589125,4.14,-5.1,-48.66,216.4776,0.1186,0.2668,55.814037,37.500305,219.5765,0,1557
-0.093377,0.004789,9.792584,-0.018459,-0.018687,0.588514,3.3,-5.22,-48.66,216.4776,0.1186,0.2668,55.814037,37.500305,219.5765,0,1568
-0.002394,-0.028731,9.833286,-0.018459,-0.024185,0.584849,3.3,-5.22,-48.66,216.4776,0.1186,0.2668,55.814037,37.500305,219.5765,0,1577
-0.002394,-0.028731,9.833286,-0.019681,-0.019909,0.581184,2.94,-4.92,-48.66,208.5414,0.1316,0.2564,55.814037,37.500305,219.5765,0,1588
0.0838,-0.055068,9.838076,-0.014183,-0.016854,0.576297,2.94,-4.92,-48.66,208.5414,0.1316,0.2564,55.814037,37.500305,219.5765,0,1598
0.110137,-0.071828,9.840469,-0.012961,-0.007081,0.567134,3.06,-5.16,-48.84,208.5414,0.1316,0.2564,55.814037,37.500305,219.5765,0,1607
0.031126,-0.090982,9.830893,-0.01235,0.000861,0.565912,3.06,-5.16,-48.84,208.5414,0.1316,0.2564,55.814037,37.500305,219.5765,0,1617
0.031126,-0.090982,9.830893,-0.01235,0.000861,0.565912,3.42,-5.22,-48.54,208.7354,0.1546,0.2176,55.814037,37.500305,219.5765,0,1628
0.002394,-0.10056,9.794978,-0.014183,-0.008913,0.55736,3.42,-5.22,-48.54,208.7354,0.1546,0.2176,55.814037,37.500305,219.5765,0,1638
0.023943,-0.102954,9.842864,-0.011129,-0.019909,0.548197,3.42,-5.22,-48.54,208.7354,0.1546,0.2176,55.814037,37.500305,219.5765,0,1647
0.043097,-0.081405,9.818921,-0.004409,-0.014411,0.542699,3.96,-5.22,-48.42,208.7354,0.1546,0.2176,55.814037,37.500305,219.5765,0,1658
0.043097,-0.081405,9.818921,-0.001355,-0.011967,0.536591,3.96,-5.22,-48.42,208.7354,0.1546,0.2176,55.814037,37.500305,219.5765,0,1668
0.055068,-0.047885,9.814133,-0.005631,-0.008913,0.528039,3.48,-5.28,-49.32,209.1317,0.2177,0.1282,55.814037,37.500305,219.5765,0,1677
0.009577,0,9.862018,-0.00502,-0.010135,0.523152,3.06,-5.04,-48.96,209.1317,0.2177,0.1282,55.814037,37.500305,219.5765,0,1688
0.023943,0.01676,9.778218,-0.004409,-0.011967,0.515821,3.06,-5.04,-48.96,209.1317,0.2177,0.1282,55.814037,37.500305,219.5765,0,1698
0.090982,0.01676,9.761458,-0.008074,-0.018076,0.509102,2.64,-5.4,-48.6,209.8698,0.259,0.0014,55.814037,37.500305,219.5765,0,1708
0.090982,0.01676,9.761458,-0.020292,-0.015633,0.505437,2.64,-5.4,-48.6,209.8698,0.259,0.0014,55.814037,37.500305,219.5765,0,1718
0.088588,-0.055068,9.830893,-0.027011,-0.002804,0.499939,2.58,-5.4,-49.44,209.8698,0.259,0.0014,55.814037,37.500305,219.5765,0,1728
0.009577,-0.122108,9.826104,-0.015405,0.00025,0.501161,2.58,-5.4,-49.44,209.8698,0.259,0.0014,55.814037,37.500305,219.5765,0,1737
0.009577,-0.122108,9.826104,-0.015405,0.00025,0.501161,2.58,-5.4,-49.44,209.8698,0.259,0.0014,55.814037,37.500305,219.5765,0,1747
-0.052674,-0.138868,9.835681,-0.003798,-0.004026,0.499328,2.94,-5.46,-49.8,210.2634,0.2536,-0.0533,55.814037,37.500305,219.5765,0,1758
-0.045491,-0.10056,9.830893,0.004754,-0.015022,0.496274,2.28,-5.16,-49.5,210.2634,0.2536,-0.0533,55.814037,37.500305,219.5765,0,1768
-0.007183,-0.021548,9.816526,0.004754,-0.017465,0.499328,2.28,-5.16,-49.5,210.2634,0.2536,-0.0533,55.814037,37.500305,219.5765,0,1778
-0.007183,-0.021548,9.816526,0.001699,-0.015022,0.502382,1.74,-4.98,-49.14,201.4781,0.2887,-0.0754,55.814037,37.500305,219.5765,0,1787
0.026337,0.038308,9.802161,-0.000133,-0.009524,0.505437,1.74,-4.98,-49.14,201.4781,0.2887,-0.0754,55.814037,37.500305,219.5765,0,1798
-0.009577,0.055068,9.792584,-0.003798,-0.001583,0.508491,2.16,-5.7,-49.32,201.4781,0.2887,-0.0754,55.814037,37.500305,219.5765,0,1808
-0.059857,0.014366,9.814133,-0.019681,-0.007081,0.511545,2.16,-5.7,-49.32,201.4781,0.2887,-0.0754,55.814037,37.500305,219.5765,0,1818
-0.059857,0.014366,9.814133,-0.024568,-0.011967,0.517654,2.7,-5.7,-49.14,206.1101,0.293,-0.0742,55.814037,37.500305,219.5765,0,1827
-0.071828,-0.059857,9.828498,-0.01907,-0.016244,0.521319,2.7,-5.7,-49.14,206.1101,0.293,-0.0742,55.814037,37.500305,219.5765,0,1838
-0.040703,-0.088588,9.859624,-0.013572,-0.016854,0.523152,2.94,-5.64,-48.96,206.1101,0.293,-0.0742,55.814037,37.500305,219.5765,0,1849
0.014366,-0.081405,9.823709,-0.008074,-0.015633,0.524984,2.94,-5.64,-48.96,206.1101,0.293,-0.0742,55.814037,37.500305,219.5765,0,1858
0.035914,-0.055068,9.821315,-0.002577,-0.014411,0.526206,2.4,-5.52,-48.6,197.8331,0.2736,-0.0064,55.814037,37.500305,219.5765,0,1868
0.043097,-0.004789,9.828498,-0.003798,-0.011357,0.528649,2.4,-5.52,-48.6,197.8331,0.2736,-0.0064,55.814037,37.500305,219.5765,0,1878
0.043097,-0.004789,9.828498,-0.008074,-0.004026,0.534147,1.98,-5.58,-48.12,197.8331,0.2736,-0.0064,55.814037,37.500305,219.5765,0,1888
0.009577,0.021548,9.797373,-0.008074,-0.004026,0.534147,1.98,-5.58,-48.12,197.8331,0.2736,-0.0064,55.814037,37.500305,219.5765,0,1897
-0.028731,-0.002394,9.768641,-0.016627,-0.004637,0.539645,1.8,-6.06,-48.84,197.8585,0.2761,-0.0108,55.814037,37.500305,219.5765,0,1908
-0.03352,-0.107742,9.814133,-0.024568,-0.010746,0.541478,1.8,-6.06,-48.84,197.8585,0.2761,-0.0108,55.814037,37.500305,219.5765,0,1918
0.01676,-0.169993,9.871595,-0.024568,-0.022963,0.539645,1.38,-6.06,-48.9,197.8585,0.2761,-0.0108,55.814037,37.500305,219.5765,0,1928
0.01676,-0.169993,9.871595,-0.016016,-0.018076,0.545754,1.38,-6.06,-48.9,197.8585,0.2761,-0.0108,55.814037,37.500305,219.5765,0,1938
0.03352,-0.165205,9.866806,-0.000133,-0.011967,0.547586,1.56,-6.18,-48.66,197.7797,0.2916,-0.0047,55.814037,37.500305,219.5765,0,1948
-0.004789,-0.107742,9.802161,0.007197,-0.003415,0.55736,1.56,-6.18,-48.66,197.7797,0.2916,-0.0047,55.814037,37.500305,219.5765,0,1957
-0.098165,-0.007183,9.787795,0.008419,0.001472,0.567134,1.5,-6.18,-49.14,197.7797,0.2916,-0.0047,55.814037,37.500305,219.5765,0,1968
-0.098165,-0.007183,9.787795,0.004143,-0.001583,0.576297,1.5,-6.18,-49.14,197.7797,0.2916,-0.0047,55.814037,37.500305,219.5765,0,1978
-0.155628,0.052674,9.783007,-0.009907,-0.015022,0.58546,1.68,-6.12,-48.78,197.6336,0.3583,-0.0053,55.814037,37.500305,219.5765,0,1987
-0.062251,-0.002394,9.787795,-0.021513,-0.024796,0.598288,1.68,-6.12,-48.78,197.6336,0.3583,-0.0053,55.814037,37.500305,219.5765,0,1997
0.01676,-0.06704,9.828498,-0.020292,-0.021741,0.605008,2.28,-5.94,-48.84,197.6336,0.3583,-0.0053,55.814037,37.500305,219.5765,0,2008
0.01676,-0.06704,9.828498,-0.017237,-0.0138,0.61356,2.28,-5.94,-48.84,197.6336,0.3583,-0.0053,55.814037,37.500305,219.5765,0,2018
0.299284,-0.150839,9.883567,-0.03312,-0.027239,0.601342,2.34,-5.82,-48.3,197.1302,0.3424,0.0744,55.814037,37.500305,219.5765,0,2028
0.706311,-0.311256,9.862018,-0.03312,-0.027239,0.601342,2.34,-5.82,-48.3,197.1302,0.3424,0.0744,55.814037,37.500305,219.5765,0,2038
0.043097,-0.105348,9.873989,0.002921,0.035069,0.601342,1.68,-5.94,-48.6,197.1302,0.3424,0.0744,55.814037,37.500305,219.5765,0,2048
0.043097,-0.105348,9.873989,0.054234,0.110816,0.616614,1.68,-5.94,-48.6,197.1302,0.3424,0.0744,55.814037,37.500305,219.5765,0,2058
-0.265764,-0.026337,9.797373,0.020636,0.079662,0.62761,1.38,-6.24,-50.34,189.2417,0.3965,-0.0373,55.814037,37.500305,219.5765,0,2068
-0.94095,0.169994,9.668081,0.000478,0.018576,0.641049,1.38,-6.24,-50.34,189.2417,0.3965,-0.0373,55.814037,37.500305,219.5765,0,2077
-0.818842,0.167599,9.907509,-0.009296,-0.02785,0.653877,1.5,-5.22,-50.52,189.2417,0.3965,-0.0373,55.814037,37.500305,219.5765,0,2088
-0.177176,0.069434,9.696813,-0.029455,-0.086493,0.659375,1.5,-5.22,-50.52,189.2417,0.3965,-0.0373,55.814037,37.500305,219.5765,0,2098
-0.177176,0.069434,9.696813,-0.045337,-0.123145,0.659986,1.2,-4.92,-49.26,190.5988,0.4017,0.0001,55.814037,37.500305,219.5765,0,2107
0.569837,-0.148445,9.768641,-0.034952,-0.069389,0.661207,1.2,-4.92,-49.26,190.5988,0.4017,0.0001,55.814037,37.500305,219.5765,0,2118
0.67758,-0.196331,9.967366,-0.008074,0.025906,0.658764,0.66,-5.88,-48.48,190.5988,0.4017,0.0001,55.814037,37.500305,219.5765,0,2128
0.282524,-0.160416,9.77343,-0.006242,0.071721,0.659986,0.66,-5.88,-48.48,190.5988,0.4017,0.0001,55.814037,37.500305,219.5765,0,2139
0.282524,-0.160416,9.77343,-0.006242,0.071721,0.659986,0.66,-5.88,-48.48,190.5988,0.4017,0.0001,55.814037,37.500305,219.5765,0,2147
-0.272947,-0.105348,9.771035,-0.006242,0.027128,0.656931,0.96,-5.94,-49.32,190.1312,0.4704,-0.1684,55.814037,37.500305,219.5765,0,2157
-0.272947,-0.105348,9.771035,-0.006242,0.027128,0.656931,0.96,-5.94,-49.32,190.1312,0.4704,-0.1684,55.814037,37.500305,219.5765,0,2168
-0.337593,-0.10056,9.802161,-0.006242,0.021019,0.664262,0.84,-5.82,-49.02,190.1312,0.4704,-0.1684,55.814037,37.500305,219.5765,0,2178
0.222668,-0.22985,9.816526,-0.013572,-0.065724,0.681366,1.44,-5.76,-49.14,189.4051,0.4843,-0.073,55.814037,37.500305,219.5765,0,2188
0.222668,-0.22985,9.816526,0.015749,-0.022963,0.686253,1.44,-5.76,-49.14,189.4051,0.4843,-0.073,55.814037,37.500305,219.5765,0,2197
0.366324,-0.143656,9.929058,0.024912,0.032015,0.690529,1.32,-6.18,-49.56,189.4051,0.4843,-0.073,55.814037,37.500305,219.5765,0,2208
0.160416,0.011971,9.771035,0.024912,0.038123,0.694805,1.32,-6.18,-49.56,189.4051,0.4843,-0.073,55.814037,37.500305,219.5765,0,2218
-0.134079,0.098165,9.711179,0.008419,0.038123,0.694805,0.96,-6.54,-49.5,188.663,0.5138,-0.156,55.814037,37.500305,219.5765,0,2228
-0.320833,0.074223,9.787795,-0.016627,0.011245,0.703968,0.96,-6.54,-49.5,188.663,0.5138,-0.156,55.814037,37.500305,219.5765,0,2237
-0.24661,-0.023943,9.799767,-0.032509,-0.015633,0.708855,1.26,-6.18,-49.2,188.663,0.5138,-0.156,55.814037,37.500305,219.5765,0,2248
-0.24661,-0.023943,9.799767,-0.041672,-0.0419,0.711298,1.26,-6.18,-49.2,188.663,0.5138,-0.156,55.814037,37.500305,219.5765,0,2258
0.004789,-0.203513,9.828498,-0.034952,-0.043732,0.721683,0.84,-6.06,-49.32,189.4722,0.5121,-0.0866,55.814037,37.500305,219.5765,0,2267
0.122108,-0.265764,9.847652,-0.020903,-0.028461,0.721683,0.84,-6.06,-49.32,189.4722,0.5121,-0.0866,55.814037,37.500305,219.5765,0,2278
0.155628,-0.217879,9.873989,-0.002577,-0.010746,0.720461,0.48,-6.3,-49.5,189.4722,0.5121,-0.0866,55.814037,37.500305,219.5765,0,2287
0.155628,-0.217879,9.873989,0.011473,-0.002804,0.727181,0.48,-6.3,-49.5,189.4722,0.5121,-0.0866,55.814037,37.500305,219.5765,0,2298
0.098165,-0.138868,9.835681,0.007808,0.00025,0.7339,0.66,-6.36,-49.32,189.8124,0.5907,-0.1462,55.814037,37.500305,219.5765,0,2308
-0.035914,-0.014366,9.775824,-0.001966,0.002693,0.741842,0.66,-6.36,-49.32,189.8124,0.5907,-0.1462,55.814037,37.500305,219.5765,0,2318
-0.134079,0.01676,9.751882,-0.016627,-0.001583,0.744896,0.78,-6.36,-49.2,189.8124,0.5907,-0.1462,55.814037,37.500305,219.5765,0,2328
-0.150839,-0.03352,9.747093,-0.023957,-0.010135,0.751004,0.78,-6.36,-49.2,189.8124,0.5907,-0.1462,55.814037,37.500305,219.5765,0,2338
-0.150839,-0.03352,9.747093,-0.031898,-0.030293,0.760778,0.42,-6.18,-49.5,181.0112,0.5862,-0.1342,55.814037,37.500305,219.5765,0,2348
-0.026337,-0.162811,9.847652,-0.031898,-0.033348,0.767498,0.42,-6.18,-49.5,181.0112,0.5862,-0.1342,55.814037,37.500305,219.5765,0,2358
0.090982,-0.22985,9.881172,-0.022735,-0.022352,0.772385,0,-6.9,-49.62,181.0112,0.5862,-0.1342,55.814037,37.500305,219.5765,0,2368
0.105348,-0.244216,9.845258,-0.008074,-0.005248,0.779104,0,-6.9,-49.62,181.0112,0.5862,-0.1342,55.814037,37.500305,219.5765,0,2377
0.105348,-0.244216,9.845258,-0.008074,-0.005248,0.779104,0.3,-7.32,-49.14,180.3993,0.6117,-0.0613,55.814037,37.500305,219.5765,0,2388
0.026337,-0.191542,9.818921,0.003532,-0.001583,0.779715,0.3,-7.32,-49.14,180.3993,0.6117,-0.0613,55.814037,37.500305,219.5765,0,2397
-0.057463,-0.062251,9.814133,0.005365,-0.004637,0.787046,0.12,-6.9,-48.78,180.3993,0.6117,-0.0613,55.814037,37.500305,219.5765,0,2408
-0.004789,0.01676,9.775824,-0.003798,-0.010746,0.79743,0.12,-6.9,-48.78,180.3993,0.6117,-0.0613,55.814037,37.500305,219.5765,0,2418
-0.004789,0.01676,9.775824,-0.017237,-0.038235,0.80415,-0.6,-7.26,-49.08,172.7374,0.6831,-0.0392,55.814037,37.500305,219.5765,0,2427
0.306467,-0.160416,9.816526,-0.045337,-0.037624,0.801706,-0.6,-7.26,-49.08,172.7374,0.6831,-0.0392,55.814037,37.500305,219.5765,0,2438
0.174782,-0.234639,9.828498,-0.030676,0.005748,0.804761,-0.6,-7.26,-49.08,172.7374,0.6831,-0.0392,55.814037,37.500305,219.5765,0,2448
-0.059857,-0.253793,9.883567,-0.006242,0.039956,0.809037,-0.66,-6.96,-49.26,172.7374,0.6831,-0.0392,55.814037,37.500305,219.5765,0,2458
-0.36393,-0.21309,9.780613,-0.014183,0.024074,0.820032,-0.42,-6.96,-49.56,180.6033,0.7586,-0.0924,55.814037,37.500305,219.5765,0,2468
-0.36393,-0.21309,9.780613,-0.008685,-0.016244,0.823697,-0.42,-6.96,-49.56,180.6033,0.7586,-0.0924,55.814037,37.500305,219.5765,0,2478
-0.344776,-0.177176,9.888355,-0.000133,-0.038235,0.824919,-0.18,-7.26,-49.44,180.6033,0.7586,-0.0924,55.814037,37.500305,219.5765,0,2487
-0.023943,-0.122108,9.778218,0.004143,-0.067556,0.824308,-0.18,-7.26,-49.44,180.6033,0.7586,-0.0924,55.814037,37.500305,219.5765,0,2500
0.337593,-0.093377,9.747093,-0.003187,-0.042511,0.826752,0.12,-7.44,-48.54,180.1198,0.8141,-0.0188,55.814037,37.500305,219.5765,0,2508
0.34717,0.002394,9.840469,-0.003187,-0.042511,0.826752,0.12,-7.44,-48.54,180.1198,0.8141,-0.0188,55.814037,37.500305,219.5765,0,2517
0.107742,0.004789,9.780613,-0.016016,0.043621,0.829806,-0.24,-7.14,-49.14,180.1198,0.8141,-0.0188,55.814037,37.500305,219.5765,0,2528
0.107742,0.004789,9.780613,-0.016016,0.043621,0.829806,-0.24,-7.14,-49.14,180.1198,0.8141,-0.0188,55.814037,37.500305,219.5765,0,2537
-0.205908,-0.143656,9.694419,-0.041672,0.003915,0.837747,-1.14,-6.48,-49.5,171.7976,0.8338,-0.0379,55.814037,37.500305,219.5765,0,2548
-0.107742,-0.342381,9.909904,-0.057555,-0.034569,0.844467,-1.14,-6.48,-49.5,171.7976,0.8338,-0.0379,55.814037,37.500305,219.5765,0,2558
-0.107742,-0.342381,9.909904,-0.049613,-0.041289,0.848132,-1.14,-6.48,-49.5,171.7976,0.8338,-0.0379,55.814037,37.500305,219.5765,0,2568
0.184359,-0.56026,9.883567,-0.027622,-0.037624,0.845689,-1.26,-7.02,-49.5,171.7976,0.8338,-0.0379,55.814037,37.500305,219.5765,0,2577
0.289707,-0.555472,9.890749,0.017582,-0.011967,0.838358,-1.26,-7.02,-49.5,171.7976,0.8338,-0.0379,55.814037,37.500305,219.5765,0,2587
0.165205,-0.268159,9.895537,0.059732,0.022241,0.831028,-0.9,-7.32,-49.62,173.0308,0.845,-0.0622,55.814037,37.500305,219.5765,0,2598
0.03352,-0.011971,9.715967,0.057899,0.024684,0.820032,-0.72,-6.66,-50.04,173.0308,0.845,-0.0622,55.814037,37.500305,219.5765,0,2608
0.03352,-0.011971,9.715967,0.033464,-0.004637,0.805371,-0.72,-6.66,-50.04,173.0308,0.845,-0.0622,55.814037,37.500305,219.5765,0,2618
-0.05028,0.201119,9.761458,0.002921,-0.019298,0.799874,-0.84,-7.08,-50.52,173.6101,1.0046,-0.1304,55.814037,37.500305,219.5765,0,2628
0.026337,0.234639,9.701602,-0.021513,-0.029683,0.785213,-0.84,-7.08,-50.52,173.6101,1.0046,-0.1304,55.814037,37.500305,219.5765,0,2638
0.249005,0.045491,9.672871,-0.0545,-0.039456,0.778493,-1.02,-7.08,-49.92,173.6101,1.0046,-0.1304,55.814037,37.500305,219.5765,0,2648
0.249005,0.045491,9.672871,-0.069772,-0.030904,0.765054,-1.02,-7.08,-49.92,173.6101,1.0046,-0.1304,55.814037,37.500305,219.5765,0,2658
0.275342,-0.241822,9.852441,-0.06122,0.010024,0.763833,-1.5,-6.84,-50.1,173.5073,0.9807,-0.1216,55.814037,37.500305,219.5765,0,2668
0.076617,-0.421392,9.924269,-0.032509,0.0143,0.761389,-1.5,-6.84,-50.1,173.5073,0.9807,-0.1216,55.814037,37.500305,219.5765,0,2678
-0.069434,-0.481249,9.857229,-0.032509,0.0143,0.761389,-1.5,-6.84,-50.1,173.5073,0.9807,-0.1216,55.814037,37.500305,219.5765,0,2688
-0.134079,-0.402238,9.883567,-0.011129,-0.009524,0.756502,-1.38,-7.62,-49.5,173.5073,0.9807,-0.1216,55.814037,37.500305,219.5765,0,2697
-0.134079,-0.402238,9.883567,0.015138,-0.029072,0.758335,-1.5,-7.44,-48.84,173.5112,1.1136,-0.1119,55.814037,37.500305,219.5765,0,2708
-0.03352,-0.251399,9.835681,0.024912,-0.028461,0.758335,-1.5,-7.44,-48.84,173.5112,1.1136,-0.1119,55.814037,37.500305,219.5765,0,2717
0.090982,-0.090982,9.754275,0.015138,-0.02785,0.759557,-2.1,-7.5,-49.02,173.5112,1.1136,-0.1119,55.814037,37.500305,219.5765,0,2728
0.172388,0,9.771035,0.003532,-0.024185,0.755891,-2.1,-7.5,-49.02,173.5112,1.1136,-0.1119,55.814037,37.500305,219.5765,0,2738
0.21309,-0.019154,9.744699,-0.015405,-0.015633,0.758335,-2.4,-8.34,-49.32,168.0302,1.1004,-0.1225,55.814037,37.500305,219.5765,0,2747
0.21309,-0.019154,9.744699,-0.028233,-0.009524,0.753448,-2.4,-8.34,-49.32,168.0302,1.1004,-0.1225,55.814037,37.500305,219.5765,0,2758
0.143657,-0.10056,9.759064,-0.039839,-0.00647,0.751615,-2.88,-8.34,-50.04,168.0302,1.1004,-0.1225,55.814037,37.500305,219.5765,0,2768
0.055068,-0.222668,9.828498,-0.041061,-0.003415,0.751004,-2.88,-8.34,-50.04,168.0302,1.1004,-0.1225,55.814037,37.500305,219.5765,0,2778
-0.009577,-0.337593,9.864412,-0.034342,-0.007691,0.751615,-3.06,-7.56,-49.26,162.148,1.1309,-0.1315,55.814037,37.500305,219.5765,0,2788
0.167599,-0.469278,9.852441,-0.02579,-0.026017,0.74795,-3.06,-7.56,-49.26,162.148,1.1309,-0.1315,55.814037,37.500305,219.5765,0,2798
0.167599,-0.469278,9.852441,-0.004409,-0.026017,0.743674,-3.36,-6.96,-48.72,162.148,1.1309,-0.1315,55.814037,37.500305,219.5765,0,2808
0.270553,-0.457306,9.909904,0.021247,0.000861,0.742452,-3.36,-6.96,-48.72,162.148,1.1309,-0.1315,55.814037,37.500305,219.5765,0,2818
0.186753,-0.337593,9.869201,0.042627,0.033847,0.743063,-3.48,-6.6,-49.5,160.168,1.2113,-0.1197,55.814037,37.500305,219.5765,0,2827
0.014366,-0.146051,9.720756,0.029188,0.030182,0.735122,-3.48,-6.6,-49.5,160.168,1.2113,-0.1197,55.814037,37.500305,219.5765,0,2838
0.014366,-0.146051,9.720756,0.008419,-0.005859,0.729624,-2.82,-6.66,-50.1,160.168,1.2113,-0.1197,55.814037,37.500305,219.5765,0,2847
-0.122108,0,9.783007,-0.008685,-0.030293,0.716185,-2.82,-6.66,-50.1,160.168,1.2113,-0.1197,55.814037,37.500305,219.5765,0,2858
0.090982,0.031126,9.783007,-0.015405,-0.037624,0.708244,-2.88,-6.9,-50.04,161.2116,1.2917,-0.27,55.814037,37.500305,219.5765,0,2868
0.090982,0.031126,9.783007,-0.015405,-0.037624,0.708244,-2.88,-6.9,-50.04,161.2116,1.2917,-0.27,55.814037,37.500305,219.5765,0,2878
0.316044,-0.059857,9.732727,-0.030676,-0.027239,0.703968,-3.72,-6.6,-49.44,161.2116,1.2917,-0.27,55.814037,37.500305,219.5765,0,2887
0.260976,-0.141262,9.778218,-0.035563,-0.005248,0.702746,-3.72,-6.6,-49.44,161.2116,1.2917,-0.27,55.814037,37.500305,219.5765,0,2898
0.079011,-0.253793,9.818921,-0.034952,0.016743,0.707022,-3.6,-6.84,-49.32,155.1881,1.2309,-0.3246,55.814037,37.500305,219.5765,0,2908
0.079011,-0.253793,9.818921,-0.037396,0.02163,0.714353,-3.6,-6.84,-49.32,155.1881,1.2309,-0.3246,55.814037,37.500305,219.5765,0,2917
-0.107742,-0.337593,9.854836,-0.031898,0.008802,0.71985,-3.6,-6.54,-49.74,155.1881,1.2309,-0.3246,55.814037,37.500305,219.5765,0,2928
-0.052674,-0.421392,9.826104,-0.023346,-0.005859,0.730235,-3.6,-6.54,-49.74,155.1881,1.2309,-0.3246,55.814037,37.500305,219.5765,0,2937
0.035914,-0.423787,9.852441,-0.01174,-0.016244,0.732679,-4.38,-6.06,-49.62,152.6706,1.1803,-0.4209,55.814037,37.500305,219.5765,0,2948
0.035914,-0.423787,9.852441,0.002921,-0.007081,0.735733,-4.38,-6.06,-49.62,152.6706,1.1803,-0.4209,55.814037,37.500305,219.5765,0,2958
0.045491,-0.375901,9.850046,0.018804,0.010024,0.736344,-4.38,-6.06,-49.62,152.6706,1.1803,-0.4209,55.814037,37.500305,219.5765,0,2968
-0.074223,-0.270553,9.828498,0.018804,0.010024,0.735122,-3.84,-6.48,-49.26,152.6706,1.1803,-0.4209,55.814037,37.500305,219.5765,0,2978
-0.086194,-0.134079,9.780613,0.013917,-0.019298,0.728403,-3.84,-6.48,-49.26,152.6706,1.1803,-0.4209,55.814037,37.500305,219.5765,0,2988
0.138868,-0.002394,9.792584,0.011473,-0.046176,0.72657,-3.66,-6.24,-49.2,152.657,1.3224,-0.3662,55.814037,37.500305,219.5765,0,2998
0.138868,-0.002394,9.792584,-0.003187,-0.037624,0.721683,-3.54,-5.94,-49.14,152.657,1.3224,-0.3662,55.814037,37.500305,219.5765,0,3008
0.33041,0.055068,9.792584,-0.012961,0.003915,0.729624,-3.54,-5.94,-49.14,152.657,1.3224,-0.3662,55.814037,37.500305,219.5765,0,3018
0.21309,0.057463,9.703996,-0.039839,0.039345,0.734511,-3.54,-6.12,-49.02,152.3285,1.3758,-0.2776,55.814037,37.500305,219.5765,0,3028
-0.079011,-0.05028,9.689631,-0.06122,0.032626,0.741842,-3.54,-6.12,-49.02,152.3285,1.3758,-0.2776,55.814037,37.500305,219.5765,0,3037
-0.361535,-0.325621,9.840469,-0.076491,-0.001583,0.756502,-4.08,-5.88,-48.54,152.3285,1.3758,-0.2776,55.814037,37.500305,219.5765,0,3048
-0.361535,-0.325621,9.840469,-0.076491,-0.001583,0.756502,-4.08,-5.88,-48.54,152.3285,1.3758,-0.2776,55.814037,37.500305,219.5765,0,3058
-0.378295,-0.459701,9.917087,-0.07527,-0.021741,0.758946,-4.38,-6.12,-49.02,152.3285,1.3758,-0.2776,55.814037,37.500305,219.5765,0,3068
-0.03352,-0.670397,9.871595,-0.023346,-0.054728,0.771163,-4.62,-6.78,-49.86,149.4236,1.2317,-0.2632,55.814037,37.500305,219.5765,0,3077
0.205908,-0.59378,9.840469,0.01636,-0.051674,0.772996,-4.62,-6.78,-49.86,149.4236,1.2317,-0.2632,55.814037,37.500305,219.5765,0,3088
0.205908,-0.59378,9.840469,0.048125,-0.033959,0.771163,-4.26,-6.54,-49.44,149.4236,1.2317,-0.2632,55.814037,37.500305,219.5765,0,3097
0.294496,-0.265764,9.91948,0.061564,-0.0138,0.766276,-4.2,-6.06,-49.26,149.4236,1.2317,-0.2632,55.814037,37.500305,219.5765,0,3108
0.222668,0.086194,9.838076,0.048125,0.00758,0.771774,-4.2,-6.06,-49.26,149.4236,1.2317,-0.2632,55.814037,37.500305,219.5765,0,3118
0.069434,0.24661,9.60583,0.01636,0.013689,0.776661,-4.14,-5.94,-48.54,151.6243,1.4261,-0.1184,55.814037,37.500305,219.5765,0,3128
-0.052674,0.193936,9.548368,-0.041672,0.003304,0.779715,-4.14,-5.94,-48.54,151.6243,1.4261,-0.1184,55.814037,37.500305,219.5765,0,3137
-0.052674,0.193936,9.548368,-0.073437,-0.007691,0.795598,-4.08,-5.88,-48.66,151.6243,1.4261,-0.1184,55.814037,37.500305,219.5765,0,3148
-0.124502,-0.110137,9.785401,-0.088098,-0.013189,0.805371,-4.08,-5.88,-48.66,151.6243,1.4261,-0.1184,55.814037,37.500305,219.5765,0,3157
-0.289707,-0.541106,10.008069,-0.077102,0.002082,0.826141,-4.32,-6,-49.5,151.3002,1.411,-0.0649,55.814037,37.500305,219.5765,0,3168
-0.289707,-0.541106,10.008069,-0.055111,-0.00647,0.833471,-4.32,-6,-49.5,151.3002,1.411,-0.0649,55.814037,37.500305,219.5765,0,3177
-0.24661,-0.699128,9.869201,-0.028233,-0.048009,0.837136,-4.5,-5.88,-50.52,151.3002,1.411,-0.0649,55.814037,37.500305,219.5765,0,3188
0.05028,-0.684763,9.799767,0.016971,-0.082217,0.842023,-4.5,-5.88,-50.52,151.3002,1.411,-0.0649,55.814037,37.500305,219.5765,0,3197
0.29689,-0.462095,9.93624,0.054845,-0.0419,0.845689,-4.38,-5.76,-50.28,151.7088,1.581,-0.0335,55.814037,37.500305,219.5765,0,3208
0.232245,-0.114925,9.90272,0.073782,0.029571,0.857295,-4.38,-5.76,-50.28,151.7088,1.581,-0.0335,55.814037,37.500305,219.5765,0,3218
-0.004789,0.124502,9.63935,0.028577,0.041178,0.865236,-4.62,-5.46,-49.2,151.7088,1.581,-0.0335,55.814037,37.500305,219.5765,0,3227
-0.004789,0.124502,9.63935,0.028577,0.041178,0.865236,-4.62,-5.46,-49.2,151.7088,1.581,-0.0335,55.814037,37.500305,219.5765,0,3237
-0.215485,0.122108,9.569917,-0.046559,-0.022963,0.880508,-5.28,-4.92,-48.96,141.8548,1.5135,-0.0678,55.814037,37.500305,219.5765,0,3248
-0.28013,-0.146051,9.833286,-0.078935,-0.030904,0.892725,-5.28,-4.92,-48.96,141.8548,1.5135,-0.0678,55.814037,37.500305,219.5765,0,3259
-0.222668,-0.493221,9.895537,-0.081989,-0.017465,0.900666,-4.92,-5.58,-49.56,141.8548,1.5135,-0.0678,55.814037,37.500305,219.5765,0,3268
0.011971,-0.739831,9.876384,-0.070994,-0.03518,0.899445,-4.92,-5.58,-49.56,141.8548,1.5135,-0.0678,55.814037,37.500305,219.5765,0,3277
0.011971,-0.739831,9.876384,-0.042894,-0.074276,0.892725,-5.28,-5.88,-49.32,145.8636,1.5864,-0.0163,55.814037,37.500305,219.5765,0,3288
0.387873,-0.787716,9.914692,0.000478,-0.085882,0.878675,-5.28,-5.88,-49.32,145.8636,1.5864,-0.0163,55.814037,37.500305,219.5765,0,3298
0.615329,-0.562655,9.993703,0.045071,-0.048619,0.859128,-5.88,-5.34,-48.84,145.8636,1.5864,-0.0163,55.814037,37.500305,219.5765,0,3307
0.426181,-0.093377,9.797373,0.076225,0.024074,0.844467,-5.88,-5.34,-48.84,145.8636,1.5864,-0.0163,55.814037,37.500305,219.5765,0,3317
0.126897,0.193936,9.593859,0.068895,0.051563,0.835915,-5.46,-5.7,-49.8,146.5534,1.6541,-0.0972,55.814037,37.500305,219.5765,0,3328
0.126897,0.193936,9.593859,0.003532,0.030793,0.831028,-5.46,-5.7,-49.8,146.5534,1.6541,-0.0972,55.814037,37.500305,219.5765,0,3338
-0.174782,0.234639,9.617802,-0.059998,-0.005248,0.831028,-5.28,-5.88,-49.68,146.5534,1.6541,-0.0972,55.814037,37.500305,219.5765,0,3348
-0.208302,-0.05028,9.718362,-0.099093,-0.02113,0.837136,-5.28,-5.88,-49.68,146.5534,1.6541,-0.0972,55.814037,37.500305,219.5765,0,3357
-0.093377,-0.452518,9.912297,-0.105813,-0.033959,0.845689,-5.52,-5.82,-48.84,141.0491,1.6734,0.0057,55.814037,37.500305,219.5765,0,3368
0.605752,-0.962498,9.938635,-0.088098,-0.052895,0.849965,-5.52,-5.82,-48.84,141.0491,1.6734,0.0057,55.814037,37.500305,219.5765,0,3378
0.605752,-0.962498,9.938635,-0.063663,-0.068778,0.821254,-5.52,-5.82,-48.84,141.0491,1.6734,0.0057,55.814037,37.500305,219.5765,0,3388
1.043904,-1.115732,9.90272,-0.017848,-0.046176,0.807204,-5.64,-5.28,-49.62,141.0491,1.6734,0.0057,55.814037,37.500305,219.5765,0,3398
0.928979,-0.842785,10.00328,-0.017848,-0.046176,0.807204,-5.64,-5.28,-49.62,141.0491,1.6734,0.0057,55.814037,37.500305,219.5765,0,3408
0.014366,-0.253793,9.888355,0.122651,0.234211,0.800485,-6.12,-4.86,-49.92,137.6495,1.7873,-0.0262,55.814037,37.500305,219.5765,0,3418
-1.247417,0.272947,9.569917,0.122651,0.234211,0.800485,-6.42,-5.4,-49.8,137.6495,1.7873,-0.0262,55.814037,37.500305,219.5765,0,3428
-1.247417,0.272947,9.569917,0.07989,0.151134,0.813313,-6.42,-5.4,-49.8,137.6495,1.7873,-0.0262,55.814037,37.500305,219.5765,0,3437
-1.699935,0.466884,9.701602,0.00231,0.002693,0.824308,-5.82,-5.76,-50.04,140.2792,1.6529,0.207,55.814037,37.500305,219.5765,0,3447
-1.175589,0.292102,9.636956,-0.073437,-0.152466,0.83225,-5.82,-5.76,-50.04,140.2792,1.6529,0.207,55.814037,37.500305,219.5765,0,3458
-1.175589,0.292102,9.636956,-0.128415,-0.228214,0.829195,-5.82,-5.76,-50.04,140.2792,1.6529,0.207,55.814037,37.500305,219.5765,0,3468
0.586597,-0.399844,9.687236,-0.109478,-0.178734,0.8182,-5.58,-5.34,-49.62,140.2792,1.6529,0.207,55.814037,37.500305,219.5765,0,3478
1.455719,-0.799688,10.010463,-0.049613,-0.059615,0.806593,-5.7,-5.22,-49.74,135.9513,1.6419,0.2519,55.814037,37.500305,219.5765,0,3488
1.115732,-0.770956,10.144543,0.015749,0.085771,0.796819,-5.7,-5.22,-49.74,135.9513,1.6419,0.2519,55.814037,37.500305,219.5765,0,3498
0.002394,-0.438152,9.828498,0.065229,0.187785,0.794376,-5.94,-5.4,-49.92,135.9513,1.6419,0.2519,55.814037,37.500305,219.5765,0,3507
0.002394,-0.438152,9.828498,0.062175,0.153577,0.791322,-5.94,-5.4,-49.92,135.9513,1.6419,0.2519,55.814037,37.500305,219.5765,0,3518
-0.847573,-0.143656,9.627379,0.007808,0.013078,0.79743,-6.78,-4.98,-49.68,132.5382,1.7674,0.1452,55.814037,37.500305,219.5765,0,3528
-1.051087,-0.023943,9.759064,-0.039839,-0.096267,0.802928,-6.78,-4.98,-49.68,132.5382,1.7674,0.1452,55.814037,37.500305,219.5765,0,3538
-0.339987,-0.225062,9.747093,-0.065496,-0.145136,0.806593,-6.72,-4.2,-49.74,132.5382,1.7674,0.1452,55.814037,37.500305,219.5765,0,3548
0.541106,-0.452518,9.799767,-0.055722,-0.13414,0.804761,-6.72,-4.2,-49.74,132.5382,1.7674,0.1452,55.814037,37.500305,219.5765,0,3558
0.541106,-0.452518,9.799767,-0.022735,-0.0419,0.799874,-6.3,-4.62,-49.92,135.9303,1.7118,0.3243,55.814037,37.500305,219.5765,0,3568
0.828419,-0.507586,9.984126,0.013917,0.06378,0.79743,-6.3,-4.62,-49.92,135.9303,1.7118,0.3243,55.814037,37.500305,219.5765,0,3578
0.423787,-0.404632,9.881172,0.013917,0.06378,0.79743,-6.3,-4.62,-49.92,135.9303,1.7118,0.3243,55.814037,37.500305,219.5765,0,3587
-0.153234,-0.256187,9.680053,0.02308,0.094934,0.793154,-7.2,-4.74,-50.28,135.9303,1.7118,0.3243,55.814037,37.500305,219.5765,0,3598
-0.483643,-0.160416,9.766247,-0.003798,0.030182,0.793154,-7.68,-4.5,-50.04,124.1228,1.7826,0.2223,55.814037,37.500305,219.5765,0,3607
-0.483643,-0.160416,9.766247,-0.02579,-0.016854,0.79743,-7.68,-4.5,-50.04,124.1228,1.7826,0.2223,55.814037,37.500305,219.5765,0,3618
-0.402238,-0.217879,9.802161,-0.039839,-0.041289,0.80415,-7.26,-4.44,-49.5,124.1228,1.7826,0.2223,55.814037,37.500305,219.5765,0,3628
-0.023943,-0.426181,9.744699,-0.045948,-0.059615,0.809648,-7.26,-4.44,-49.5,124.1228,1.7826,0.2223,55.814037,37.500305,219.5765,0,3637
0.251399,-0.591386,9.888355,-0.044115,-0.062669,0.812702,-7.2,-4.68,-49.14,131.7977,1.7839,0.3446,55.814037,37.500305,219.5765,0,3648
0.251399,-0.591386,9.888355,-0.023957,-0.037624,0.816367,-7.2,-4.68,-49.14,131.7977,1.7839,0.3446,55.814037,37.500305,219.5765,0,3658
0.299284,-0.586597,9.876384,-0.001355,-0.008302,0.812702,-7.26,-4.8,-49.2,131.7977,1.7839,0.3446,55.814037,37.500305,219.5765,0,3668
0.146051,-0.435758,9.823709,0.015138,0.006358,0.817589,-7.26,-4.8,-49.2,131.7977,1.7839,0.3446,55.814037,37.500305,219.5765,0,3678
-0.184359,-0.186753,9.826104,0.029188,0.018576,0.817589,-6.66,-4.26,-49.44,127.553,1.8517,0.3019,55.814037,37.500305,219.5765,0,3688
-0.184359,-0.186753,9.826104,0.022469,0.02163,0.827363,-6.66,-4.26,-49.44,127.553,1.8517,0.3019,55.814037,37.500305,219.5765,0,3697
-0.210696,-0.138868,9.718362,-0.010518,-0.021741,0.834082,-6.48,-4.08,-49.14,127.553,1.8517,0.3019,55.814037,37.500305,219.5765,0,3708
0.411815,-0.378295,9.665688,-0.071604,-0.080995,0.81881,-6.48,-4.08,-49.14,127.553,1.8517,0.3019,55.814037,37.500305,219.5765,0,3717
0.531529,-0.514769,9.871595,-0.044115,-0.041289,0.815145,-7.44,-3.36,-49.32,121.7308,1.7989,0.3911,55.814037,37.500305,219.5765,0,3728
0.409421,-0.581809,10.032011,0.00231,0.072332,0.820643,-7.44,-3.36,-49.32,121.7308,1.7989,0.3911,55.814037,37.500305,219.5765,0,3737
0.409421,-0.581809,10.032011,0.015138,0.129142,0.823087,-7.86,-3.48,-50.22,121.7308,1.7989,0.3911,55.814037,37.500305,219.5765,0,3748
-0.282524,-0.440547,9.823709,0.031021,0.09921,0.826141,-7.86,-3.48,-50.22,121.7308,1.7989,0.3911,55.814037,37.500305,219.5765,0,3757
-0.897853,-0.241822,9.732727,0.013917,-0.019909,0.831028,-7.74,-3.66,-49.38,123.8421,1.8676,0.3994,55.814037,37.500305,219.5765,0,3768
-0.763774,-0.172388,9.783007,-0.014183,-0.101154,0.840191,-7.74,-3.66,-49.38,123.8421,1.8676,0.3994,55.814037,37.500305,219.5765,0,3778
-0.196331,-0.177176,9.821315,-0.023346,-0.102376,0.847521,-7.56,-3.6,-49.38,123.8421,1.8676,0.3994,55.814037,37.500305,219.5765,0,3788
-0.196331,-0.177176,9.821315,-0.023346,-0.102376,0.847521,-7.56,-3.6,-49.38,123.8421,1.8676,0.3994,55.814037,37.500305,219.5765,0,3798
0.260976,-0.217879,9.737515,-0.021513,-0.041289,0.859739,-7.14,-3.72,-50.04,126.7504,1.8174,0.5441,55.814037,37.500305,219.5765,0,3808
0.323227,-0.265764,9.703996,-0.019681,-0.002194,0.863404,-7.14,-3.72,-50.04,126.7504,1.8174,0.5441,55.814037,37.500305,219.5765,0,3818
0.203513,-0.409421,9.835681,-0.036785,-0.001583,0.865847,-6.9,-3.24,-49.62,126.7504,1.8174,0.5441,55.814037,37.500305,219.5765,0,3827
-0.052674,-0.478855,9.962578,-0.050224,-0.007691,0.86768,-6.9,-3.24,-49.62,126.7504,1.8174,0.5441,55.814037,37.500305,219.5765,0,3839
-0.052674,-0.478855,9.962578,-0.043505,0.013078,0.868901,-7.32,-2.94,-50.1,121.79,1.853,0.5081,55.814037,37.500305,219.5765,0,3848
-0.292102,-0.521952,9.794978,-0.020903,0.024074,0.877454,-7.32,-2.94,-50.1,121.79,1.853,0.5081,55.814037,37.500305,219.5765,0,3858
-0.418998,-0.536318,9.73991,-0.010518,-0.008913,0.884784,-7.38,-3,-50.58,121.79,1.853,0.5081,55.814037,37.500305,219.5765,0,3868
-0.359141,-0.505192,9.888355,-0.004409,-0.046787,0.886006,-7.38,-3,-50.58,121.79,1.853,0.5081,55.814037,37.500305,219.5765,0,3877
-0.359141,-0.505192,9.888355,0.004754,-0.065724,0.885395,-7.38,-3,-50.58,121.79,1.853,0.5081,55.814037,37.500305,219.5765,0,3888
-0.007183,-0.471672,9.873989,0.002921,-0.073665,0.881119,-7.38,-3.24,-49.62,121.821,1.915,0.5967,55.814037,37.500305,219.5765,0,3898
0.474066,-0.344776,9.783007,0.007197,-0.04923,0.87501,-7.8,-3.72,-48.84,121.821,1.915,0.5967,55.814037,37.500305,219.5765,0,3908
0.399844,-0.225062,9.775824,0.00903,0.004526,0.872567,-7.8,-3.72,-48.84,121.821,1.915,0.5967,55.814037,37.500305,219.5765,0,3917
0.028731,-0.153234,9.73991,0.00231,0.051563,0.872567,-7.62,-3,-49.08,118.6063,1.8913,0.5367,55.814037,37.500305,219.5765,0,3928
0.028731,-0.153234,9.73991,-0.020292,0.050341,0.879897,-7.62,-3,-49.08,118.6063,1.8913,0.5367,55.814037,37.500305,219.5765,0,3939
-0.004789,-0.284919,9.749487,-0.052668,-0.038846,0.871345,-7.62,-2.28,-49.14,118.6063,1.8913,0.5367,55.814037,37.500305,219.5765,0,3947
0.469278,-0.629694,9.794978,-0.091152,-0.058393,0.852408,-7.62,-2.28,-49.14,118.6063,1.8913,0.5367,55.814037,37.500305,219.5765,0,3958
0.253793,-0.66082,10.046377,-0.015405,0.013689,0.860349,-8.1,-2.58,-49.38,118.7491,1.9621,0.6061,55.814037,37.500305,219.5765,0,3967
0.158022,-0.651243,9.967366,0.024912,0.095545,0.872567,-8.1,-2.58,-49.38,118.7491,1.9621,0.6061,55.814037,37.500305,219.5765,0,3978
-0.756591,-0.33041,9.787795,0.032854,0.151744,0.886617,-8.4,-2.46,-50.04,118.7491,1.9621,0.6061,55.814037,37.500305,219.5765,0,3988
-0.756591,-0.33041,9.787795,0.046903,0.074775,0.913495,-8.4,-2.46,-50.04,118.7491,1.9621,0.6061,55.814037,37.500305,219.5765,0,3998
-1.391074,-0.129291,9.665688,0.015138,-0.015633,0.926934,-8.4,-2.46,-50.04,118.7491,1.9621,0.6061,55.814037,37.500305,219.5765,0,4008
-1.194743,-0.057463,9.730332,0.015138,-0.015633,0.926934,-8.22,-2.16,-50.22,112.449,1.8746,0.9021,55.814037,37.500305,219.5765,0,4018
-0.21309,-0.22985,9.809344,-0.0545,-0.173847,0.949536,-8.28,-2.04,-49.74,112.449,1.8746,0.9021,55.814037,37.500305,219.5765,0,4027
0.574626,-0.418998,9.768641,-0.052057,-0.120091,0.962975,-8.28,-2.04,-49.74,112.449,1.8746,0.9021,55.814037,37.500305,219.5765,0,4038
0.574626,-0.418998,9.768641,-0.033731,-0.034569,0.965418,-8.1,-2.4,-49.68,112.7039,1.8877,0.8087,55.814037,37.500305,219.5765,0,4047
0.67758,-0.579414,9.876384,-0.016627,0.038123,0.963586,-8.1,-2.4,-49.68,112.7039,1.8877,0.8087,55.814037,37.500305,219.5765,0,4058
0.047885,-0.505192,9.864412,-0.001355,0.079051,0.964196,-7.86,-1.86,-49.74,112.7039,1.8877,0.8087,55.814037,37.500305,219.5765,0,4067
-0.579414,-0.411815,9.876384,-0.001355,0.079051,0.964196,-7.86,-1.86,-49.74,112.7039,1.8877,0.8087,55.814037,37.500305,219.5765,0,4078
-0.696734,-0.378295,9.735122,-0.01907,-0.048619,0.955033,-8.46,-1.32,-49.86,107.046,1.937,0.8693,55.814037,37.500305,219.5765,0,4089
-0.696734,-0.378295,9.735122,-0.01907,-0.048619,0.955033,-8.46,-1.32,-49.86,107.046,1.937,0.8693,55.814037,37.500305,219.5765,0,4097
-0.277736,-0.442941,9.711179,-0.030676,-0.113371,0.950757,-8.22,-1.38,-50.1,107.046,1.937,0.8693,55.814037,37.500305,219.5765,0,4108
0.311256,-0.483643,9.897932,-0.025179,-0.113371,0.942816,-8.22,-1.38,-50.1,107.046,1.937,0.8693,55.814037,37.500305,219.5765,0,4118
0.533923,-0.486038,9.938635,-0.009296,-0.052285,0.943427,-8.04,-1.44,-49.44,107.114,1.9548,0.7747,55.814037,37.500305,219.5765,0,4128
0.533923,-0.486038,9.938635,0.001699,0.033847,0.93854,-8.04,-1.44,-49.44,107.114,1.9548,0.7747,55.814037,37.500305,219.5765,0,4137
0.253793,-0.378295,9.766247,-0.004409,0.054006,0.939151,-8.94,-1.98,-49.32,107.114,1.9548,0.7747,55.814037,37.500305,219.5765,0,4148
-0.308861,-0.308861,9.715967,-0.023346,0.019798,0.943427,-8.94,-1.98,-49.32,107.114,1.9548,0.7747,55.814037,37.500305,219.5765,0,4158
-0.519558,-0.33041,9.833286,-0.036785,-0.018687,0.956255,-9,-2.1,-49.68,110.6561,1.9454,0.9079,55.814037,37.500305,219.5765,0,4167
-0.373507,-0.435758,9.847652,-0.038007,-0.047398,0.966029,-9,-2.1,-49.68,110.6561,1.9454,0.9079,55.814037,37.500305,219.5765,0,4178
0.416604,-0.658426,9.615408,-0.050835,-0.074276,0.958088,-8.64,-1.56,-49.98,110.6561,1.9454,0.9079,55.814037,37.500305,219.5765,0,4188
0.416604,-0.658426,9.615408,-0.050835,-0.074276,0.958088,-8.64,-1.56,-49.98,110.6561,1.9454,0.9079,55.814037,37.500305,219.5765,0,4198
0.328016,-0.574626,10.010463,-0.004409,-0.032737,0.965418,-8.1,-0.9,-49.92,107.1466,1.9695,0.911,55.814037,37.500305,219.5765,0,4208
-0.031126,-0.421392,10.07032,0.031632,0.07111,0.98069,-8.1,-0.9,-49.92,107.1466,1.9695,0.911,55.814037,37.500305,219.5765,0,4217
-0.608146,-0.256187,9.550762,0.029799,0.107762,0.988631,-8.76,-0.48,-49.56,107.1466,1.9695,0.911,55.814037,37.500305,219.5765,0,4228
-0.811659,-0.234639,9.550762,-0.010518,0.038123,0.994129,-8.76,-0.48,-49.56,107.1466,1.9695,0.911,55.814037,37.500305,219.5765,0,4238
-0.811659,-0.234639,9.550762,-0.03312,-0.066334,1.005124,-9.36,-0.66,-49.62,105.2797,1.9488,0.9893,55.814037,37.500305,219.5765,0,4248
-0.284919,-0.426181,9.950606,-0.052057,-0.113982,1.009401,-9.36,-0.66,-49.62,105.2797,1.9488,0.9893,55.814037,37.500305,219.5765,0,4258
-0.004789,-0.519558,10.072714,-0.038007,-0.057782,1.021618,-9,-0.66,-49.8,105.2797,1.9488,0.9893,55.814037,37.500305,219.5765,0,4267
-0.126897,-0.469278,9.703996,-0.006853,0.022852,1.028337,-9,-0.66,-49.8,105.2797,1.9488,0.9893,55.814037,37.500305,219.5765,0,4278
-0.126897,-0.469278,9.703996,0.011473,0.024074,1.036279,-9,-0.66,-49.8,105.2797,1.9488,0.9893,55.814037,37.500305,219.5765,0,4288
-0.189148,-0.457306,9.557945,-0.018459,-0.059615,1.031392,-8.94,-0.72,-50.34,105.3695,1.9729,1.0072,55.814037,37.500305,219.5765,0,4298
-0.028731,-0.452518,9.957788,-0.034342,-0.077941,1.03017,-8.46,-1.02,-49.56,105.3695,1.9729,1.0072,55.814037,37.500305,219.5765,0,4308
0.069434,-0.471672,9.941029,-0.019681,-0.008913,1.025894,-8.46,-1.02,-49.56,105.3695,1.9729,1.0072,55.814037,37.500305,219.5765,0,4318
0.009577,-0.481249,9.586677,-0.009907,0.024074,1.025894,-8.58,-0.42,-49.26,99.5504,1.9566,1.0633,55.814037,37.500305,219.5765,0,4327
0.009577,-0.481249,9.586677,-0.020292,-0.003415,1.024061,-8.58,-0.42,-49.26,99.5504,1.9566,1.0633,55.814037,37.500305,219.5765,0,4338
-0.155628,-0.500403,9.703996,-0.022124,-0.026628,1.021007,-8.46,0.42,-49.68,99.5504,1.9566,1.0633,55.814037,37.500305,219.5765,0,4347
-0.225062,-0.478855,10.048771,-0.009907,-0.018076,1.017953,-8.46,0.42,-49.68,99.5504,1.9566,1.0633,55.814037,37.500305,219.5765,0,4358
0.22985,-0.59378,9.80695,-0.011129,-0.043732,1.007568,-7.92,0.96,-49.98,94.4998,1.9617,1.1216,55.814037,37.500305,219.5765,0,4367
0.22985,-0.59378,9.80695,-0.023957,-0.038846,0.997183,-7.92,0.96,-49.98,94.4998,1.9617,1.1216,55.814037,37.500305,219.5765,0,4378
0.38069,-0.545895,9.653716,0.010862,0.010635,0.997183,-8.52,0.42,-50.22,94.4998,1.9617,1.1216,55.814037,37.500305,219.5765,0,4388
0.282524,-0.478855,9.814133,0.010862,0.010635,0.997183,-8.52,0.42,-50.22,94.4998,1.9617,1.1216,55.814037,37.500305,219.5765,0,4398
-0.146051,-0.38069,9.962578,0.015138,0.083938,0.998405,-8.82,0.66,-49.44,93.8602,1.961,1.1075,55.814037,37.500305,219.5765,0,4408
-0.761379,-0.26337,9.648928,-0.001355,0.093101,0.994129,-8.82,0.66,-49.44,93.8602,1.961,1.1075,55.814037,37.500305,219.5765,0,4417
-0.742225,-0.299284,9.648928,-0.009296,0.00758,0.991685,-7.98,1.56,-49.92,93.8602,1.961,1.1075,55.814037,37.500305,219.5765,0,4428
-0.742225,-0.299284,9.648928,-0.039229,-0.079774,0.98802,-7.98,1.56,-49.92,93.8602,1.961,1.1075,55.814037,37.500305,219.5765,0,4437
-0.359141,-0.399844,9.814133,-0.036174,-0.104819,0.990464,-7.62,1.26,-50.52,94.2817,1.9007,1.3023,55.814037,37.500305,219.5765,0,4449
0.090982,-0.447729,9.96976,-0.020292,-0.051063,0.991685,-7.62,1.26,-50.52,94.2817,1.9007,1.3023,55.814037,37.500305,219.5765,0,4458
0.122108,-0.418998,9.737515,-0.009907,0.005748,0.989242,-8.16,1.26,-49.68,94.2817,1.9007,1.3023,55.814037,37.500305,219.5765,0,4467
-0.035914,-0.395055,9.675264,-0.009296,0.022241,0.989853,-8.16,1.26,-49.68,94.2817,1.9007,1.3023,55.814037,37.500305,219.5765,0,4478
-0.035914,-0.395055,9.675264,-0.030676,-0.008913,0.985577,-8.16,1.26,-49.68,94.2817,1.9007,1.3023,55.814037,37.500305,219.5765,0,4488
-0.143656,-0.433364,9.814133,-0.039839,-0.022963,0.983744,-8.64,1.44,-49.5,93.511,1.902,1.2893,55.814037,37.500305,219.5765,0,4498
-0.198725,-0.509981,9.964972,-0.033731,-0.002804,0.992907,-8.88,1.8,-49.92,93.511,1.902,1.2893,55.814037,37.500305,219.5765,0,4508
-0.277736,-0.548289,9.747093,-0.021513,0.002693,0.998405,-8.88,1.8,-49.92,93.511,1.902,1.2893,55.814037,37.500305,219.5765,0,4517
0.136474,-0.651243,9.651321,-0.009296,-0.025406,1.006346,-8.82,1.68,-50.16,88.1367,1.9214,1.3032,55.814037,37.500305,219.5765,0,4528
0.129291,-0.588992,9.847652,-0.0264,-0.03518,0.994129,-8.82,1.68,-50.16,88.1367,1.9214,1.3032,55.814037,37.500305,219.5765,0,4540
0.129291,-0.588992,9.847652,0.027356,0.041178,1.000848,-8.76,1.32,-49.98,88.1367,1.9214,1.3032,55.814037,37.500305,219.5765,0,4547
-0.057463,-0.502798,10.043983,0.026134,0.061947,1.003903,-8.76,1.32,-49.98,88.1367,1.9214,1.3032,55.814037,37.500305,219.5765,0,4559
-0.387873,-0.325621,9.682447,0.026134,0.061947,1.003903,-8.4,1.62,-49.98,87.9437,1.9216,1.3363,55.814037,37.500305,219.5765,0,4568
-0.7111,-0.167599,9.60583,0.005365,0.034458,1.001459,-8.4,1.62,-49.98,87.9437,1.9216,1.3363,55.814037,37.500305,219.5765,0,4577
-0.7111,-0.167599,9.60583,-0.009907,-0.024796,1.003903,-8.28,2.16,-49.56,87.9437,1.9216,1.3363,55.814037,37.500305,219.5765,0,4589
-0.493221,-0.232245,9.737515,-0.036785,-0.073054,1.001459,-8.28,2.16,-49.56,87.9437,1.9216,1.3363,55.814037,37.500305,219.5765,0,4598
-0.055068,-0.423787,9.979338,-0.058776,-0.078552,1.006957,-8.46,1.98,-49.14,87.2922,1.833,1.5004,55.814037,37.500305,219.5765,0,4608
0.0838,-0.524346,9.768641,-0.046559,-0.022352,1.010622,-8.46,1.98,-49.14,87.2922,1.833,1.5004,55.814037,37.500305,219.5765,0,4617
0.0838,-0.524346,9.768641,-0.029455,0.008191,1.011844,-8.16,1.8,-49.14,87.2922,1.833,1.5004,55.814037,37.500305,219.5765,0,4628
-0.059857,-0.622511,9.737515,-0.023957,0.001472,1.010011,-8.16,1.8,-49.14,87.2922,1.833,1.5004,55.814037,37.500305,219.5765,0,4638
-0.328016,-0.61054,9.933846,-0.014183,-0.002194,1.010622,-8.22,1.92,-49.2,87.5077,1.8756,1.4575,55.814037,37.500305,219.5765,0,4647
-0.483643,-0.517163,9.943423,0.001699,-0.002194,1.011844,-8.22,1.92,-49.2,87.5077,1.8756,1.4575,55.814037,37.500305,219.5765,0,4658
-0.320833,-0.426181,9.703996,0.004143,-0.031515,1.010011,-7.92,1.92,-49.92,87.5077,1.8756,1.4575,55.814037,37.500305,219.5765,0,4668
-0.320833,-0.426181,9.703996,-0.007464,-0.062058,1.013066,-7.92,1.92,-49.92,87.5077,1.8756,1.4575,55.814037,37.500305,219.5765,0,4678
-0.057463,-0.351958,9.780613,-0.011129,-0.051063,1.01612,-7.32,2.4,-50.04,87.3212,1.8516,1.535,55.814037,37.500305,219.5765,0,4688
0.011971,-0.349564,9.835681,-0.017848,-0.004637,1.019174,-7.32,2.4,-50.04,87.3212,1.8516,1.535,55.814037,37.500305,219.5765,0,4698
-0.124502,-0.368718,9.75667,-0.030066,0.0143,1.021618,-7.68,2.82,-49.2,87.3212,1.8516,1.535,55.814037,37.500305,219.5765,0,4708
-0.124502,-0.368718,9.75667,-0.038007,0.00758,1.02345,-7.68,2.82,-49.2,87.3212,1.8516,1.535,55.814037,37.500305,219.5765,0,4717
-0.34717,-0.452518,9.759064,-0.039839,-0.0138,1.028948,-8.46,3.36,-49.02,81.1126,1.8151,1.5195,55.814037,37.500305,219.5765,0,4728
0.011971,-0.69434,9.852441,-0.039839,-0.0138,1.028948,-8.46,3.36,-49.02,81.1126,1.8151,1.5195,55.814037,37.500305,219.5765,0,4737
0.454912,-0.811659,9.799767,-0.042283,-0.06328,1.022839,-8.16,3.42,-49.32,81.1126,1.8151,1.5195,55.814037,37.500305,219.5765,0,4748
0.454912,-0.811659,9.799767,-0.039229,-0.050452,1.007568,-8.16,3.42,-49.32,81.1126,1.8151,1.5195,55.814037,37.500305,219.5765,0,4757
0.464489,-0.67758,9.933846,0.020025,0.011245,1.004514,-7.56,2.94,-49.02,81.2489,1.8347,1.5667,55.814037,37.500305,219.5765,0,4768
0.21309,-0.498009,10.022434,0.05118,0.108373,1.00879,-7.56,2.94,-49.02,81.2489,1.8347,1.5667,55.814037,37.500305,219.5765,0,4777
-0.960104,-0.095771,9.689631,0.05179,0.15541,1.009401,-7.5,3.24,-49.32,81.2489,1.8347,1.5667,55.814037,37.500305,219.5765,0,4788
-0.960104,-0.095771,9.689631,0.031632,0.102875,1.01612,-7.5,3.24,-49.32,81.2489,1.8347,1.5667,55.814037,37.500305,219.5765,0,4797
-1.256994,0,9.632168,-0.036174,-0.045565,1.024061,-7.74,3.6,-49.92,75.3544,1.7509,1.7044,55.814037,37.500305,219.5765,0,4808
-0.921796,-0.126897,9.862018,-0.064274,-0.111538,1.028948,-7.74,3.6,-49.92,75.3544,1.7509,1.7044,55.814037,37.500305,219.5765,0,4818
-0.277736,-0.404632,9.787795,-0.06855,-0.096267,1.036889,-7.44,3.66,-49.38,75.3544,1.7509,1.7044,55.814037,37.500305,219.5765,0,4828
0.150839,-0.6273,9.72315,-0.057555,-0.06328,1.034446,-7.44,3.66,-49.38,75.3544,1.7509,1.7044,55.814037,37.500305,219.5765,0,4837
0.138868,-0.691945,9.924269,-0.030066,-0.003415,1.033224,-7.32,3.72,-49.26,73.512,1.7573,1.7052,55.814037,37.500305,219.5765,0,4848
0.138868,-0.691945,9.924269,-0.011129,0.013689,1.02345,-7.32,3.72,-49.26,73.512,1.7573,1.7052,55.814037,37.500305,219.5765,0,4857
-0.047885,-0.656031,9.93624,-0.011129,0.013689,1.02345,-7.8,3.3,-49.68,73.512,1.7573,1.7052,55.814037,37.500305,219.5765,0,4867
-0.251399,-0.5435,9.830893,0.000478,0.003915,1.018563,-7.8,3.3,-49.68,73.512,1.7573,1.7052,55.814037,37.500305,219.5765,0,4878
-0.390267,-0.421392,9.768641,-0.000744,-0.005248,1.013677,-7.32,3.6,-49.86,73.7678,1.749,1.741,55.814037,37.500305,219.5765,0,4888
-0.423787,-0.361535,9.677659,-0.000133,-0.010135,1.013066,-7.32,3.6,-49.86,73.7678,1.749,1.741,55.814037,37.500305,219.5765,0,4898
-0.385478,-0.323227,9.766247,-0.017237,-0.027239,1.012455,-6.78,4.38,-49.8,73.7678,1.749,1.741,55.814037,37.500305,219.5765,0,4908
-0.385478,-0.323227,9.766247,-0.0264,-0.043732,1.009401,-6.78,4.38,-49.8,73.7678,1.749,1.741,55.814037,37.500305,219.5765,0,4918
-0.21309,-0.407027,9.878778,-0.03312,-0.0419,1.004514,-7.2,4.38,-49.74,73.5097,1.6847,1.7975,55.814037,37.500305,219.5765,0,4928
-0.028731,-0.495615,9.775824,-0.035563,-0.040067,0.991074,-7.2,4.38,-49.74,73.5097,1.6847,1.7975,55.814037,37.500305,219.5765,0,4938
0.088588,-0.5435,9.778218,-0.028233,-0.031515,0.981301,-7.44,4.26,-49.32,73.5097,1.6847,1.7975,55.814037,37.500305,219.5765,0,4948
0.088588,-0.5435,9.778218,-0.028233,-0.031515,0.981301,-7.44,4.26,-49.32,73.5097,1.6847,1.7975,55.814037,37.500305,219.5765,0,4957
-0.01676,-0.521952,9.881172,-0.012961,-0.007081,0.976414,-6.96,4.32,-49.38,73.2275,1.6844,1.7703,55.814037,37.500305,219.5765,0,4968
-0.244216,-0.423787,9.818921,0.005365,0.024074,0.97397,-6.96,4.32,-49.38,73.2275,1.6844,1.7703,55.814037,37.500305,219.5765,0,4977
-0.119714,-0.407027,9.663293,-0.015405,-0.005248,0.965418,-7.38,4.2,-49.26,73.2275,1.6844,1.7703,55.814037,37.500305,219.5765,0,4988
-0.136474,-0.402238,9.883567,-0.027011,-0.022963,0.953812,-7.38,4.2,-49.26,73.2275,1.6844,1.7703,55.814037,37.500305,219.5765,0,4998
-0.136474,-0.402238,9.883567,-0.021513,-0.008302,0.950757,-7.38,4.2,-49.26,73.2275,1.6844,1.7703,55.814037,37.500305,219.5765,0,5007
-0.134079,-0.462095,9.897932,-0.022124,0.015521,0.944649,-7.26,4.56,-49.44,67.1835,1.6404,1.832,55.814037,37.500305,219.5765,0,5017
-0.423787,-0.440547,9.871595,-0.013572,0.036291,0.940984,-7.14,4.32,-49.8,67.1835,1.6404,1.832,55.814037,37.500305,219.5765,0,5028
-0.622511,-0.41421,9.670476,-0.006242,0.019798,0.934264,-7.14,4.32,-49.8,67.1835,1.6404,1.832,55.814037,37.500305,219.5765,0,5038
-0.399844,-0.442941,9.792584,-0.015405,-0.038846,0.928155,-7.74,3.9,-50.1,75.3058,1.7196,1.788,55.814022,37.50032,212.2398,0,5048
-0.399844,-0.442941,9.792584,-0.022735,-0.082217,0.922658,-7.74,3.9,-50.1,75.3058,1.7196,1.788,55.814022,37.50032,212.2398,0,5057
0.009577,-0.450124,9.931452,-0.011129,-0.053506,0.919603,-6.48,4.26,-50.88,75.3058,1.7196,1.788,55.814022,37.50032,212.2398,0,5068
0.148445,-0.411815,9.866806,0.003532,0.016132,0.923268,-6.48,4.26,-50.88,75.3058,1.7196,1.788,55.814022,37.50032,212.2398,0,5078
-0.112531,-0.325621,9.754275,0.001699,0.058282,0.922658,-5.82,4.5,-49.98,66.095,1.9219,1.7296,55.814022,37.50032,212.2398,0,5087
-0.56026,-0.244216,9.713573,-0.016627,0.036291,0.923879,-5.82,4.5,-49.98,66.095,1.9219,1.7296,55.814022,37.50032,212.2398,0,5098
-0.56026,-0.244216,9.713573,-0.016627,0.036291,0.923879,-5.82,4.5,-49.98,66.095,1.9219,1.7296,55.814022,37.50032,212.2398,0,5108
-0.749408,-0.258582,9.768641,-0.038618,-0.007081,0.925712,-6.36,4.56,-49.26,66.095,1.9219,1.7296,55.814022,37.50032,212.2398,0,5117
-0.495615,-0.445335,9.830893,-0.053889,-0.066945,0.920825,-6.24,4.62,-49.56,66.0662,1.8687,1.8393,55.814022,37.50032,212.2398,0,5127
-0.071828,-0.579414,9.80695,-0.046559,-0.073054,0.914106,-6.24,4.62,-49.56,66.0662,1.8687,1.8393,55.814022,37.50032,212.2398,0,5138
0.047885,-0.588992,9.878778,-0.023957,-0.051063,0.907386,-5.52,4.98,-49.44,66.0662,1.8687,1.8393,55.814022,37.50032,212.2398,0,5148
0.047885,-0.588992,9.878778,-0.003798,-0.009524,0.900666,-5.52,4.98,-49.44,66.0662,1.8687,1.8393,55.814022,37.50032,212.2398,0,5157
-0.055068,-0.490826,9.876384,0.007197,0.012467,0.895169,-5.58,5.04,-49.38,65.8383,1.9004,1.796,55.814022,37.50032,212.2398,0,5167
-0.234639,-0.368718,9.771035,-0.001355,0.002693,0.88234,-5.58,5.04,-49.38,65.8383,1.9004,1.796,55.814022,37.50032,212.2398,0,5178
-0.287313,-0.342381,9.718362,-0.017848,-0.022963,0.87501,-6.18,5.22,-49.5,65.8383,1.9004,1.796,55.814022,37.50032,212.2398,0,5188
-0.287313,-0.342381,9.718362,-0.025179,-0.017465,0.876232,-6.18,5.22,-49.5,65.8383,1.9004,1.796,55.814022,37.50032,212.2398,0,5198
-0.265764,-0.371113,9.809344,-0.025179,-0.017465,0.876232,-6.18,5.22,-49.5,65.8383,1.9004,1.796,55.814022,37.50032,212.2398,0,5207
-0.301679,-0.41421,9.835681,-0.023957,-0.003415,0.875621,-5.46,5.94,-48.66,56.0512,1.8397,1.8511,55.814022,37.50032,212.2398,0,5218
-0.256187,-0.481249,9.821315,-0.022124,-0.009524,0.874399,-5.58,6.36,-48.78,56.0512,1.8397,1.8511,55.814022,37.50032,212.2398,0,5228
-0.253793,-0.495615,9.828498,-0.01235,-0.015633,0.871956,-5.58,6.36,-48.78,56.0512,1.8397,1.8511,55.814022,37.50032,212.2398,0,5237
-0.253793,-0.495615,9.828498,-0.001966,-0.02052,0.868291,-5.76,6.24,-49.62,60.013,1.8334,1.8748,55.814022,37.50032,212.2398,0,5248
-0.136474,-0.442941,9.826104,0.000478,-0.019298,0.867069,-5.76,6.24,-49.62,60.013,1.8334,1.8748,55.814022,37.50032,212.2398,0,5258
-0.210696,-0.335198,9.850046,0.00231,0.00758,0.86768,-5.7,6,-49.38,60.013,1.8334,1.8748,55.814022,37.50032,212.2398,0,5268
-0.375901,-0.28013,9.75667,0.00231,0.022241,0.870123,-5.7,6,-49.38,60.013,1.8334,1.8748,55.814022,37.50032,212.2398,0,5277
-0.481249,-0.284919,9.713573,-0.01235,0.008191,0.870734,-5.46,5.94,-48.78,56.1024,1.8586,1.8377,55.814022,37.50032,212.2398,0,5289
-0.481249,-0.284919,9.713573,-0.023957,-0.017465,0.87501,-5.46,5.94,-48.78,56.1024,1.8586,1.8377,55.814022,37.50032,212.2398,0,5297
-0.407027,-0.339987,9.826104,-0.038007,-0.035791,0.871345,-5.46,5.94,-48.78,56.1024,1.8586,1.8377,55.814022,37.50032,212.2398,0,5308
-0.272947,-0.445335,9.845258,-0.031287,-0.024796,0.874399,-4.56,6.24,-49.14,56.1024,1.8586,1.8377,55.814022,37.50032,212.2398,0,5317
-0.251399,-0.490826,9.828498,-0.01907,-0.008302,0.878675,-4.92,6.54,-49.08,50.8909,1.959,1.8191,55.814022,37.50032,212.2398,0,5328
-0.351958,-0.440547,9.811738,-0.001355,-0.001583,0.878064,-4.92,6.54,-49.08,50.8909,1.959,1.8191,55.814022,37.50032,212.2398,0,5338
-0.351958,-0.440547,9.811738,0.001699,-0.012578,0.871956,-4.68,6.84,-49.08,50.8909,1.959,1.8191,55.814022,37.50032,212.2398,0,5348
-0.38069,-0.373507,9.818921,0.000478,-0.024185,0.871956,-4.38,6.78,-49.2,50.8909,1.959,1.8191,55.814022,37.50032,212.2398,0,5359
-0.318439,-0.318439,9.785401,0.000478,-0.024185,0.871956,-4.38,6.78,-49.2,50.8909,1.959,1.8191,55.814022,37.50032,212.2398,0,5368
-0.227456,-0.28013,9.787795,-0.009907,-0.032737,0.871345,-4.14,6.6,-49.62,47.2663,2.0764,1.8558,55.814022,37.50032,212.2398,0,5378
-0.191542,-0.308861,9.75667,-0.012961,-0.02052,0.867069,-4.14,6.6,-49.62,47.2663,2.0764,1.8558,55.814022,37.50032,212.2398,0,5387
-0.191542,-0.308861,9.75667,-0.022124,-0.007691,0.86768,-4.62,6.3,-48.84,47.2663,2.0764,1.8558,55.814022,37.50032,212.2398,0,5398
-0.260976,-0.337593,9.804555,-0.02579,-0.002194,0.867069,-4.92,6,-48.48,47.2663,2.0764,1.8558,55.814022,37.50032,212.2398,0,5407
-0.361535,-0.361535,9.833286,-0.027011,-0.004637,0.869512,-4.92,6,-48.48,47.2663,2.0764,1.8558,55.814022,37.50032,212.2398,0,5418
-0.395055,-0.392661,9.821315,-0.022735,-0.012578,0.868291,-4.26,6.06,-49.02,52.8145,2.0819,1.8321,55.814022,37.50032,212.2398,0,5428
-0.351958,-0.416604,9.799767,-0.016627,-0.021741,0.869512,-4.26,6.06,-49.02,52.8145,2.0819,1.8321,55.814022,37.50032,212.2398,0,5438
-0.351958,-0.416604,9.799767,-0.009907,-0.016854,0.868901,-4.38,6.12,-49.26,52.8145,2.0819,1.8321,55.814022,37.50032,212.2398,0,5448
-0.339987,-0.371113,9.804555,-0.009907,-0.016854,0.868901,-4.38,6.12,-49.26,52.8145,2.0819,1.8321,55.814022,37.50032,212.2398,0,5457
-0.354353,-0.335198,9.794978,-0.006242,-0.008913,0.873788,-4.86,6.36,-48.84,57.4103,2.0877,1.8719,55.814022,37.50032,212.2398,0,5468
-0.38069,-0.294496,9.785401,-0.011129,-0.010746,0.88173,-4.86,6.36,-48.84,57.4103,2.0877,1.8719,55.814022,37.50032,212.2398,0,5478
-0.418998,-0.284919,9.771035,-0.019681,-0.014411,0.885395,-4.74,6.18,-50.04,57.4103,2.0877,1.8719,55.814022,37.50032,212.2398,0,5488
-0.418998,-0.284919,9.771035,-0.025179,-0.019909,0.892114,-4.74,6.18,-50.04,57.4103,2.0877,1.8719,55.814022,37.50032,212.2398,0,5498
-0.392661,-0.332804,9.792584,-0.029455,-0.022352,0.897001,-4.74,6.18,-50.04,57.4103,2.0877,1.8719,55.814022,37.50032,212.2398,0,5507
-0.418998,-0.411815,9.826104,-0.032509,-0.016854,0.902499,-4.62,6.06,-50.46,57.7839,2.0665,1.9121,55.814022,37.50032,212.2398,0,5518
-0.416604,-0.450124,9.826104,-0.02579,-0.011357,0.905553,-4.74,5.94,-49.8,57.7839,2.0665,1.9121,55.814022,37.50032,212.2398,0,5528
-0.416604,-0.450124,9.826104,-0.017848,-0.024796,0.912273,-4.74,5.94,-49.8,57.7839,2.0665,1.9121,55.814022,37.50032,212.2398,0,5538
-0.335198,-0.440547,9.785401,-0.011129,-0.032126,0.916549,-4.56,6,-49.2,57.5927,2.039,2.0046,55.814022,37.50032,212.2398,0,5548
-0.268159,-0.416604,9.80695,-0.000133,-0.025406,0.928766,-4.56,6,-49.2,57.5927,2.039,2.0046,55.814022,37.50032,212.2398,0,5557
-0.174782,-0.392661,9.852441,-0.000133,-0.012578,0.935486,-4.14,6.54,-49.14,57.5927,2.039,2.0046,55.814022,37.50032,212.2398,0,5567
-0.162811,-0.399844,9.794978,-0.014183,0.004526,0.937318,-4.14,6.54,-49.14,57.5927,2.039,2.0046,55.814022,37.50032,212.2398,0,5578
-0.162811,-0.399844,9.794978,-0.009907,0.006969,0.940984,-3.96,6.42,-49.32,53.6804,2.0708,2.0577,55.814022,37.50032,212.2398,0,5588
-0.33041,-0.344776,9.771035,-0.00502,0.006358,0.942205,-3.96,6.42,-49.32,53.6804,2.0708,2.0577,55.814022,37.50032,212.2398,0,5598
-0.438152,-0.339987,9.833286,-0.00502,0.006358,0.942205,-3.54,6.72,-49.26,53.6804,2.0708,2.0577,55.814022,37.50032,212.2398,0,5608
-0.498009,-0.299284,9.828498,-0.005631,-0.001583,0.948925,-3.54,6.72,-49.26,53.6804,2.0708,2.0577,55.814022,37.50032,212.2398,0,5617
-0.524346,-0.253793,9.742304,-0.006853,-0.007081,0.955033,-3.24,6.78,-49.44,42.2319,2.0834,2.0344,55.814022,37.50032,212.2398,0,5628
-0.524346,-0.253793,9.742304,-0.011129,-0.019909,0.951368,-3.24,6.78,-49.44,42.2319,2.0834,2.0344,55.814022,37.50032,212.2398,0,5638
-0.457306,-0.220273,9.761458,-0.013572,-0.033348,0.957477,-3.54,6.78,-49.56,42.2319,2.0834,2.0344,55.814022,37.50032,212.2398,0,5648
-0.328016,-0.222668,9.785401,-0.023346,-0.033348,0.956255,-3.54,6.78,-49.56,42.2319,2.0834,2.0344,55.814022,37.50032,212.2398,0,5658
-0.328016,-0.222668,9.785401,-0.024568,-0.02113,0.958699,-3.48,6.96,-49.5,42.448,2.0157,2.1392,55.814022,37.50032,212.2398,0,5667
-0.29689,-0.258582,9.754275,-0.032509,-0.010135,0.964807,-3.48,6.96,-49.5,42.448,2.0157,2.1392,55.814022,37.50032,212.2398,0,5678
-0.375901,-0.306467,9.787795,-0.04045,-0.007691,0.969694,-3.24,6.54,-49.56,42.448,2.0157,2.1392,55.814022,37.50032,212.2398,0,5688
-0.447729,-0.378295,9.783007,-0.039229,-0.010135,0.973359,-3.24,6.54,-49.56,42.448,2.0157,2.1392,55.814022,37.50032,212.2398,0,5698
-0.442941,-0.488432,9.802161,-0.04045,-0.023574,0.972749,-3.06,6.24,-49.38,48.0694,1.8922,2.2021,55.814022,37.50032,212.2398,0,5708
-0.442941,-0.488432,9.802161,-0.032509,-0.034569,0.967862,-3.06,6.24,-49.38,48.0694,1.8922,2.2021,55.814022,37.50032,212.2398,0,5718
-0.318439,-0.555472,9.826104,-0.014794,-0.037013,0.966029,-3.6,6.12,-49.44,48.0694,1.8922,2.2021,55.814022,37.50032,212.2398,0,5728
-0.203513,-0.536318,9.838076,-0.001966,-0.030904,0.961753,-3.6,6.12,-49.44,48.0694,1.8922,2.2021,55.814022,37.50032,212.2398,0,5738
-0.227456,-0.339987,9.818921,0.017582,-0.0138,0.956866,-3.72,6.42,-49.56,53.9826,1.9127,2.2523,55.814022,37.50032,212.2398,0,5748
-0.227456,-0.339987,9.818921,0.015138,-0.004026,0.948314,-3.72,6.42,-49.56,53.9826,1.9127,2.2523,55.814022,37.50032,212.2398,0,5758
-0.289707,-0.21309,9.715967,0.001089,-0.013189,0.939762,-2.82,6.66,-49.14,53.9826,1.9127,2.2523,55.814022,37.50032,212.2398,0,5768
-0.306467,-0.153234,9.703996,-0.018459,-0.023574,0.936097,-2.82,6.66,-49.14,53.9826,1.9127,2.2523,55.814022,37.50032,212.2398,0,5778
-0.256187,-0.165205,9.747093,-0.039229,-0.031515,0.925712,-2.58,6.9,-49.14,42.5031,1.9765,2.1864,55.814022,37.50032,212.2398,0,5788
-0.179571,-0.29689,9.759064,-0.042894,-0.026628,0.92449,-2.58,6.9,-49.14,42.5031,1.9765,2.1864,55.814022,37.50032,212.2398,0,5798
-0.179571,-0.29689,9.759064,-0.042894,-0.026628,0.92449,-2.58,6.9,-49.14,42.5031,1.9765,2.1864,55.814022,37.50032,212.2398,0,5808
-0.138868,-0.402238,9.828498,-0.036785,-0.007081,0.918382,-2.94,7.62,-49.32,42.5031,1.9765,2.1864,55.814022,37.50032,212.2398,0,5818
-0.299284,-0.471672,9.852441,-0.020292,0.006358,0.917771,-2.16,7.14,-49.14,35.0216,1.9043,2.0647,55.814022,37.50032,212.2398,0,5827
-0.464489,-0.428575,9.804555,-0.008685,0.011245,0.91716,-2.16,7.14,-49.14,35.0216,1.9043,2.0647,55.814022,37.50032,212.2398,0,5837
-0.529135,-0.351958,9.799767,-0.002577,-0.003415,0.915938,-1.56,6.72,-49.2,35.0216,1.9043,2.0647,55.814022,37.50032,212.2398,0,5847
-0.529135,-0.351958,9.799767,0.001089,-0.023574,0.918992,-1.56,6.72,-49.2,35.0216,1.9043,2.0647,55.814022,37.50032,212.2398,0,5857
-0.469278,-0.275342,9.778218,-0.001355,-0.033348,0.912884,-2.4,7.5,-49.02,30.292,1.9145,2.0088,55.814022,37.50032,212.2398,0,5868
-0.339987,-0.201119,9.766247,-0.002577,-0.031515,0.914106,-2.4,7.5,-49.02,30.292,1.9145,2.0088,55.814022,37.50032,212.2398,0,5878
-0.24661,-0.169993,9.754275,-0.010518,-0.022963,0.913495,-2.76,7.68,-49.08,30.292,1.9145,2.0088,55.814022,37.50032,212.2398,0,5888
-0.227456,-0.198725,9.766247,-0.023957,-0.016244,0.913495,-2.76,7.68,-49.08,30.292,1.9145,2.0088,55.814022,37.50032,212.2398,0,5897
-0.227456,-0.198725,9.766247,-0.03312,-0.002194,0.912884,-1.92,8.04,-49.56,30.6641,1.8778,2.0316,55.814022,37.50032,212.2398,0,5908
-0.292102,-0.258582,9.759064,-0.036174,-0.002804,0.915938,-1.92,8.04,-49.56,30.6641,1.8778,2.0316,55.814022,37.50032,212.2398,0,5918
-0.409421,-0.332804,9.778218,-0.031287,-0.010746,0.921436,-1.38,7.86,-48.96,30.6641,1.8778,2.0316,55.814022,37.50032,212.2398,0,5928
-0.464489,-0.387873,9.80695,-0.031287,-0.010746,0.921436,-1.38,7.86,-48.96,30.6641,1.8778,2.0316,55.814022,37.50032,212.2398,0,5938
-0.481249,-0.385478,9.835681,-0.020292,-0.015633,0.925101,-1.98,7.2,-48.9,34.2551,1.7845,2.0221,55.814022,37.50032,212.2398,0,5947
-0.481249,-0.385478,9.835681,-0.008685,-0.022352,0.929377,-1.98,7.2,-48.9,34.2551,1.7845,2.0221,55.814022,37.50032,212.2398,0,5958
-0.433364,-0.335198,9.771035,-0.003187,-0.025406,0.93121,-1.92,7.56,-49.08,34.2551,1.7845,2.0221,55.814022,37.50032,212.2398,0,5968
-0.311256,-0.24661,9.759064,0.000478,-0.029683,0.93854,-1.92,7.56,-49.08,34.2551,1.7845,2.0221,55.814022,37.50032,212.2398,0,5978
-0.311256,-0.24661,9.759064,-0.006853,-0.019298,0.940984,-1.2,7.68,-48.96,23.3078,1.7724,2.0978,55.814022,37.50032,212.2398,0,5988
-0.284919,-0.203513,9.775824,-0.017848,-0.013189,0.946481,-1.2,7.68,-48.96,23.3078,1.7724,2.0978,55.814022,37.50032,212.2398,0,5998
-0.335198,-0.191542,9.766247,-0.022735,-0.005859,0.953201,-1.02,7.62,-49.08,23.3078,1.7724,2.0978,55.814022,37.50032,212.2398,0,6007
-0.430969,-0.217879,9.775824,-0.027622,-0.004026,0.965418,-1.02,7.62,-49.08,23.3078,1.7724,2.0978,55.814022,37.50032,212.2398,0,6018
-0.509981,-0.249005,9.766247,-0.033731,-0.008302,0.977025,-1.8,7.2,-49.2,34.6398,1.7163,2.1329,55.814022,37.50032,212.2398,0,6028
-0.509981,-0.249005,9.766247,-0.023957,-0.008913,0.989853,-1.8,7.2,-49.2,34.6398,1.7163,2.1329,55.814022,37.50032,212.2398,0,6038
-0.6273,-0.244216,9.766247,-0.014794,-0.010746,1.006346,-1.08,6.72,-49.2,34.6398,1.7163,2.1329,55.814022,37.50032,212.2398,0,6048
-0.668003,-0.220273,9.744699,-0.016016,-0.022963,1.019785,-1.08,6.72,-49.2,34.6398,1.7163,2.1329,55.814022,37.50032,212.2398,0,6057
-0.579414,-0.258582,9.730332,-0.027622,-0.042511,1.025283,-0.72,7.44,-49.26,27.5714,1.5835,2.2791,55.814022,37.50032,212.2398,0,6068
-0.304073,-0.359141,9.828498,-0.042283,-0.060226,1.028337,-0.72,7.44,-49.26,27.5714,1.5835,2.2791,55.814022,37.50032,212.2398,0,6078
-0.304073,-0.359141,9.828498,-0.038618,-0.047398,1.033835,-0.72,7.5,-49.98,27.5714,1.5835,2.2791,55.814022,37.50032,212.2398,0,6088
-0.090982,-0.466884,9.881172,-0.025179,-0.016244,1.033835,-0.72,7.5,-49.98,27.5714,1.5835,2.2791,55.814022,37.50032,212.2398,0,6097
-0.150839,-0.454912,9.850046,-0.00502,0.011856,1.038722,-0.24,7.44,-49.68,19.2747,1.5768,2.2537,55.814022,37.50032,212.2398,0,6108
-0.366324,-0.34717,9.787795,0.010252,0.012467,1.043609,-0.24,7.44,-49.68,19.2747,1.5768,2.2537,55.814022,37.50032,212.2398,0,6118
-0.584203,-0.177176,9.75667,0.010862,-0.000972,1.04422,-0.36,7.86,-49.38,19.2747,1.5768,2.2537,55.814022,37.50032,212.2398,0,6128
-0.584203,-0.177176,9.75667,0.010862,-0.000972,1.04422,-0.36,7.86,-49.38,19.2747,1.5768,2.2537,55.814022,37.50032,212.2398,0,6138
-0.459701,-0.129291,9.763853,-0.005631,-0.038846,1.047885,-0.18,7.32,-49.38,19.0003,1.5183,2.2957,55.814022,37.50032,212.2398,0,6147
-0.244216,-0.177176,9.759064,-0.033731,-0.04923,1.049107,-0.18,7.32,-49.38,19.0003,1.5183,2.2957,55.814022,37.50032,212.2398,0,6158
-0.196331,-0.287313,9.763853,-0.042283,-0.030293,1.049718,-0.54,7.14,-49.08,19.0003,1.5183,2.2957,55.814022,37.50032,212.2398,0,6168
-0.196331,-0.287313,9.763853,-0.036174,-0.002804,1.049718,-0.54,7.14,-49.08,19.0003,1.5183,2.2957,55.814022,37.50032,212.2398,0,6178
-0.332804,-0.375901,9.79019,-0.036785,0.002693,1.050328,-0.72,7.38,-49.14,27.1676,1.4518,2.2878,55.814022,37.50032,212.2398,0,6187
-0.486038,-0.395055,9.830893,-0.024568,-0.008302,1.050939,-0.72,7.38,-49.14,27.1676,1.4518,2.2878,55.814022,37.50032,212.2398,0,6198
-0.519558,-0.375901,9.814133,-0.007464,-0.016854,1.049718,-0.18,7.32,-49.2,27.1676,1.4518,2.2878,55.814022,37.50032,212.2398,0,6208
-0.519558,-0.375901,9.814133,-0.003187,-0.03518,1.047885,-0.18,7.32,-49.2,27.1676,1.4518,2.2878,55.814022,37.50032,212.2398,0,6218
-0.359141,-0.344776,9.787795,-0.006853,-0.050452,1.048496,0.06,6.84,-48.9,19.0494,1.4574,2.3232,55.814022,37.50032,212.2398,0,6228
-0.198725,-0.301679,9.816526,-0.006853,-0.050452,1.048496,0.06,6.84,-48.9,19.0494,1.4574,2.3232,55.814022,37.50032,212.2398,0,6237
-0.129291,-0.26337,9.840469,-0.005631,-0.021741,1.052161,-0.24,6.78,-48.78,19.0494,1.4574,2.3232,55.814022,37.50032,212.2398,0,6248
-0.24661,-0.205908,9.730332,-0.000744,0.008191,1.055215,-0.24,6.78,-48.78,19.0494,1.4574,2.3232,55.814022,37.50032,212.2398,0,6258
-0.325621,-0.22985,9.751882,-0.003798,0.010024,1.056437,0.66,7.32,-49.56,9.8332,1.5189,2.2722,55.814022,37.50032,212.2398,0,6267
-0.325621,-0.22985,9.751882,-0.017848,-0.007691,1.05827,0.66,7.32,-49.56,9.8332,1.5189,2.2722,55.814022,37.50032,212.2398,0,6278
-0.244216,-0.325621,9.842864,-0.027011,-0.0138,1.057048,1.02,7.14,-49.92,9.8332,1.5189,2.2722,55.814022,37.50032,212.2398,0,6288
-0.090982,-0.438152,9.864412,-0.019681,-0.005248,1.047885,1.02,7.14,-49.92,9.8332,1.5189,2.2722,55.814022,37.50032,212.2398,0,6298
-0.086194,-0.445335,9.842864,0.003532,0.015521,1.04422,0.3,6.72,-49.26,17.8943,1.5151,2.1536,55.814022,37.50032,212.2398,0,6307
-0.323227,-0.306467,9.854836,0.023691,0.044232,1.043609,0.3,6.72,-49.26,17.8943,1.5151,2.1536,55.814022,37.50032,212.2398,0,6318
-0.323227,-0.306467,9.854836,0.032854,0.054006,1.04422,0.3,6.72,-49.26,17.8943,1.5151,2.1536,55.814022,37.50032,212.2398,0,6327
-0.653637,-0.134079,9.811738,0.020025,0.022852,1.04422,1.2,6.84,-48.78,17.8943,1.5151,2.1536,55.814022,37.50032,212.2398,0,6338
-0.926584,0.090982,9.677659,-0.017848,-0.038235,1.040555,1.8,6.84,-49.2,356.8057,1.5886,1.9697,55.814022,37.50032,212.2398,0,6348
-0.648848,0.076617,9.711179,-0.044115,-0.074276,1.043609,1.8,6.84,-49.2,356.8057,1.5886,1.9697,55.814022,37.50032,212.2398,0,6357
-0.275342,-0.057463,9.799767,-0.056333,-0.074276,1.0375,2.04,6.66,-50.04,356.8057,1.5886,1.9697,55.814022,37.50032,212.2398,0,6368
-0.275342,-0.057463,9.799767,-0.053889,-0.041289,1.033835,2.04,6.66,-50.04,356.8057,1.5886,1.9697,55.814022,37.50032,212.2398,0,6378
-0.055068,-0.210696,9.842864,-0.053889,-0.041289,1.033835,1.98,7.2,-49.86,358.8771,1.4226,2.1614,55.814022,37.50032,212.2398,0,6388
-0.126897,-0.311256,9.830893,-0.036174,0.004526,1.02345,1.98,7.2,-49.86,358.8771,1.4226,2.1614,55.814022,37.50032,212.2398,0,6398
-0.268159,-0.342381,9.783007,-0.028233,0.008802,1.01612,1.2,7.32,-49.44,358.8771,1.4226,2.1614,55.814022,37.50032,212.2398,0,6407
-0.383084,-0.385478,9.885961,-0.031287,-0.011967,1.005124,1.2,7.32,-49.44,358.8771,1.4226,2.1614,55.814022,37.50032,212.2398,0,6417
-0.395055,-0.368718,9.895537,-0.028233,-0.025406,0.992296,1.2,7.26,-49.32,8.2381,1.4371,2.1456,55.814022,37.50032,212.2398,0,6428
-0.395055,-0.368718,9.895537,-0.015405,-0.024185,0.990464,1.2,7.26,-49.32,8.2381,1.4371,2.1456,55.814022,37.50032,212.2398,0,6437
-0.335198,-0.320833,9.763853,-0.002577,-0.021741,0.982522,1.2,7.44,-49.32,8.2381,1.4371,2.1456,55.814022,37.50032,212.2398,0,6448
-0.306467,-0.258582,9.77343,0.00231,-0.026628,0.978857,1.2,7.44,-49.32,8.2381,1.4371,2.1456,55.814022,37.50032,212.2398,0,6457
-0.265764,-0.210696,9.840469,-0.000133,-0.026628,0.971527,1.44,7.5,-49.2,7.0659,1.3627,2.1592,55.814022,37.50032,212.2398,0,6468
-0.112531,-0.222668,9.814133,-0.016016,-0.027239,0.963586,1.44,7.5,-49.2,7.0659,1.3627,2.1592,55.814022,37.50032,212.2398,0,6478
-0.112531,-0.222668,9.814133,-0.023346,-0.022963,0.947703,1.38,7.26,-48.66,7.0659,1.3627,2.1592,55.814022,37.50032,212.2398,0,6487
0.03352,-0.251399,9.775824,-0.008074,0.00025,0.944649,1.38,7.26,-48.66,7.0659,1.3627,2.1592,55.814022,37.50032,212.2398,0,6498
0.043097,-0.268159,9.799767,0.002921,0.026517,0.93854,1.26,6.24,-49.14,9.8458,1.3327,2.155,55.814022,37.50032,212.2398,0,6508
-0.162811,-0.196331,9.859624,0.010252,0.046065,0.934264,1.26,6.24,-49.14,9.8458,1.3327,2.155,55.814022,37.50032,212.2398,0,6518
-0.162811,-0.196331,9.859624,0.010252,0.046065,0.934264,1.26,6.24,-49.14,9.8458,1.3327,2.155,55.814022,37.50032,212.2398,0,6528
-0.5435,-0.062251,9.780613,0.007197,0.049119,0.929988,1.74,5.76,-49.86,9.8458,1.3327,2.155,55.814022,37.50032,212.2398,0,6538
-0.794899,0.007183,9.77343,-0.009907,0.013078,0.931821,1.74,6.18,-50.04,359.2409,1.267,2.2164,55.814022,37.50032,212.2398,0,6548
-0.72786,-0.076617,9.73991,-0.0264,-0.022352,0.932431,1.74,6.18,-50.04,359.2409,1.267,2.2164,55.814022,37.50032,212.2398,0,6557
-0.56026,-0.167599,9.775824,-0.038007,-0.049841,0.932431,1.74,6.3,-49.44,359.2409,1.267,2.2164,55.814022,37.50032,212.2398,0,6568
-0.196331,-0.28013,9.850046,-0.034342,-0.059615,0.932431,1.74,6.3,-49.44,359.2409,1.267,2.2164,55.814022,37.50032,212.2398,0,6578
-0.196331,-0.28013,9.850046,-0.019681,-0.039456,0.934264,1.5,6.06,-48.96,359.4299,1.2121,2.2796,55.814022,37.50032,212.2398,0,6587
-0.045491,-0.284919,9.881172,-0.009296,-0.015022,0.930599,1.5,6.06,-48.96,359.4299,1.2121,2.2796,55.814022,37.50032,212.2398,0,6598
-0.24661,-0.138868,9.804555,0.006586,0.017354,0.930599,1.44,5.52,-49.86,359.4299,1.2121,2.2796,55.814022,37.50032,212.2398,0,6608
-0.524346,0.002394,9.732727,0.010862,0.027128,0.929377,1.44,5.52,-49.86,359.4299,1.2121,2.2796,55.814022,37.50032,212.2398,0,6618
-0.524346,0.002394,9.732727,-0.009296,0.002082,0.931821,2.04,5.58,-49.44,358.5175,1.1773,2.1864,55.814022,37.50032,212.2398,0,6628
-0.6273,0.064645,9.713573,-0.034952,-0.032737,0.932431,2.04,5.58,-49.44,358.5175,1.1773,2.1864,55.814022,37.50032,212.2398,0,6637
-0.452518,-0.114925,9.766247,-0.055722,-0.054117,0.931821,2.04,6.42,-49.62,358.5175,1.1773,2.1864,55.814022,37.50032,212.2398,0,6648
-0.119714,-0.354353,9.828498,-0.059387,-0.058393,0.925101,2.04,6.42,-49.62,358.5175,1.1773,2.1864,55.814022,37.50032,212.2398,0,6657
-0.119714,-0.354353,9.828498,-0.037396,-0.033959,0.923879,1.86,5.58,-49.92,359.2483,1.0128,2.2138,55.814022,37.50032,212.2398,0,6668
-0.007183,-0.476461,9.897932,-0.037396,-0.033959,0.923879,1.86,5.58,-49.92,359.2483,1.0128,2.2138,55.814022,37.50032,212.2398,0,6677
-0.143656,-0.445335,9.897932,-0.014794,-0.009524,0.914716,1.8,5.28,-49.74,359.2483,1.0128,2.2138,55.814022,37.50032,212.2398,0,6688
-0.356747,-0.287313,9.840469,0.024912,0.016743,0.907997,2.28,5.76,-50.28,359.2483,1.0128,2.2138,55.814022,37.50032,212.2398,0,6698
-0.112531,-0.174782,9.725544,0.029799,-0.003415,0.90311,2.28,5.76,-50.28,359.2483,1.0128,2.2138,55.814022,37.50032,212.2398,0,6707
-0.112531,-0.174782,9.725544,0.015138,-0.051063,0.88906,2.7,6.54,-50.94,350.32,0.9665,2.1923,55.814022,37.50032,212.2398,0,6718
0.328016,-0.131685,9.763853,-0.005631,-0.051063,0.870123,2.7,6.54,-50.94,350.32,0.9665,2.1923,55.814022,37.50032,212.2398,0,6728
0.268159,0.002394,9.845258,0.022469,0.024684,0.868901,2.76,6.48,-50.16,350.32,0.9665,2.1923,55.814022,37.50032,212.2398,0,6737
-0.270553,0.093377,9.761458,0.013306,0.123034,0.869512,2.76,6.48,-50.16,350.32,0.9665,2.1923,55.814022,37.50032,212.2398,0,6748
-1.156435,0.124502,9.672871,-0.017237,0.124255,0.876843,3.18,5.4,-49.74,343.9982,0.8927,2.0494,55.814022,37.50032,212.2398,0,6758
-1.156435,0.124502,9.672871,-0.044726,0.056449,0.879897,3.18,5.4,-49.74,343.9982,0.8927,2.0494,55.814022,37.50032,212.2398,0,6768
-1.367131,0.021548,9.732727,-0.053889,-0.053506,0.887227,3,4.26,-49.8,343.9982,0.8927,2.0494,55.814022,37.50032,212.2398,0,6778
-0.912219,-0.203513,9.799767,-0.04717,-0.112149,0.893947,3,4.26,-49.8,343.9982,0.8927,2.0494,55.814022,37.50032,212.2398,0,6787
-0.258582,-0.339987,9.833286,-0.030676,-0.117036,0.901888,2.52,4.8,-49.8,345.5412,0.8893,2.1882,55.814022,37.50032,212.2398,0,6798
0.167599,-0.339987,9.912297,0.002921,-0.04923,0.907386,2.52,4.8,-49.8,345.5412,0.8893,2.1882,55.814022,37.50032,212.2398,0,6808
0.167599,-0.339987,9.912297,0.032854,0.021019,0.91044,2.34,5.82,-49.26,345.5412,0.8893,2.1882,55.814022,37.50032,212.2398,0,6817
0.023943,-0.153234,9.842864,0.032854,0.021019,0.91044,2.34,5.82,-49.26,345.5412,0.8893,2.1882,55.814022,37.50032,212.2398,0,6828
-0.361535,0.019154,9.689631,0.027356,0.047286,0.909829,2.64,6.12,-49.32,345.5412,0.8893,2.1882,55.814022,37.50032,212.2398,0,6838
-0.6273,0.119714,9.730332,-0.011129,0.006358,0.920825,2.82,5.94,-49.32,346.9736,0.8342,2.0764,55.814022,37.50032,212.2398,0,6848
-0.430969,-0.019154,9.771035,-0.035563,-0.025406,0.926934,2.82,5.94,-49.32,346.9736,0.8342,2.0764,55.814022,37.50032,212.2398,0,6858
-0.430969,-0.019154,9.771035,-0.047781,-0.042511,0.931821,2.82,5.04,-49.5,346.9736,0.8342,2.0764,55.814022,37.50032,212.2398,0,6868
-0.112531,-0.167599,9.771035,-0.014183,-0.005248,0.935486,2.82,5.04,-49.5,346.9736,0.8342,2.0764,55.814022,37.50032,212.2398,0,6879
-0.064645,-0.193936,9.900327,-0.014183,-0.005248,0.935486,3.24,4.98,-49.08,344.7659,0.7721,2.1245,55.814022,37.50032,212.2398,0,6888
-0.36393,-0.102954,9.866806,0.005975,0.048508,0.94526,3.24,4.98,-49.08,344.7659,0.7721,2.1245,55.814022,37.50032,212.2398,0,6898
-0.794899,0.01676,9.680053,0.003532,0.06378,0.94587,3.72,5.04,-49.08,344.7659,0.7721,2.1245,55.814022,37.50032,212.2398,0,6908
-0.794899,0.01676,9.680053,-0.012961,0.025295,0.950757,3.72,5.04,-49.08,344.7659,0.7721,2.1245,55.814022,37.50032,212.2398,0,6917
-0.900247,0.019154,9.737515,-0.036174,-0.040678,0.955644,3.72,5.04,-49.08,344.7659,0.7721,2.1245,55.814022,37.50032,212.2398,0,6927
-0.524346,-0.126897,9.809344,-0.047781,-0.085271,0.956866,3.54,5.64,-49.38,338.2331,0.7343,2.1671,55.814022,37.50032,212.2398,0,6937
0.062251,-0.306467,9.845258,-0.048392,-0.083439,0.948314,3.6,5.58,-49.68,338.2331,0.7343,2.1671,55.814022,37.50032,212.2398,0,6948
0.062251,-0.306467,9.845258,-0.031898,-0.044343,0.94587,3.6,5.58,-49.68,338.2331,0.7343,2.1671,55.814022,37.50032,212.2398,0,6957
0.162811,-0.342381,9.847652,-0.003187,0.009413,0.941594,3.48,4.98,-49.98,344.8095,0.724,2.0773,55.814022,37.50032,212.2398,0,6968
-0.131685,-0.244216,9.850046,0.020636,0.044843,0.940373,3.48,4.98,-49.98,344.8095,0.724,2.0773,55.814022,37.50032,212.2398,0,6979
-0.536318,-0.093377,9.771035,0.00903,0.024684,0.936097,3.18,4.8,-49.56,344.8095,0.724,2.0773,55.814022,37.50032,212.2398,0,6988
-0.66082,0.014366,9.761458,-0.002577,-0.02052,0.937929,3.18,4.8,-49.56,344.8095,0.724,2.0773,55.814022,37.50032,212.2398,0,6998
-0.66082,0.014366,9.761458,-0.022124,-0.069389,0.930599,3.66,4.5,-49.56,334.1264,0.671,2.1285,55.814022,37.50032,212.2398,0,7008
-0.21309,-0.040703,9.701602,-0.033731,-0.080384,0.927545,3.66,4.5,-49.56,334.1264,0.671,2.1285,55.814022,37.50032,212.2398,0,7018
0.339987,-0.184359,9.785401,-0.033731,-0.080384,0.927545,3.84,4.5,-49.74,334.1264,0.671,2.1285,55.814022,37.50032,212.2398,0,7028
0.498009,-0.253793,9.890749,-0.027622,-0.037013,0.923879,3.84,4.5,-49.74,334.1264,0.671,2.1285,55.814022,37.50032,212.2398,0,7038
-0.019154,-0.186753,9.907509,0.000478,0.067445,0.923879,3.78,4.2,-49.44,327.2922,0.6181,2.069,55.814022,37.50032,212.2398,0,7048
-0.019154,-0.186753,9.907509,0.020636,0.124255,0.926323,3.78,4.2,-49.44,327.2922,0.6181,2.069,55.814022,37.50032,212.2398,0,7058
-0.770956,-0.055068,9.742304,0.011473,0.10654,0.923268,3.96,4.5,-49.26,327.2922,0.6181,2.069,55.814022,37.50032,212.2398,0,7068
-1.161223,0.038308,9.792584,-0.008685,0.02835,0.929377,3.96,4.5,-49.26,327.2922,0.6181,2.069,55.814022,37.50032,212.2398,0,7077
-1.065452,0.047885,9.833286,-0.015405,-0.016854,0.933653,4.26,4.38,-49.56,329.632,0.5447,2.215,55.814022,37.50032,212.2398,0,7088
-0.59378,0.004789,9.754275,-0.018459,-0.073054,0.943427,4.26,4.38,-49.56,329.632,0.5447,2.215,55.814022,37.50032,212.2398,0,7098
-0.114925,-0.004789,9.809344,-0.019681,-0.087104,0.947703,4.26,3.9,-49.62,329.632,0.5447,2.215,55.814022,37.50032,212.2398,0,7108
-0.114925,-0.004789,9.809344,-0.01235,-0.063891,0.954423,4.26,3.9,-49.62,329.632,0.5447,2.215,55.814022,37.50032,212.2398,0,7118
0.057463,0.028731,9.842864,-0.00502,-0.010746,0.953201,4.26,3.9,-49.62,329.632,0.5447,2.215,55.814022,37.50032,212.2398,0,7127
-0.047885,0.119714,9.742304,-0.01235,0.024684,0.950147,4.32,3.84,-49.86,329.6141,0.4921,2.1825,55.814022,37.50032,212.2398,0,7138
-0.320833,0.119714,9.708784,-0.037396,0.019187,0.948925,4.32,4.26,-49.98,329.6141,0.4921,2.1825,55.814022,37.50032,212.2398,0,7148
-0.505192,-0.043097,9.787795,-0.063052,-0.002194,0.951368,4.32,4.26,-49.98,329.6141,0.4921,2.1825,55.814022,37.50032,212.2398,0,7158
-0.505192,-0.043097,9.787795,-0.072215,-0.019909,0.95259,4.32,4.32,-49.92,329.5304,0.4588,2.1549,55.814022,37.50032,212.2398,0,7168
-0.529135,-0.241822,9.907509,-0.052057,-0.032737,0.957477,4.32,4.32,-49.92,329.5304,0.4588,2.1549,55.814022,37.50032,212.2398,0,7178
-0.433364,-0.395055,9.945818,-0.027622,-0.037013,0.955644,4.56,4.02,-50.04,329.5304,0.4588,2.1549,55.814022,37.50032,212.2398,0,7188
-0.217879,-0.430969,9.840469,-0.027622,-0.037013,0.955644,4.56,4.02,-50.04,329.5304,0.4588,2.1549,55.814022,37.50032,212.2398,0,7197
-0.217879,-0.430969,9.840469,-0.006853,-0.036402,0.95259,4.08,4.32,-49.26,328.7405,0.4875,2.1319,55.814022,37.50032,212.2398,0,7208
-0.172388,-0.306467,9.900327,0.021247,-0.029072,0.949536,4.08,4.32,-49.26,328.7405,0.4875,2.1319,55.814022,37.50032,212.2398,0,7218
-0.203513,-0.150839,9.907509,0.040184,-0.000972,0.944649,3.84,4.2,-49.2,328.7405,0.4875,2.1319,55.814022,37.50032,212.2398,0,7228
-0.234639,0.040703,9.747093,0.029799,-0.005859,0.940373,3.84,4.2,-49.2,328.7405,0.4875,2.1319,55.814022,37.50032,212.2398,0,7237
-0.107742,0.134079,9.742304,0.006586,-0.029072,0.929377,4.02,4.02,-49.98,329.0409,0.4085,2.0771,55.814022,37.50032,212.2398,0,7248
-0.107742,0.134079,9.742304,-0.008074,-0.044954,0.921436,4.02,4.02,-49.98,329.0409,0.4085,2.0771,55.814022,37.50032,212.2398,0,7257
0.361536,0.031126,9.713573,-0.030676,-0.033959,0.906164,4.44,3.96,-49.92,329.0409,0.4085,2.0771,55.814022,37.50032,212.2398,0,7268
0.373507,0.028731,9.876384,-0.014183,0.024684,0.894558,4.44,3.96,-49.92,329.0409,0.4085,2.0771,55.814022,37.50032,212.2398,0,7278
0.102954,0.03352,9.838076,-0.007464,0.091269,0.890893,4.5,3.06,-49.8,310.1187,0.3202,2.0278,55.814022,37.50032,212.2398,0,7288
-0.651243,0.114925,9.814133,-0.014183,0.115703,0.89578,4.5,3.06,-49.8,310.1187,0.3202,2.0278,55.814022,37.50032,212.2398,0,7298
-0.651243,0.114925,9.814133,-0.036785,0.060115,0.904943,4.44,3,-50.22,310.1187,0.3202,2.0278,55.814022,37.50032,212.2398,0,7308
-1.106155,0.045491,9.744699,-0.052668,-0.012578,0.912273,4.44,3,-50.22,310.1187,0.3202,2.0278,55.814022,37.50032,212.2398,0,7318
-1.096578,-0.074223,9.866806,-0.052668,-0.012578,0.912273,4.38,3.18,-50.04,318.9609,0.288,1.8404,55.814022,37.50032,212.2398,0,7328
-0.684763,-0.287313,9.933846,-0.0545,-0.064502,0.926323,4.38,3.18,-50.04,318.9609,0.288,1.8404,55.814022,37.50032,212.2398,0,7338
-0.359141,-0.383084,9.888355,-0.032509,-0.066334,0.953201,4.02,2.88,-49.98,318.9609,0.288,1.8404,55.814022,37.50032,212.2398,0,7347
-0.359141,-0.383084,9.888355,-0.002577,-0.053506,0.962364,4.02,2.88,-49.98,318.9609,0.288,1.8404,55.814022,37.50032,212.2398,0,7357
-0.093377,-0.29689,9.852441,0.022469,-0.043122,0.962975,4.14,2.88,-49.86,318.0596,0.2956,1.759,55.814022,37.50032,212.2398,0,7369
0.004789,-0.112531,9.900327,0.03774,-0.02052,0.963586,4.14,2.88,-49.86,318.0596,0.2956,1.759,55.814022,37.50032,212.2398,0,7378
-0.071828,0.165205,9.840469,0.034075,0.003915,0.967251,4.26,2.64,-50.28,318.0596,0.2956,1.759,55.814022,37.50032,212.2398,0,7387
-0.339987,0.332804,9.680053,0.010252,0.025906,0.977635,4.38,2.64,-49.92,318.0596,0.2956,1.759,55.814022,37.50032,212.2398,0,7398
-0.339987,0.332804,9.680053,0.010252,0.025906,0.977635,4.38,2.64,-49.92,318.0596,0.2956,1.759,55.814022,37.50032,212.2398,0,7408
-0.486038,0.284919,9.613013,-0.039229,-0.004637,0.993518,5.04,2.46,-50.4,297.7875,0.1902,1.74,55.814022,37.50032,212.2398,0,7418
-0.332804,-0.035914,9.924269,-0.07527,-0.035791,0.997183,5.04,2.46,-50.4,297.7875,0.1902,1.74,55.814022,37.50032,212.2398,0,7428
-0.332804,-0.035914,9.924269,-0.086265,-0.043122,1.000237,5.16,2.22,-50.16,297.7875,0.1902,1.74,55.814022,37.50032,212.2398,0,7438
-0.208302,-0.299284,9.976943,-0.061831,-0.016244,1.014898,5.16,2.22,-50.16,297.7875,0.1902,1.74,55.814022,37.50032,212.2398,0,7448
-0.191542,-0.392661,9.909904,-0.030066,0.000861,1.021007,4.98,2.28,-49.86,297.462,0.2128,1.7281,55.814022,37.50032,212.2398,0,7457
-0.24661,-0.356747,9.828498,-0.000744,0.013078,1.03017,4.98,2.28,-49.86,297.462,0.2128,1.7281,55.814022,37.50032,212.2398,0,7468
-0.442941,-0.167599,9.888355,0.023691,0.003304,1.038722,5.22,1.68,-50.28,297.462,0.2128,1.7281,55.814022,37.50032,212.2398,0,7478
-0.478855,-0.007183,9.895537,0.018804,-0.002194,1.047274,5.22,1.68,-50.28,297.462,0.2128,1.7281,55.814022,37.50032,212.2398,0,7488
-0.478855,-0.007183,9.895537,0.018804,-0.002194,1.047274,4.8,1.26,-50.4,282.9916,0.222,1.725,55.814022,37.50032,212.2398,0,7497
-0.481249,0.141262,9.754275,-0.001355,-0.015022,1.060713,4.8,1.26,-50.4,282.9916,0.222,1.725,55.814022,37.50032,212.2398,0,7507
-0.39745,0.179571,9.677659,-0.022735,-0.021741,1.07232,5.04,2.22,-50.64,282.9916,0.222,1.725,55.814022,37.50032,212.2398,0,7518
-0.311256,0.064645,9.804555,-0.039229,-0.032126,1.080872,5.04,2.22,-50.64,282.9916,0.222,1.725,55.814022,37.50032,212.2398,0,7528
-0.311256,0.064645,9.804555,-0.04717,-0.032126,1.085148,4.62,3,-50.4,309.5073,0.1278,1.7135,55.814022,37.50032,212.2398,0,7538
-0.244216,-0.079011,9.917087,-0.047781,-0.015633,1.092478,4.62,3,-50.4,309.5073,0.1278,1.7135,55.814022,37.50032,212.2398,0,7547
-0.256187,-0.169993,9.854836,-0.037396,-0.005859,1.094922,4.14,2.28,-50.52,309.5073,0.1278,1.7135,55.814022,37.50032,212.2398,0,7558
-0.256187,-0.208302,9.759064,-0.023346,-0.012578,1.099198,4.14,2.28,-50.52,309.5073,0.1278,1.7135,55.814022,37.50032,212.2398,0,7568
-0.21309,-0.177176,9.850046,-0.008685,-0.02052,1.097365,4.8,2.04,-50.16,297.7964,0.1504,1.6658,55.814022,37.50032,212.2398,0,7578
-0.225062,-0.088588,9.921875,-0.000744,-0.014411,1.10103,4.8,2.04,-50.16,297.7964,0.1504,1.6658,55.814022,37.50032,212.2398,0,7588
-0.225062,-0.088588,9.921875,-0.001966,-0.003415,1.10103,4.38,1.5,-49.98,297.7964,0.1504,1.6658,55.814022,37.50032,212.2398,0,7598
-0.210696,0.007183,9.802161,-0.010518,0.003304,1.106528,4.38,1.5,-49.98,297.7964,0.1504,1.6658,55.814022,37.50032,212.2398,0,7607
-0.294496,0.05028,9.749487,-0.022124,-0.000972,1.108361,4.92,1.14,-50.22,284.2294,0.1092,1.6403,55.814022,37.50032,212.2398,0,7618
-0.320833,0.026337,9.75667,-0.032509,-0.007081,1.10775,4.92,1.14,-50.22,284.2294,0.1092,1.6403,55.814022,37.50032,212.2398,0,7628
-0.344776,-0.064645,9.826104,-0.036174,-0.019909,1.108972,5.58,1.56,-49.8,284.2294,0.1092,1.6403,55.814022,37.50032,212.2398,0,7637
-0.344776,-0.064645,9.826104,-0.036174,-0.021741,1.106528,5.58,1.56,-49.8,284.2294,0.1092,1.6403,55.814022,37.50032,212.2398,0,7648
-0.311256,-0.162811,9.862018,-0.027622,-0.019298,1.112026,4.56,1.08,-50.1,284.6028,0.0793,1.6344,55.814022,37.50032,212.2398,0,7657
-0.191542,-0.179571,9.79019,-0.01907,-0.025406,1.108361,4.56,1.08,-50.1,284.6028,0.0793,1.6344,55.814022,37.50032,212.2398,0,7668
-0.086194,-0.148445,9.809344,-0.009296,-0.031515,1.106528,4.44,0.6,-50.76,284.6028,0.0793,1.6344,55.814022,37.50032,212.2398,0,7678
-0.086194,-0.148445,9.809344,-0.001966,-0.016244,1.104085,4.44,0.6,-50.76,284.6028,0.0793,1.6344,55.814022,37.50032,212.2398,0,7688
-0.076617,-0.055068,9.845258,-0.001966,-0.016244,1.104085,4.44,0.6,-50.76,284.6028,0.0793,1.6344,55.814022,37.50032,212.2398,0,7697
-0.138868,0.026337,9.783007,-0.000133,0.004526,1.107139,5.04,0.36,-50.94,267.4307,0.1787,1.624,55.814022,37.50032,212.2398,0,7708
-0.222668,0.047885,9.754275,-0.012961,0.005137,1.104085,5.16,0.36,-50.52,267.4307,0.1787,1.624,55.814022,37.50032,212.2398,0,7718
-0.294496,0.007183,9.763853,-0.02579,-0.004026,1.108361,4.62,0.18,-50.88,267.4307,0.1787,1.624,55.814022,37.50032,212.2398,0,7728
-0.294496,0.007183,9.763853,-0.034952,-0.005248,1.114469,4.62,0.18,-50.88,267.4307,0.1787,1.624,55.814022,37.50032,212.2398,0,7738
-0.337593,-0.05028,9.859624,-0.030066,0.002693,1.121189,4.68,0.06,-50.76,266.66,0.2421,1.4587,55.814022,37.50032,212.2398,0,7748
-0.454912,-0.071828,9.838076,-0.021513,-0.000972,1.128519,4.68,0.06,-50.76,266.66,0.2421,1.4587,55.814022,37.50032,212.2398,0,7757
-0.500403,-0.055068,9.814133,-0.014794,-0.011357,1.133406,5.16,0,-50.16,266.66,0.2421,1.4587,55.814022,37.50032,212.2398,0,7768
-0.349564,-0.038308,9.778218,-0.015405,-0.033348,1.138293,5.16,0,-50.16,266.66,0.2421,1.4587,55.814022,37.50032,212.2398,0,7778
-0.349564,-0.038308,9.778218,-0.020292,-0.048619,1.140737,5.34,0.42,-49.86,266.7423,0.2413,1.479,55.814022,37.50032,212.2398,0,7787
-0.181965,-0.043097,9.821315,-0.024568,-0.0419,1.141958,5.34,0.42,-49.86,266.7423,0.2413,1.479,55.814022,37.50032,212.2398,0,7798
-0.088588,-0.023943,9.821315,-0.023957,-0.022352,1.138293,5.16,0.48,-50.4,266.7423,0.2413,1.479,55.814022,37.50032,212.2398,0,7808
-0.117319,-0.021548,9.761458,-0.023957,-0.008913,1.132795,5.16,0.48,-50.4,266.7423,0.2413,1.479,55.814022,37.50032,212.2398,0,7818
-0.181965,-0.069434,9.766247,-0.030676,-0.015633,1.124243,5.16,-0.12,-50.28,266.7268,0.2388,1.5425,55.814022,37.50032,212.2398,0,7828
-0.181965,-0.069434,9.766247,-0.034342,-0.032737,1.112637,5.16,-0.12,-50.28,266.7268,0.2388,1.5425,55.814022,37.50032,212.2398,0,7838
-0.138868,-0.138868,9.830893,-0.034342,-0.032737,1.112637,5.16,-0.12,-50.28,266.7268,0.2388,1.5425,55.814022,37.50032,212.2398,0,7847
-0.040703,-0.162811,9.852441,-0.03312,-0.033959,1.094922,4.86,-0.6,-50.1,266.7268,0.2388,1.5425,55.814022,37.50032,212.2398,0,7858
-0.002394,-0.162811,9.833286,-0.017237,-0.026017,1.080261,4.86,-0.6,-50.1,266.7268,0.2388,1.5425,55.814022,37.50032,212.2398,0,7868
0.189148,-0.143656,9.747093,-0.011129,-0.022963,1.074763,5.16,-0.42,-49.98,266.2481,0.2873,1.3384,55.814022,37.50032,212.2398,0,7878
0.160416,-0.107742,9.804555,-0.016016,-0.016244,1.045442,5.7,-0.36,-50.1,266.2481,0.2873,1.3384,55.814022,37.50032,212.2398,0,7887
0.160416,-0.107742,9.804555,-0.008685,0.006358,1.034446,5.7,-0.36,-50.1,266.2481,0.2873,1.3384,55.814022,37.50032,212.2398,0,7898
0.081405,-0.062251,9.80695,-0.01235,0.013689,1.024061,4.92,-0.84,-50.16,252.0254,0.3572,1.0936,55.814022,37.50032,212.2398,0,7908
-0.095771,-0.064645,9.799767,-0.018459,0.016132,1.009401,4.92,-0.84,-50.16,252.0254,0.3572,1.0936,55.814022,37.50032,212.2398,0,7917
-0.265764,-0.035914,9.823709,-0.016627,0.012467,1.000237,4.62,-0.6,-50.4,252.0254,0.3572,1.0936,55.814022,37.50032,212.2398,0,7928
-0.265764,-0.035914,9.823709,-0.01235,0.005137,0.990464,4.62,-0.6,-50.4,252.0254,0.3572,1.0936,55.814022,37.50032,212.2398,0,7938
-0.299284,-0.019154,9.811738,-0.012961,-0.016244,0.986798,4.98,-0.36,-50.58,265.3922,0.3682,1.0412,55.814022,37.50032,212.2398,0,7948
-0.299284,0.031126,9.838076,-0.011129,-0.015633,0.984966,4.98,-0.36,-50.58,265.3922,0.3682,1.0412,55.814022,37.50032,212.2398,0,7960
-0.237033,0.071828,9.720756,-0.011129,-0.018687,0.981301,4.98,-0.36,-50.58,265.3922,0.3682,1.0412,55.814022,37.50032,212.2398,0,7968
-0.112531,0.057463,9.730332,-0.016016,-0.028461,0.977025,4.8,-1.26,-50.1,265.3922,0.3682,1.0412,55.814022,37.50032,212.2398,0,7977
-0.112531,0.057463,9.730332,-0.033731,-0.031515,0.96664,4.8,-1.62,-50.22,240.5909,0.3554,1.0314,55.814022,37.50032,212.2398,0,7988
0.002394,-0.047885,9.811738,-0.041061,-0.02785,0.961753,4.8,-1.62,-50.22,240.5909,0.3554,1.0314,55.814022,37.50032,212.2398,0,7998
-0.004789,-0.160416,9.838076,-0.044726,-0.017465,0.954423,5.22,-1.14,-50.22,240.5909,0.3554,1.0314,55.814022,37.50032,212.2398,0,8007
-0.0838,-0.24661,9.838076,-0.031287,-0.008913,0.943427,5.22,-1.14,-50.22,240.5909,0.3554,1.0314,55.814022,37.50032,212.2398,0,8018
-0.150839,-0.21309,9.845258,-0.01235,-0.011357,0.929377,5.16,-1.38,-50.22,252.1517,0.3815,0.9834,55.814022,37.50032,212.2398,0,8028
-0.150839,-0.21309,9.845258,0.005975,-0.016244,0.917771,5.16,-1.38,-50.22,252.1517,0.3815,0.9834,55.814022,37.50032,212.2398,0,8038
-0.102954,-0.107742,9.811738,0.012084,-0.030293,0.907386,5.04,-1.86,-50.22,252.1517,0.3815,0.9834,55.814022,37.50032,212.2398,0,8048
0.047885,0,9.797373,0.006586,-0.03518,0.893947,5.04,-1.86,-50.22,252.1517,0.3815,0.9834,55.814022,37.50032,212.2398,0,8057
0.215485,0.086194,9.771035,0.001089,-0.026017,0.879897,4.68,-1.2,-50.76,252.1094,0.3774,0.9654,55.814022,37.50032,212.2398,0,8068
0.215485,0.086194,9.771035,-0.01235,-0.002804,0.870734,4.68,-1.2,-50.76,252.1094,0.3774,0.9654,55.814022,37.50032,212.2398,0,8078
0.260976,0.088588,9.715967,-0.02579,0.011856,0.856073,4.38,-1.26,-50.76,252.1094,0.3774,0.9654,55.814022,37.50032,212.2398,0,8088
0.095771,0.011971,9.766247,-0.034952,0.026517,0.843856,4.38,-1.26,-50.76,252.1094,0.3774,0.9654,55.814022,37.50032,212.2398,0,8097
-0.129291,-0.045491,9.873989,-0.031287,0.030793,0.842023,4.74,-1.92,-50.88,241.0724,0.3437,0.9283,55.814022,37.50032,212.2398,0,8108
-0.371113,-0.0838,9.852441,-0.022735,0.025295,0.838969,4.74,-1.92,-50.88,241.0724,0.3437,0.9283,55.814022,37.50032,212.2398,0,8117
-0.371113,-0.0838,9.852441,-0.014183,-0.000361,0.835304,4.68,-2.22,-51.3,241.0724,0.3437,0.9283,55.814022,37.50032,212.2398,0,8128
-0.416604,-0.069434,9.778218,-0.008685,-0.02785,0.840191,4.68,-2.22,-51.3,241.0724,0.3437,0.9283,55.814022,37.50032,212.2398,0,8138
-0.306467,-0.064645,9.833286,-0.008685,-0.02785,0.840191,4.68,-2.22,-51.3,241.0724,0.3437,0.9283,55.814022,37.50032,212.2398,0,8148
-0.186753,-0.007183,9.852441,-0.004409,-0.030904,0.845689,4.32,-2.16,-50.76,233.1591,0.3751,0.9929,55.814022,37.50032,212.2398,0,8157
-0.160416,0.01676,9.828498,-0.005631,-0.018687,0.85363,3.9,-2.22,-50.94,233.1591,0.3751,0.9929,55.814022,37.50032,212.2398,0,8168
-0.160416,0.01676,9.828498,-0.011129,-0.010135,0.856073,3.9,-2.22,-50.94,233.1591,0.3751,0.9929,55.814022,37.50032,212.2398,0,8178
-0.160416,0.023943,9.771035,-0.022124,-0.018076,0.856073,3.96,-2.46,-51.6,233.3649,0.3614,0.9569,55.814022,37.50032,212.2398,0,8188
-0.129291,-0.021548,9.802161,-0.02579,-0.022352,0.856684,3.96,-2.46,-51.6,233.3649,0.3614,0.9569,55.814022,37.50032,212.2398,0,8198
-0.086194,-0.059857,9.838076,-0.022124,-0.02113,0.858517,4.26,-2.58,-51.66,233.3649,0.3614,0.9569,55.814022,37.50032,212.2398,0,8207
-0.090982,-0.086194,9.852441,-0.012961,-0.011967,0.861571,4.26,-2.58,-51.66,233.3649,0.3614,0.9569,55.814022,37.50032,212.2398,0,8218
-0.090982,-0.086194,9.852441,-0.009296,-0.011357,0.86096,4.56,-2.76,-51.18,231.4098,0.371,0.9276,55.814022,37.50032,212.2398,0,8228
-0.117319,-0.052674,9.797373,-0.006242,-0.017465,0.856684,4.56,-2.76,-51.18,231.4098,0.371,0.9276,55.814022,37.50032,212.2398,0,8238
-0.098165,-0.03352,9.816526,-0.011129,-0.022352,0.850576,4.26,-2.94,-50.7,231.4098,0.371,0.9276,55.814022,37.50032,212.2398,0,8248
-0.014366,-0.011971,9.818921,-0.009296,-0.02052,0.843856,4.26,-2.94,-50.7,231.4098,0.371,0.9276,55.814022,37.50032,212.2398,0,8258
-0.014366,-0.011971,9.818921,-0.009296,-0.02052,0.843856,4.26,-2.94,-50.7,231.4098,0.371,0.9276,55.814022,37.50032,212.2398,0,8268
0.088588,0,9.780613,-0.014183,-0.017465,0.835915,3.54,-3.12,-50.82,224.5885,0.3142,0.8611,55.814022,37.50032,212.2398,0,8278
0.062251,-0.007183,9.838076,-0.014794,-0.000361,0.835915,3.66,-2.94,-51.06,224.5885,0.3142,0.8611,55.814022,37.50032,212.2398,0,8288
-0.134079,-0.026337,9.778218,-0.016627,0.018576,0.835915,3.66,-2.94,-51.06,224.5885,0.3142,0.8611,55.814022,37.50032,212.2398,0,8298
-0.134079,-0.026337,9.778218,-0.017237,0.010024,0.831639,3.96,-3.12,-51.42,226.1714,0.2678,0.7033,55.814022,37.50032,212.2398,0,8308
-0.24661,-0.023943,9.864412,-0.020292,-0.011357,0.834082,3.96,-3.12,-51.42,226.1714,0.2678,0.7033,55.814022,37.50032,212.2398,0,8318
-0.220273,-0.05028,9.845258,-0.017237,-0.02113,0.830417,3.42,-2.88,-51.06,226.1714,0.2678,0.7033,55.814022,37.50032,212.2398,0,8328
-0.150839,-0.043097,9.838076,-0.012961,-0.022963,0.833471,3.42,-2.88,-51.06,226.1714,0.2678,0.7033,55.814022,37.50032,212.2398,0,8337
-0.10056,-0.002394,9.842864,-0.009907,-0.0138,0.833471,3.36,-2.58,-50.28,217.491,0.2411,0.6155,55.814022,37.50032,212.2398,0,8348
-0.10056,-0.002394,9.842864,-0.01174,-0.003415,0.834082,3.36,-2.58,-50.28,217.491,0.2411,0.6155,55.814022,37.50032,212.2398,0,8358
-0.129291,0.043097,9.794978,-0.013572,-0.010746,0.834693,3.12,-3.3,-50.7,217.491,0.2411,0.6155,55.814022,37.50032,212.2398,0,8367
-0.090982,0.038308,9.778218,-0.021513,-0.027239,0.834082,3.12,-3.3,-50.7,217.491,0.2411,0.6155,55.814022,37.50032,212.2398,0,8379
-0.023943,0.011971,9.833286,-0.027011,-0.02052,0.83286,2.46,-3.36,-51.72,204.2506,0.2144,0.6179,55.814022,37.50032,212.2398,0,8387
-0.031126,-0.081405,9.763853,-0.031898,-0.003415,0.837136,2.46,-3.36,-51.72,204.2506,0.2144,0.6179,55.814022,37.50032,212.2398,0,8398
-0.031126,-0.081405,9.763853,-0.031898,-0.005248,0.834693,2.46,-3.18,-51.6,204.2506,0.2144,0.6179,55.814022,37.50032,212.2398,0,8408
-0.117319,-0.158022,9.866806,-0.024568,-0.008302,0.83225,2.46,-3.18,-51.6,204.2506,0.2144,0.6179,55.814022,37.50032,212.2398,0,8417
-0.208302,-0.189148,9.945818,-0.015405,-0.005248,0.828584,3.42,-3.24,-51.3,218.2129,0.1834,0.5723,55.814022,37.50032,212.2398,0,8428
-0.143656,-0.174782,9.766247,-0.003798,-0.021741,0.823697,3.42,-3.24,-51.3,218.2129,0.1834,0.5723,55.814022,37.50032,212.2398,0,8438
-0.143656,-0.174782,9.766247,0.004143,-0.041289,0.820643,3.42,-3.24,-51.3,218.2129,0.1834,0.5723,55.814022,37.50032,212.2398,0,8448
0.002394,-0.131685,9.811738,0.012695,-0.034569,0.815145,3.48,-2.58,-51.06,218.2129,0.1834,0.5723,55.814022,37.50032,212.2398,0,8457
0.110137,0.009577,9.876384,0.014528,-0.004026,0.815756,3.48,-2.64,-51.54,217.4571,0.2754,0.5618,55.814022,37.50032,212.2398,0,8468
0.071828,0.105348,9.80695,-0.001355,0.001472,0.806593,3.48,-2.64,-51.54,217.4571,0.2754,0.5618,55.814022,37.50032,212.2398,0,8477
-0.009577,0.141262,9.737515,-0.017237,-0.004026,0.803539,4.14,-3.18,-52.08,217.4571,0.2754,0.5618,55.814022,37.50032,212.2398,0,8488
-0.009577,0.141262,9.737515,-0.030676,-0.010135,0.80415,4.14,-3.18,-52.08,217.4571,0.2754,0.5618,55.814022,37.50032,212.2398,0,8498
-0.055068,0.057463,9.754275,-0.038618,-0.0138,0.808426,3.84,-3.54,-51.66,220.0157,0.2985,0.4563,55.814022,37.50032,212.2398,0,8508
-0.007183,-0.086194,9.864412,-0.038618,-0.0138,0.808426,3.84,-3.54,-51.66,220.0157,0.2985,0.4563,55.814022,37.50032,212.2398,0,8517
-0.028731,-0.181965,9.924269,-0.031287,-0.009524,0.810869,4.32,-4.08,-51.54,220.0157,0.2985,0.4563,55.814022,37.50032,212.2398,0,8527
-0.028731,-0.181965,9.924269,-0.017237,0.00758,0.8182,4.32,-4.08,-51.54,220.0157,0.2985,0.4563,55.814022,37.50032,212.2398,0,8538
-0.191542,-0.131685,9.854836,0.000478,0.015521,0.826141,4.26,-4.38,-51.66,221.1272,0.2548,0.3363,55.814022,37.50032,212.2398,0,8548
-0.311256,-0.035914,9.794978,0.007808,0.008191,0.831639,4.26,-4.38,-51.66,221.1272,0.2548,0.3363,55.814022,37.50032,212.2398,0,8557
-0.304073,0.059857,9.802161,0.007197,-0.014411,0.838969,4.26,-4.62,-51.18,221.1272,0.2548,0.3363,55.814022,37.50032,212.2398,0,8568
-0.181965,0.117319,9.794978,-0.001355,-0.02785,0.843245,4.26,-4.62,-51.18,221.1272,0.2548,0.3363,55.814022,37.50032,212.2398,0,8577
-0.181965,0.117319,9.794978,-0.017848,-0.038846,0.843245,4.26,-4.62,-51.18,221.1272,0.2548,0.3363,55.814022,37.50032,212.2398,0,8588
-0.181965,0.117319,9.794978,-0.017848,-0.038846,0.843245,4.26,-4.62,-51.18,221.1272,0.2548,0.3363,55.814022,37.50032,212.2398,0,8598
-0.074223,0.134079,9.763853,-0.020292,-0.038846,0.848743,3.84,-4.68,-50.4,215.002,0.2834,0.3729,55.814022,37.50032,212.2398,0,8608
-0.074223,0.134079,9.763853,-0.044115,0.002082,0.858517,3.84,-4.68,-50.4,215.002,0.2834,0.3729,55.814022,37.50032,212.2398,0,8617
-0.117319,-0.162811,9.799767,-0.037396,-0.018687,0.856073,3.48,-4.62,-51.12,215.002,0.2834,0.3729,55.814022,37.50032,212.2398,0,8628
-0.148445,-0.210696,9.912297,-0.020903,-0.028461,0.851186,3.48,-4.62,-51.12,215.002,0.2834,0.3729,55.814022,37.50032,212.2398,0,8637
-0.069434,-0.220273,9.888355,0.000478,-0.024796,0.853019,3.72,-4.32,-51.12,220.4788,0.2136,0.4761,55.814022,37.50032,212.2398,0,8647
0.045491,-0.117319,9.766247,0.010862,-0.029683,0.848132,3.72,-4.32,-51.12,220.4788,0.2136,0.4761,55.814022,37.50032,212.2398,0,8658
0.045491,-0.117319,9.766247,0.010862,-0.029683,0.848132,3.24,-4.38,-51.24,220.4788,0.2136,0.4761,55.814022,37.50032,212.2398,0,8668
0.122108,-0.026337,9.818921,0.007197,-0.022963,0.842634,3.24,-4.38,-51.24,220.4788,0.2136,0.4761,55.814022,37.50032,212.2398,0,8678
0.143657,0.031126,9.783007,-0.001966,-0.007691,0.83958,3.3,-4.98,-50.82,206.0392,0.3135,0.4726,55.814022,37.50032,212.2398,0,8688
0.196331,-0.026337,9.735122,-0.017237,-0.010746,0.833471,3.3,-4.98,-50.82,206.0392,0.3135,0.4726,55.814022,37.50032,212.2398,0,8698
0.196331,-0.026337,9.735122,-0.031898,-0.010746,0.824308,3.66,-5.1,-50.22,206.0392,0.3135,0.4726,55.814022,37.50032,212.2398,0,8707
0.122108,-0.105348,9.840469,-0.0264,0.006358,0.81881,3.66,-5.1,-50.22,206.0392,0.3135,0.4726,55.814022,37.50032,212.2398,0,8718
0.055068,-0.181965,9.883567,-0.017237,0.012467,0.81881,3,-5.04,-50.16,207.2317,0.3556,0.3061,55.814022,37.50032,212.2398,0,8728
-0.136474,-0.169993,9.876384,-0.006242,0.017354,0.821254,3,-5.04,-50.16,207.2317,0.3556,0.3061,55.814022,37.50032,212.2398,0,8738
-0.268159,-0.076617,9.780613,0.007808,0.0143,0.819421,1.98,-4.8,-50.28,207.2317,0.3556,0.3061,55.814022,37.50032,212.2398,0,8748
-0.268159,-0.076617,9.780613,0.007808,-0.007081,0.822476,1.98,-4.8,-50.28,207.2317,0.3556,0.3061,55.814022,37.50032,212.2398,0,8758
-0.181965,0.004789,9.751882,0.003532,-0.036402,0.823087,2.1,-4.92,-50.64,199.1957,0.425,0.1433,55.814022,37.50032,212.2398,0,8768
-0.021548,0.069434,9.840469,-0.001355,-0.037624,0.823697,2.1,-4.92,-50.64,199.1957,0.425,0.1433,55.814022,37.50032,212.2398,0,8777
0.059857,0.095771,9.802161,-0.004409,-0.015022,0.828584,2.94,-5.52,-50.82,199.1957,0.425,0.1433,55.814022,37.50032,212.2398,0,8787
0.059857,0.095771,9.802161,-0.01907,0.002693,0.833471,2.94,-5.52,-50.82,199.1957,0.425,0.1433,55.814022,37.50032,212.2398,0,8798
-0.031126,0.064645,9.718362,-0.030676,0.002693,0.837747,2.76,-4.74,-50.76,207.9069,0.3681,0.2004,55.814022,37.50032,212.2398,0,8808
-0.141262,-0.03352,9.780613,-0.04045,-0.009524,0.840191,2.76,-4.74,-50.76,207.9069,0.3681,0.2004,55.814022,37.50032,212.2398,0,8818
-0.191542,-0.093377,9.854836,-0.036785,-0.017465,0.845689,2.1,-5.04,-51.36,207.9069,0.3681,0.2004,55.814022,37.50032,212.2398,0,8828
-0.095771,-0.177176,9.80695,-0.028233,-0.026628,0.846299,2.1,-5.04,-51.36,207.9069,0.3681,0.2004,55.814022,37.50032,212.2398,0,8838
-0.095771,-0.177176,9.80695,-0.014794,-0.030904,0.84691,2.64,-5.28,-51.18,207.8142,0.3416,0.2267,55.814022,37.50032,212.2398,0,8848
0,-0.186753,9.797373,-0.006853,-0.024796,0.848132,2.64,-5.28,-51.18,207.8142,0.3416,0.2267,55.814022,37.50032,212.2398,0,8857
0.059857,-0.148445,9.842864,-0.002577,-0.010746,0.844467,2.58,-5.46,-50.4,207.8142,0.3416,0.2267,55.814022,37.50032,212.2398,0,8868
0,-0.06704,9.811738,0.001089,-0.007691,0.847521,2.58,-5.46,-50.4,207.8142,0.3416,0.2267,55.814022,37.50032,212.2398,0,8878
0,-0.06704,9.811738,-0.002577,-0.009524,0.844467,2.22,-5.94,-49.92,195.5692,0.3862,0.2685,55.814022,37.50032,212.2398,0,8888
-0.002394,-0.009577,9.775824,-0.016016,-0.02052,0.83958,2.22,-5.94,-49.92,195.5692,0.3862,0.2685,55.814022,37.50032,212.2398,0,8898
0.011971,-0.021548,9.759064,-0.021513,-0.026017,0.837136,1.98,-5.58,-50.16,195.5692,0.3862,0.2685,55.814022,37.50032,212.2398,0,8908
0.011971,-0.021548,9.759064,-0.021513,-0.026017,0.837136,1.98,-5.58,-50.16,195.5692,0.3862,0.2685,55.814022,37.50032,212.2398,0,8918
0.10056,-0.06704,9.804555,-0.02579,-0.022963,0.83286,2.1,-5.4,-50.52,195.5692,0.3862,0.2685,55.814022,37.50032,212.2398,0,8927
0.088588,-0.162811,9.80695,-0.023346,-0.007691,0.829195,1.86,-5.76,-51.6,195.7979,0.434,0.2104,55.814022,37.50032,212.2398,0,8938
0.05028,-0.177176,9.79019,-0.014794,-0.002194,0.823087,1.86,-5.76,-51.6,195.7979,0.434,0.2104,55.814022,37.50032,212.2398,0,8948
-0.007183,-0.165205,9.816526,-0.008074,-0.005248,0.81881,1.8,-5.1,-50.7,195.7979,0.434,0.2104,55.814022,37.50032,212.2398,0,8958
-0.007183,-0.165205,9.816526,-0.008685,-0.014411,0.813313,1.8,-5.1,-50.7,195.7979,0.434,0.2104,55.814022,37.50032,212.2398,0,8967
0.059857,-0.162811,9.818921,-0.008685,-0.017465,0.807815,1.98,-5.28,-50.7,195.7979,0.434,0.2104,55.814022,37.50032,212.2398,0,8977
0.124502,-0.126897,9.814133,-0.007464,-0.012578,0.80415,1.68,-5.76,-49.92,197.1452,0.5566,-0.0009,55.814022,37.50032,212.2398,0,8987
0.090982,-0.093377,9.809344,-0.001355,-0.002804,0.802317,1.68,-5.76,-49.92,197.1452,0.5566,-0.0009,55.814022,37.500317,211.6586,0,8998
-0.007183,-0.023943,9.780613,-0.001966,0.00758,0.801095,1.62,-5.7,-49.38,197.1452,0.5566,-0.0009,55.814022,37.500317,211.6586,0,9007
-0.007183,-0.023943,9.780613,-0.002577,0.008802,0.800485,1.62,-5.7,-49.44,197.1452,0.5566,-0.0009,55.814022,37.500317,211.6586,0,9018
-0.138868,0.011971,9.766247,-0.007464,-0.004637,0.799874,1.56,-5.58,-49.44,197.1452,0.5566,-0.0009,55.814022,37.500317,211.6586,0,9028
-0.169993,0.023943,9.759064,-0.01907,-0.02113,0.7901,1.68,-5.7,-50.28,197.6086,0.5902,-0.0775,55.814022,37.500317,211.6586,0,9037
-0.040703,-0.031126,9.763853,-0.028844,-0.035791,0.7901,1.68,-5.7,-50.28,197.6086,0.5902,-0.0775,55.814022,37.500317,211.6586,0,9048
0.114925,-0.119714,9.809344,-0.03312,-0.038846,0.785824,1.02,-5.7,-51.12,197.6086,0.5902,-0.0775,55.814022,37.500317,211.6586,0,9058
0.114925,-0.119714,9.809344,-0.031287,-0.029683,0.778493,1.02,-5.7,-51.12,197.6086,0.5902,-0.0775,55.814022,37.500317,211.6586,0,9067
0.179571,-0.205908,9.826104,-0.0264,-0.019909,0.77605,0.78,-5.58,-50.94,189.1141,0.5459,-0.0455,55.814022,37.500317,211.6586,0,9078
0.179571,-0.270553,9.818921,-0.014794,-0.010746,0.766887,0.78,-5.58,-50.94,189.1141,0.5459,-0.0455,55.814022,37.500317,211.6586,0,9088
0.10056,-0.227456,9.842864,-0.003798,-0.007691,0.757724,0.84,-5.52,-50.4,189.1141,0.5459,-0.0455,55.814022,37.500317,211.6586,0,9098
