ACCELEROMETER X (m/s²),ACCELEROMETER Y (m/s²),ACCELEROMETER Z (m/s²),GYROSCOPE X (rad/s),GYROSCOPE Y (rad/s),GYROSCOPE Z (rad/s),MAGNETIC FIELD X (μT),MAGNETIC FIELD Y (μT),MAGNETIC FIELD Z (μT),ORIENTATION Z (azimuth °),ORIENTATION X (pitch °),ORIENTATION Y (roll °),LOCATION Latitude : ,LOCATION Longitude : ,LOCATION Altitude ( m),Time since start in ms 
0.148445,0.102954,9.771035,-0.019652,0.027432,-0.003914,141.36,-18.6,142.08,261.5385,-0.6755,-0.7576,55.81396,37.500267,210.3566,28
0.114925,0.081405,9.845258,-0.008656,0.018879,-0.002082,141.36,-18.6,142.08,261.5385,-0.6755,-0.7576,55.81396,37.500267,210.3566,38
0.117319,0.052674,9.842864,0.006005,0.003608,-0.006969,141.48,-18.3,142.2,261.5385,-0.6755,-0.7576,55.81396,37.500267,210.3566,49
0.136474,0.098165,9.905115,0.021276,-0.006777,-0.006358,141.48,-18.3,142.2,261.5385,-0.6755,-0.7576,55.81396,37.500267,210.3566,58
0.136474,0.098165,9.905115,0.021276,-0.006777,-0.006358,141.48,-17.94,142.2,261.9732,-0.6591,-0.6621,55.81396,37.500267,210.3566,67
0.126897,0.112531,9.780613,0.023109,-0.010442,-0.009412,141.48,-17.94,142.2,261.9732,-0.6591,-0.6621,55.81396,37.500267,210.3566,77
0.134079,0.112531,9.699207,0.019444,-0.009831,-0.006969,141.24,-17.88,142.08,261.9732,-0.6591,-0.6621,55.81396,37.500267,210.3566,88
0.131685,0.117319,9.711179,-0.001326,-0.00189,-0.002082,141.24,-17.88,142.08,261.9732,-0.6591,-0.6621,55.81396,37.500267,210.3566,98
0.136474,0.117319,9.80695,-0.011099,0.001775,0.002194,141.12,-18.6,141.9,261.5788,-0.6495,-0.6699,55.81396,37.500267,210.3566,108
0.136474,0.117319,9.80695,-0.013543,0.006662,0.001583,141.12,-18.6,141.9,261.5788,-0.6495,-0.6699,55.81396,37.500267,210.3566,118
0.114925,0.119714,9.809344,-0.006823,0.007884,0.000362,141.48,-18.6,142.14,261.5788,-0.6495,-0.6699,55.81396,37.500267,210.3566,128
0.098165,0.155628,9.747093,-0.001936,0.000553,0.000362,141.48,-18.6,142.14,261.5788,-0.6495,-0.6699,55.81396,37.500267,210.3566,137
0.126897,0.143657,9.70639,-0.006823,-0.004333,-0.003914,141.54,-18.3,142.44,262.0586,-0.6289,-0.6699,55.81396,37.500267,210.3566,148
0.126897,0.143657,9.70639,-0.012932,-0.009831,-0.00758,141.54,-18.3,142.44,262.0586,-0.6289,-0.6699,55.81396,37.500267,210.3566,158
0.090982,0.114925,9.749487,-0.020873,-0.00922,-0.005747,141.3,-18.42,142.44,262.0586,-0.6289,-0.6699,55.81396,37.500267,210.3566,168
0.110137,0.079011,9.888355,-0.026982,-0.004944,-0.004525,141.3,-18.42,142.44,262.0586,-0.6289,-0.6699,55.81396,37.500267,210.3566,178
0.134079,0.047885,9.948212,-0.023317,-5.7E-05,-0.002082,140.94,-18.24,142.68,261.9891,-0.6355,-0.6799,55.81396,37.500267,210.3566,188
0.134079,0.047885,9.948212,-0.009878,-0.003112,0.001583,141,-18.36,142.68,261.9891,-0.6355,-0.6799,55.81396,37.500267,210.3566,198
0.098165,0.074223,9.96976,0.006616,-0.011664,0.003416,141,-18.36,142.68,261.9891,-0.6355,-0.6799,55.81396,37.500267,210.3566,208
0.119714,0.117319,9.907509,0.020666,-0.024492,0.002194,141.36,-18,142.62,261.9891,-0.6355,-0.6799,55.81396,37.500267,210.3566,219
0.126897,0.165205,9.818921,0.028607,-0.030601,-0.000249,141.36,-18,142.62,261.9891,-0.6355,-0.6799,55.81396,37.500267,210.3566,228
0.148445,0.158022,9.694419,0.019444,-0.026325,-0.003304,141.9,-17.58,141.84,262.0911,-0.5944,-0.6844,55.81396,37.500267,210.3566,238
0.148445,0.158022,9.694419,-0.000104,-0.012275,-0.004525,141.9,-17.58,141.84,262.0911,-0.5944,-0.6844,55.81396,37.500267,210.3566,248
0.117319,0.150839,9.730332,-0.013543,-0.000668,-0.005747,141.3,-17.7,141.6,262.0911,-0.5944,-0.6844,55.81396,37.500267,210.3566,259
0.117319,0.181965,9.814133,-0.016597,0.001775,-0.00758,141.3,-17.7,141.6,262.0911,-0.5944,-0.6844,55.81396,37.500267,210.3566,268
0.117319,0.181965,9.814133,-0.011099,0.001775,-0.003914,140.76,-17.76,142.26,261.9749,-0.6474,-0.7277,55.81396,37.500267,210.3566,278
0.184359,0.052674,9.835681,-0.007434,0.000553,-0.004525,140.76,-17.76,142.26,261.9749,-0.6474,-0.7277,55.81396,37.500267,210.3566,288
0.162811,0.052674,9.862018,0.00234,0.00483,-0.004525,140.58,-18.12,142.5,261.9749,-0.6474,-0.7277,55.81396,37.500267,210.3566,298
0.093377,0.098165,9.814133,0.024942,0.002386,-0.00819,140.58,-18.12,142.5,261.9749,-0.6474,-0.7277,55.81396,37.500267,210.3566,308
0.093377,0.098165,9.814133,0.029218,-0.013496,-0.00758,141.24,-18.12,142.62,261.9591,-0.6563,-0.7367,55.81396,37.500267,210.3566,318
0.01676,0.196331,9.63935,0.021887,-0.018383,-0.014299,141.9,-17.88,142.44,261.9591,-0.6563,-0.7367,55.81396,37.500267,210.3566,327
0.062251,0.177176,9.514848,-0.013543,-0.011664,-0.012467,141.9,-17.88,142.44,261.9591,-0.6563,-0.7367,55.81396,37.500267,210.3566,338
0.011971,0.093377,9.627379,-0.013543,-0.011664,-0.012467,141.6,-18.06,141.9,261.9591,-0.6563,-0.7367,55.81396,37.500267,210.3566,348
0.011971,0.093377,9.627379,-0.056914,0.028653,-0.002693,141.6,-18.06,141.9,261.9591,-0.6563,-0.7367,55.81396,37.500267,210.3566,358
0.035914,0.076617,9.826104,-0.056914,0.028653,-0.002693,141.66,-18.12,141.54,261.9787,-0.6988,-0.7337,55.81396,37.500267,210.3566,367
0.155628,0.138868,9.941029,-0.04653,0.015214,0.001583,141.66,-18.12,141.54,261.9787,-0.6988,-0.7337,55.81396,37.500267,210.3566,378
0.198725,0.141262,9.90272,-0.023928,-0.00189,-0.003914,142.08,-18.18,142.08,261.9787,-0.6988,-0.7337,55.81396,37.500267,210.3566,388
0.198725,0.141262,9.90272,-0.006823,-0.018383,-0.002693,142.08,-18.18,142.08,261.9787,-0.6988,-0.7337,55.81396,37.500267,210.3566,398
0.189148,0.090982,9.850046,-0.00438,-0.022659,-0.002082,141.72,-18.42,142.2,262.0865,-0.6093,-0.6152,55.81396,37.500267,210.3566,408
0.172388,0.05028,9.878778,-0.006823,-0.011664,0.00647,141.72,-18.42,142.2,262.0865,-0.6093,-0.6152,55.81396,37.500267,210.3566,418
0.181965,0.007183,9.905115,-0.006212,0.001775,0.014412,141.18,-18,142.08,262.0865,-0.6093,-0.6152,55.81396,37.500267,210.3566,428
0.165205,0.011971,9.900327,0.00295,-0.003112,0.016855,141.18,-18,142.08,262.0865,-0.6093,-0.6152,55.81396,37.500267,210.3566,438
0.165205,0.011971,9.900327,0.018222,-0.012275,0.009525,140.82,-17.94,141.9,262.0294,-0.6015,-0.6748,55.81396,37.500267,210.3566,448
0.148445,0.026337,9.840469,0.029218,-0.022659,-0.00086,140.82,-17.94,141.9,262.0294,-0.6015,-0.6748,55.81396,37.500267,210.3566,458
0.095771,0.076617,9.778218,0.024331,-0.021438,-0.002082,140.76,-18.06,142.14,262.0294,-0.6015,-0.6748,55.81396,37.500267,210.3566,468
0.052674,0.124502,9.670476,0.024331,-0.021438,-0.002082,140.76,-18.06,142.14,262.0294,-0.6015,-0.6748,55.81396,37.500267,210.3566,479
0.052674,0.124502,9.670476,0.012113,-0.009831,-0.005136,141.18,-17.64,142.62,262.0632,-0.552,-0.7514,55.81396,37.500267,210.3566,487
0.158022,0.124502,9.644139,-0.01843,0.001775,-0.005747,141.18,-17.64,142.62,262.0632,-0.552,-0.7514,55.81396,37.500267,210.3566,498
0.167599,0.158022,9.768641,-0.029425,0.017658,0.002194,141.42,-17.46,142.26,262.0632,-0.552,-0.7514,55.81396,37.500267,210.3566,508
0.165205,0.141262,9.79019,-0.030036,0.017047,0.001583,141.42,-17.46,142.26,262.0632,-0.552,-0.7514,55.81396,37.500267,210.3566,518
0.150839,0.10056,9.847652,-0.015986,0.00483,0.001583,141.6,-17.28,141.6,262.5465,-0.5296,-0.761,55.81396,37.500267,210.3566,528
0.150839,0.10056,9.847652,-0.004991,-0.004333,0.000972,141.6,-17.28,141.6,262.5465,-0.5296,-0.761,55.81396,37.500267,210.3566,538
0.141262,0.114925,9.818921,0.001729,-0.010442,0.002805,141.36,-17.1,141.72,262.5465,-0.5296,-0.761,55.81396,37.500267,210.3566,548
0.150839,0.074223,9.835681,-0.003158,-0.003723,-0.003914,141.36,-17.1,141.72,262.5465,-0.5296,-0.761,55.81396,37.500267,210.3566,558
0.158022,0.069434,9.838076,-0.00438,-0.001279,-0.006969,141.06,-17.7,142.62,262.0876,-0.5258,-0.7672,55.81396,37.500267,210.3566,568
0.102954,0.071828,9.857229,-0.00438,-0.001279,-0.006969,141.06,-17.7,142.62,262.0876,-0.5258,-0.7672,55.81396,37.500267,210.3566,578
0.102954,0.117319,9.869201,-0.001936,0.000553,-0.003914,140.94,-17.88,142.38,262.0876,-0.5258,-0.7672,55.81396,37.500267,210.3566,587
0.102954,0.117319,9.869201,-0.001936,0.004219,-0.001471,140.94,-17.82,142.2,262.0876,-0.5258,-0.7672,55.81396,37.500267,210.3566,598
0.102954,0.136474,9.847652,0.004172,0.003608,-0.004525,140.94,-17.82,142.2,262.0876,-0.5258,-0.7672,55.81396,37.500267,210.3566,608
0.057463,0.107742,9.742304,0.00295,0.002386,-0.003304,141,-17.7,142.26,262.0812,-0.532,-0.7971,55.81396,37.500267,210.3566,618
0.057463,0.107742,9.742304,-0.00438,0.000553,0.003416,141,-17.7,142.26,262.0812,-0.532,-0.7971,55.81396,37.500267,210.3566,628
0.093377,0.131685,9.780613,-0.006823,-0.003723,0.000972,141.18,-18.12,141.9,262.0812,-0.532,-0.7971,55.81396,37.500267,210.3566,638
0.114925,0.093377,9.835681,-0.009267,0.001775,0.004638,141.54,-18.36,141.84,262.0812,-0.532,-0.7971,55.81396,37.500267,210.3566,649
0.112531,0.088588,9.866806,-0.006823,-0.000668,0.002805,141.54,-18.36,141.84,262.0812,-0.532,-0.7971,55.81396,37.500267,210.3566,658
0.150839,0.105348,9.888355,0.004172,-0.000668,0.000972,141.48,-17.94,142.5,262.0585,-0.556,-0.7557,55.81396,37.500267,210.3566,668
0.150839,0.105348,9.888355,0.012113,-0.001279,-0.00086,141.48,-17.94,142.5,262.0585,-0.556,-0.7557,55.81396,37.500267,210.3566,678
0.148445,0.114925,9.821315,0.018222,-0.004333,-0.005747,141.42,-18.48,142.2,262.0585,-0.556,-0.7557,55.81396,37.500267,210.3566,688
0.102954,0.124502,9.785401,0.018222,-0.006777,-0.003914,141.42,-18.48,142.2,262.0585,-0.556,-0.7557,55.81396,37.500267,210.3566,698
0.155628,0.131685,9.766247,0.015168,-0.006777,-0.002082,141.3,-18.84,142.08,261.6386,-0.5796,-0.7373,55.81396,37.500267,210.3566,708
0.143657,0.110137,9.759064,0.010892,-0.00189,-0.00086,141.3,-18.84,142.08,261.6386,-0.5796,-0.7373,55.81396,37.500267,210.3566,718
0.143657,0.110137,9.759064,0.010892,-0.00189,-0.00086,141.6,-18.48,142.38,261.6386,-0.5796,-0.7373,55.81396,37.500267,210.3566,728
0.134079,0.090982,9.751882,0.004783,0.002386,0.001583,141.6,-18.48,142.38,261.6386,-0.5796,-0.7373,55.81396,37.500267,210.3566,738
0.174782,0.10056,9.787795,0.00295,-0.007388,-0.003304,141.6,-18.48,142.38,261.6386,-0.5796,-0.7373,55.81396,37.500267,210.3566,748
0.227456,0.10056,9.792584,0.004172,-0.007999,-0.005136,141.12,-18.18,142.2,261.9801,-0.6389,-0.75,55.81396,37.500267,210.3566,758
0.227456,0.10056,9.792584,-0.000104,-0.007999,-0.010023,141,-17.76,142.5,261.9801,-0.6389,-0.75,55.81396,37.500267,210.3566,768
0.124502,0.088588,9.785401,-0.006212,0.002997,-0.012467,141,-17.76,142.5,261.9801,-0.6389,-0.75,55.81396,37.500267,210.3566,778
0.090982,0.06704,9.794978,-0.010489,0.013382,-0.00758,141.3,-18.06,141.96,261.974,-0.6399,-0.7828,55.81396,37.500267,210.3566,788
0.150839,0.079011,9.792584,-0.009878,0.012771,-0.00086,141.3,-18.06,141.96,261.974,-0.6399,-0.7828,55.81396,37.500267,210.3566,798
0.174782,0.126897,9.727939,-0.008656,0.011549,-0.002693,141.48,-18.72,141.42,261.974,-0.6399,-0.7828,55.81396,37.500267,210.3566,808
0.174782,0.126897,9.727939,-0.009878,0.002997,-0.011856,141.48,-18.72,141.42,261.974,-0.6399,-0.7828,55.81396,37.500267,210.3566,818
0.131685,0.138868,9.708784,-0.009878,-0.005555,-0.017964,141.9,-18.48,141.84,262.0636,-0.6057,-0.7913,55.81396,37.500267,210.3566,828
0.086194,0.136474,9.747093,-0.014765,-0.007388,-0.018575,141.9,-18.48,141.84,262.0636,-0.6057,-0.7913,55.81396,37.500267,210.3566,838
0.088588,0.126897,9.794978,-0.013543,-0.00922,-0.013688,141.72,-17.94,142.08,262.0636,-0.6057,-0.7913,55.81396,37.500267,210.3566,848
0.088588,0.126897,9.794978,-0.012932,-0.007999,-0.00758,141.72,-17.94,142.08,262.0636,-0.6057,-0.7913,55.81396,37.500267,210.3566,858
0.086194,0.088588,9.80695,-0.009267,-5.7E-05,-0.003304,141.06,-17.88,141.72,262.0207,-0.5898,-0.8093,55.81396,37.500267,210.3566,868
0.119714,0.086194,9.864412,-0.006212,-0.001279,-0.001471,141.06,-17.88,141.72,262.0207,-0.5898,-0.8093,55.81396,37.500267,210.3566,878
0.086194,0.074223,9.826104,-0.008656,0.002997,-0.005136,141,-17.58,142.26,262.0207,-0.5898,-0.8093,55.81396,37.500267,210.3566,888
0.141262,0.098165,9.780613,-0.015375,0.003608,-0.013688,141,-17.58,142.26,262.0207,-0.5898,-0.8093,55.81396,37.500267,210.3566,898
0.141262,0.098165,9.780613,-0.015375,0.003608,-0.013688,141.66,-17.52,142.38,262.0835,-0.5866,-0.7871,55.81396,37.500267,210.3566,908
0.114925,0.081405,9.80695,-0.020262,0.006662,-0.017353,141.66,-17.52,142.38,262.0835,-0.5866,-0.7871,55.81396,37.500267,210.3566,918
0.102954,0.10056,9.830893,-0.020873,0.000553,-0.017353,141.48,-17.94,141.54,262.0835,-0.5866,-0.7871,55.81396,37.500267,210.3566,928
0.102954,0.10056,9.830893,-0.017208,-0.00922,-0.016743,141.48,-17.94,141.54,262.0835,-0.5866,-0.7871,55.81396,37.500267,210.3566,937
0.110137,0.102954,9.842864,-0.006212,-0.018383,-0.008801,141.12,-17.7,141.42,262.0755,-0.5499,-0.7454,55.81396,37.500267,210.3566,949
0.179571,0.079011,9.828498,0.000507,-0.017773,-0.002082,141.12,-17.7,141.42,262.0755,-0.5499,-0.7454,55.81396,37.500267,210.3566,958
0.215485,0.040703,9.804555,-0.004991,-0.002501,-0.001471,141.72,-18,141.24,262.0755,-0.5499,-0.7454,55.81396,37.500267,210.3566,968
0.215485,0.040703,9.804555,-0.019041,0.010938,-0.005136,141.72,-18,141.24,262.0755,-0.5499,-0.7454,55.81396,37.500267,210.3566,978
0.232245,0.069434,9.763853,-0.019041,0.01216,-0.006358,141.96,-18.54,141.42,261.7394,-0.5385,-0.7612,55.81396,37.500267,210.3566,987
0.119714,0.162811,9.692024,-0.024538,0.004219,-0.017964,141.96,-18.54,141.42,261.7394,-0.5385,-0.7612,55.81396,37.500267,210.3566,998
0.119714,0.162811,9.692024,-0.017819,-0.011053,-0.019186,141.24,-18.42,141.96,261.7394,-0.5385,-0.7612,55.81396,37.500267,210.3566,1008
0.052674,0.057463,9.730332,-0.017819,-0.011053,-0.019186,141.24,-18.42,141.96,261.7394,-0.5385,-0.7612,55.81396,37.500267,210.3566,1018
0.007183,0.031126,9.835681,-0.017208,-0.003723,-0.00758,141.48,-18.54,141.84,261.7033,-0.5048,-0.807,55.81396,37.500267,210.3566,1031
-0.057463,-0.009577,9.93624,-0.017208,-0.003723,-0.00758,141.48,-18.54,141.84,261.7033,-0.5048,-0.807,55.81396,37.500267,210.3566,1038
-0.057463,-0.009577,9.93624,0.00295,-0.00861,0.007692,141.48,-18.54,141.84,261.7033,-0.5048,-0.807,55.81396,37.500267,210.3566,1048
0.21309,0.081405,9.91948,0.009059,-0.020216,-0.002082,141.48,-18.3,141.96,261.7033,-0.5048,-0.807,55.81396,37.500267,210.3566,1058
0.28013,0.110137,9.866806,0.00967,-0.028157,-0.006358,141.24,-18.18,141.78,262.1524,-0.4668,-0.7634,55.81396,37.500267,210.3566,1068
0.22985,0.071828,9.838076,-0.006212,-0.014107,-0.010634,141.24,-18.18,141.78,262.1524,-0.4668,-0.7634,55.81396,37.500267,210.3566,1078
0.138868,0.05028,9.950606,-0.024538,0.00544,-0.005747,141.42,-18.24,141.48,262.1524,-0.4668,-0.7634,55.81396,37.500267,210.3566,1088
0.138868,0.05028,9.950606,-0.022706,0.01949,0.004638,141.3,-17.94,141.66,262.1524,-0.4668,-0.7634,55.81396,37.500267,210.3566,1098
0.179571,0.045491,9.941029,-0.001326,0.014603,0.005249,141.3,-17.94,141.66,262.1524,-0.4668,-0.7634,55.81396,37.500267,210.3566,1108
0.186753,0.057463,9.859624,0.020055,-0.004333,0.004638,141.42,-17.7,141.12,262.1924,-0.4257,-0.8,55.81396,37.500267,210.3566,1118
0.134079,0.014366,9.744699,0.027385,-0.013496,-0.001471,141.42,-17.7,141.12,262.1924,-0.4257,-0.8,55.81396,37.500267,210.3566,1128
0.134079,0.014366,9.744699,0.021276,-0.014718,0.002194,141.48,-18.36,141.12,262.1924,-0.4257,-0.8,55.81396,37.500267,210.3566,1138
0.138868,0.023943,9.759064,0.00967,0.00544,0.004638,141.36,-18.54,141.66,262.1924,-0.4257,-0.8,55.81396,37.500267,210.3566,1147
0.198725,0.045491,9.687236,0.00967,0.00544,0.004638,141.36,-18.54,141.66,262.1924,-0.4257,-0.8,55.81396,37.500267,210.3566,1158
0.167599,0.047885,9.730332,-0.008656,0.018879,-0.000249,141.48,-18.24,141.96,262.1887,-0.4167,-0.8624,55.81396,37.500267,210.3566,1168
0.167599,0.047885,9.730332,-0.008656,0.018879,-0.000249,141.48,-18.24,141.96,262.1887,-0.4167,-0.8624,55.81396,37.500267,210.3566,1178
0.155628,0.086194,9.747093,-0.003769,0.009106,-0.006358,141.66,-18.18,141.84,262.1887,-0.4167,-0.8624,55.81396,37.500267,210.3566,1188
0.177176,0.126897,9.73991,0.003561,-0.001279,-0.00758,141.66,-18.18,141.84,262.1887,-0.4167,-0.8624,55.81396,37.500267,210.3566,1198
0.189148,0.112531,9.687236,-0.001326,-0.004944,-0.010634,141.78,-17.88,141.36,262.2888,-0.3755,-0.8634,55.81396,37.500267,210.3566,1208
0.189148,0.112531,9.687236,-0.017819,-0.003112,-0.00819,141.78,-17.88,141.36,262.2888,-0.3755,-0.8634,55.81396,37.500267,210.3566,1218
0.193936,0.057463,9.742304,-0.035534,0.013992,-0.003304,141.18,-17.82,141.36,262.2888,-0.3755,-0.8634,55.81396,37.500267,210.3566,1228
0.189148,0.038308,9.859624,-0.037977,0.020101,0.003416,141.18,-17.82,141.36,262.2888,-0.3755,-0.8634,55.81396,37.500267,210.3566,1238
0.189148,0.038308,9.859624,-0.037977,0.020101,0.003416,141.18,-17.82,141.36,262.2888,-0.3755,-0.8634,55.81396,37.500267,210.3566,1248
0.210696,0.023943,9.907509,-0.030036,0.011549,0.000972,141.24,-18.12,141.54,262.2166,-0.3831,-0.9055,55.81396,37.500267,210.3566,1259
0.160416,0.021548,9.912297,0.004172,-0.009831,-0.00086,141.18,-18.06,141.78,262.2166,-0.3831,-0.9055,55.81396,37.500267,210.3566,1268
0.122108,0.043097,9.878778,0.024331,-0.022049,0.000972,141.18,-18.06,141.78,262.2166,-0.3831,-0.9055,55.81396,37.500267,210.3566,1278
0.122108,0.043097,9.878778,0.027385,-0.022659,0.003416,141,-18.9,142.02,261.8586,-0.3322,-0.9375,55.81396,37.500267,210.3566,1288
0.131685,0.086194,9.768641,0.017,-0.003723,0.000972,141,-18.9,142.02,261.8586,-0.3322,-0.9375,55.81396,37.500267,210.3566,1298
0.150839,0.112531,9.703996,0.00295,0.002997,0.000972,141.42,-18.72,141.42,261.8586,-0.3322,-0.9375,55.81396,37.500267,210.3566,1308
0.150839,0.160416,9.737515,-0.008656,0.002386,-0.005136,141.42,-18.72,141.42,261.8586,-0.3322,-0.9375,55.81396,37.500267,210.3566,1318
0.150839,0.160416,9.737515,-0.014765,0.008495,-0.011856,141.72,-17.82,140.76,262.2894,-0.358,-0.9828,55.81396,37.500267,210.3566,1327
0.090982,0.124502,9.768641,-0.01171,0.000553,-0.011856,141.72,-17.82,140.76,262.2894,-0.358,-0.9828,55.81396,37.500267,210.3566,1338
0.057463,0.0838,9.80695,-0.01171,0.000553,-0.011856,141.72,-17.82,140.76,262.2894,-0.358,-0.9828,55.81396,37.500267,210.3566,1348
0.110137,0.074223,9.862018,-0.006212,-0.00922,-0.008801,141.6,-17.94,141,262.2894,-0.358,-0.9828,55.81396,37.500267,210.3566,1358
0.110137,0.074223,9.862018,0.001118,-0.003112,-0.001471,141.3,-18.12,141.6,262.2076,-0.3862,-0.9453,55.81396,37.500267,210.3566,1368
0.141262,0.007183,9.888355,0.001729,-0.000668,0.001583,141.3,-18.12,141.6,262.2076,-0.3862,-0.9453,55.81396,37.500267,210.3566,1378
0.150839,0.055068,9.90272,0.006616,-0.000668,0.001583,141.48,-18.12,141.24,262.2076,-0.3862,-0.9453,55.81396,37.500267,210.3566,1388
0.167599,0.045491,9.881172,0.013335,0.002997,-0.001471,141.48,-18.12,141.24,262.2076,-0.3862,-0.9453,55.81396,37.500267,210.3566,1398
0.141262,0.055068,9.809344,0.012113,0.003608,-0.001471,141.54,-18,141.18,262.2465,-0.4146,-0.8848,55.81396,37.500267,210.3566,1408
0.141262,0.055068,9.809344,0.001118,0.01216,-0.003914,141.54,-18,141.18,262.2465,-0.4146,-0.8848,55.81396,37.500267,210.3566,1418
0.150839,0.074223,9.799767,-0.009267,0.018269,-0.004525,141.48,-18,141.12,262.2465,-0.4146,-0.8848,55.81396,37.500267,210.3566,1428
0.114925,0.05028,9.792584,-0.010489,0.018879,0.000362,141.48,-18,141.12,262.2465,-0.4146,-0.8848,55.81396,37.500267,210.3566,1438
0.136474,0.071828,9.792584,-0.011099,0.011549,-0.001471,141.36,-18.36,141.24,262.1998,-0.4108,-0.853,55.81396,37.500267,210.3566,1448
0.136474,0.071828,9.792584,-0.01171,0.00544,-0.001471,141.36,-18.36,141.24,262.1998,-0.4108,-0.853,55.81396,37.500267,210.3566,1458
0.150839,0.05028,9.842864,-0.01171,0.00544,-0.001471,141.36,-18.36,141.24,262.1998,-0.4108,-0.853,55.81396,37.500267,210.3566,1467
0.112531,0.069434,9.842864,-0.00438,0.010938,-0.000249,141.78,-17.94,141.24,262.1998,-0.4108,-0.853,55.81396,37.500267,210.3566,1478
0.122108,0.079011,9.799767,0.015779,-0.003723,0.005859,141.78,-17.64,140.88,262.292,-0.3795,-0.8122,55.81396,37.500267,210.3566,1488
0.201119,0.047885,9.751882,0.017611,-0.011053,0.001583,141.78,-17.64,140.88,262.292,-0.3795,-0.8122,55.81396,37.500267,210.3566,1498
0.201119,0.047885,9.751882,0.012113,-0.013496,-0.000249,140.82,-17.76,141.06,262.292,-0.3795,-0.8122,55.81396,37.500267,210.3566,1508
0.191542,0.059857,9.754275,-0.006212,0.009716,-0.003914,140.82,-17.76,141.06,262.292,-0.3795,-0.8122,55.81396,37.500267,210.3566,1518
0.119714,0.06704,9.744699,-0.017819,0.010938,-0.004525,140.82,-17.88,141.66,262.2133,-0.3986,-0.8201,55.81396,37.500267,210.3566,1529
0.064645,0.074223,9.778218,-0.019041,0.013382,-0.005747,140.82,-17.88,141.66,262.2133,-0.3986,-0.8201,55.81396,37.500267,210.3566,1538
0.064645,0.074223,9.778218,-0.01171,0.003608,-0.000249,140.88,-17.76,141.72,262.2133,-0.3986,-0.8201,55.81396,37.500267,210.3566,1548
0.107742,0.071828,9.792584,0.001118,-0.007999,0.000972,140.88,-17.76,141.72,262.2133,-0.3986,-0.8201,55.81396,37.500267,210.3566,1558
0.057463,0.062251,9.799767,0.009059,-0.01594,-0.00086,141.06,-17.34,141.18,262.6452,-0.3744,-0.829,55.81396,37.500267,210.3566,1568
0.071828,0.011971,9.799767,0.010281,-0.017773,0.002805,141.06,-17.34,141.18,262.6452,-0.3744,-0.829,55.81396,37.500267,210.3566,1578
0.141262,0.011971,9.727939,0.008448,-0.014718,-0.000249,140.82,-17.94,140.94,262.6452,-0.3744,-0.829,55.81396,37.500267,210.3566,1589
0.141262,0.011971,9.727939,-0.001936,-0.006166,0.001583,140.82,-17.94,140.94,262.6452,-0.3744,-0.829,55.81396,37.500267,210.3566,1598
0.146051,0.05028,9.749487,-0.015375,-5.7E-05,0.002805,140.52,-18,141.18,262.244,-0.3754,-0.7946,55.81396,37.500267,210.3566,1608
0.201119,0.023943,9.794978,-0.017819,0.004219,0.002805,140.52,-18,141.18,262.244,-0.3754,-0.7946,55.81396,37.500267,210.3566,1618
0.198725,-0.011971,9.852441,-0.019652,0.010938,-0.00086,141.18,-18.3,141.54,262.244,-0.3754,-0.7946,55.81396,37.500267,210.3566,1628
0.198725,-0.011971,9.852441,-0.011099,0.009716,0.000972,141.18,-18.3,141.54,262.244,-0.3754,-0.7946,55.81396,37.500267,210.3566,1638
0.169994,0.014366,9.826104,-0.011099,0.009716,0.000972,141.3,-18.6,141.6,261.8849,-0.3311,-0.7708,55.81396,37.500267,210.3566,1648
0.117319,0.081405,9.775824,0.010281,-0.014718,-0.008801,141.3,-18.6,141.6,261.8849,-0.3311,-0.7708,55.81396,37.500267,210.3566,1658
0.088588,0.134079,9.63935,0.010281,-0.025103,-0.00819,141.42,-18.3,141.54,261.8849,-0.3311,-0.7708,55.81396,37.500267,209.0256,1668
0.090982,0.031126,9.644139,-0.010489,-0.018994,-0.003304,141.42,-18.3,141.54,261.8849,-0.3311,-0.7708,55.81396,37.500267,209.0256,1678
0.090982,0.031126,9.644139,-0.026982,0.006662,0.000362,141.9,-18.6,141.24,261.9928,-0.2795,-0.7972,55.81396,37.500267,209.0256,1688
0.076617,0.021548,9.785401,-0.026982,0.006662,0.000362,141.9,-18.6,141.24,261.9928,-0.2795,-0.7972,55.81396,37.500267,209.0256,1698
0.102954,0.002394,9.854836,-0.03248,0.015825,0.010135,141.6,-18.54,141.06,261.9928,-0.2795,-0.7972,55.81396,37.500267,209.0256,1707
0.181965,0.057463,9.838076,-0.02576,0.001775,0.00647,141.6,-18.54,141.06,261.9928,-0.2795,-0.7972,55.81396,37.500267,209.0256,1718
0.196331,0.076617,9.838076,-0.01843,-0.015329,-0.002693,141.54,-18.18,141,262.4135,-0.2618,-0.7879,55.81396,37.500267,209.0256,1728
0.196331,0.076617,9.838076,-0.01171,-0.028157,-0.012467,141.54,-18.18,141,262.4135,-0.2618,-0.7879,55.81396,37.500267,209.0256,1738
0.174782,0.045491,9.866806,-0.016597,-0.020827,-0.008801,141.18,-17.88,141.24,262.4135,-0.2618,-0.7879,55.81396,37.500267,209.0256,1748
0.150839,-0.002394,9.897932,-0.022095,-0.003112,0.000972,141.18,-17.88,141.24,262.4135,-0.2618,-0.7879,55.81396,37.500267,209.0256,1758
0.169994,-0.007183,9.900327,-0.019652,0.000553,0.007081,140.7,-17.76,141.24,262.3926,-0.2266,-0.8059,55.81396,37.500267,209.0256,1768
0.169994,-0.007183,9.900327,-0.008045,0.003608,0.010135,140.7,-17.76,141.24,262.3926,-0.2266,-0.8059,55.81396,37.500267,209.0256,1778
0.172388,-0.045491,9.933846,0.006005,-0.000668,0.009525,141.54,-17.58,141.36,262.3926,-0.2266,-0.8059,55.81396,37.500267,209.0256,1788
0.141262,-0.040703,9.90272,0.006005,-0.000668,0.009525,141.54,-17.58,141.36,262.3926,-0.2266,-0.8059,55.81396,37.500267,209.0256,1798
0.150839,-0.023943,9.814133,0.018222,-0.011053,0.008914,141.54,-17.64,141.84,262.4984,-0.1661,-0.8542,55.81396,37.500267,209.0256,1808
0.169994,0.014366,9.763853,0.021276,-0.016551,0.000972,141.54,-17.64,141.84,262.4984,-0.1661,-0.8542,55.81396,37.500267,209.0256,1818
0.169994,0.014366,9.763853,0.01639,-0.011053,-0.008801,141.12,-18.48,141.78,262.4984,-0.1661,-0.8542,55.81396,37.500267,209.0256,1828
0.167599,0.026337,9.751882,0.011503,-0.003723,-0.005747,141.12,-18.48,141.78,262.4984,-0.1661,-0.8542,55.81396,37.500267,209.0256,1838
0.102954,0.047885,9.713573,0.007837,0.001775,0.002805,141.42,-18.24,141.6,262.4535,-0.1544,-0.8797,55.81396,37.500267,209.0256,1848
0.160416,0.055068,9.692024,-0.001936,0.001164,0.005249,141.42,-18.24,141.6,262.4535,-0.1544,-0.8797,55.81396,37.500267,209.0256,1858
0.174782,0.090982,9.682447,-0.014154,0.006662,0.001583,141.66,-18.12,141.6,262.4535,-0.1544,-0.8797,55.81396,37.500267,209.0256,1868
0.174782,0.090982,9.682447,-0.027593,0.006662,0.003416,141.66,-18.12,141.6,262.4535,-0.1544,-0.8797,55.81396,37.500267,209.0256,1878
0.167599,0.019154,9.727939,-0.027593,0.006662,0.003416,141.9,-18.48,141.12,262.5225,-0.1396,-0.8882,55.81396,37.500267,209.0256,1888
0.158022,0.004789,9.79019,-0.027593,-5.7E-05,0.005859,141.9,-18.48,141.12,262.5225,-0.1396,-0.8882,55.81396,37.500267,209.0256,1898
0.191542,-0.019154,9.850046,-0.023317,-0.00861,0.003416,141.18,-19.02,141,262.5225,-0.1396,-0.8882,55.81396,37.500267,209.0256,1908
0.162811,-0.035914,9.857229,-0.016597,-0.003112,-0.003304,140.94,-19.08,141.42,262.5225,-0.1396,-0.8882,55.81396,37.500267,209.0256,1918
0.162811,-0.035914,9.857229,-0.011099,-0.006777,-0.000249,140.94,-19.08,141.42,262.5225,-0.1396,-0.8882,55.81396,37.500267,209.0256,1928
0.138868,-0.028731,9.835681,-0.010489,-0.014718,-0.003914,140.7,-18.9,140.88,262.1014,-0.0987,-0.916,55.81396,37.500267,209.0256,1938
0.107742,-0.009577,9.869201,-0.004991,-0.013496,0.000362,140.7,-18.9,140.88,262.1014,-0.0987,-0.916,55.81396,37.500267,209.0256,1948
0.117319,0.002394,9.864412,0.001118,-0.011664,0.003416,140.34,-18.48,140.7,262.1014,-0.0987,-0.916,55.81396,37.500267,209.0256,1958
0.131685,0.004789,9.871595,0.003561,-0.014718,0.005859,140.28,-18.66,140.82,262.1014,-0.0987,-0.916,55.81396,37.500267,209.0256,1968
0.131685,0.004789,9.871595,0.00967,-0.013496,0.004027,140.28,-18.66,140.82,262.1014,-0.0987,-0.916,55.81396,37.500267,209.0256,1978
0.119714,0.0838,9.840469,0.010892,-0.00861,0.004027,140.94,-18.36,140.52,262.5522,-0.0522,-0.9308,55.81396,37.500267,209.0256,1988
0.095771,0.098165,9.804555,0.015168,-0.011664,-0.004525,140.94,-18.36,140.52,262.5522,-0.0522,-0.9308,55.81396,37.500267,209.0256,1998
0.114925,0.040703,9.794978,0.012724,-0.01594,-0.00086,141.12,-18.36,140.94,262.5522,-0.0522,-0.9308,55.81396,37.500267,209.0256,2008
0.114925,0.040703,9.794978,0.010892,-0.006777,-0.002082,141.12,-18.36,140.94,262.5522,-0.0522,-0.9308,55.81396,37.500267,209.0256,2018
0.138868,0.019154,9.804555,0.004172,0.002997,-0.002082,140.76,-18.18,141.48,262.5203,-0.0872,-0.9037,55.81396,37.500267,209.0256,2028
0.134079,0,9.883567,-0.003769,0.010327,-0.000249,140.76,-18.18,141.48,262.5203,-0.0872,-0.9037,55.81396,37.500267,209.0256,2038
0.143657,-0.043097,9.955395,-0.003158,0.015825,-0.000249,141,-17.7,141.3,262.5203,-0.0872,-0.9037,55.81396,37.500267,209.0256,2048
0.155628,-0.01676,9.967366,0.007227,0.009106,0.000362,141,-17.7,141.3,262.5203,-0.0872,-0.9037,55.81396,37.500267,209.0256,2058
0.155628,-0.01676,9.967366,0.02372,0.001775,-0.006969,141,-18.12,141.3,262.4998,-0.1141,-0.8537,55.81396,37.500267,209.0256,2068
0.162811,0.014366,9.866806,0.040824,-0.010442,-0.005747,141,-18.12,141.3,262.4998,-0.1141,-0.8537,55.81396,37.500267,209.0256,2077
0.203513,0.021548,9.766247,0.043878,-0.018994,-0.005136,141.24,-18.72,141.36,262.4998,-0.1141,-0.8537,55.81396,37.500267,209.0256,2089
0.227456,0.031126,9.675264,0.02372,-0.00861,-0.001471,141.24,-18.72,141.36,262.4998,-0.1141,-0.8537,55.81396,37.500267,209.0256,2101
0.260976,0.057463,9.665688,0.02372,-0.00861,-0.001471,141.36,-18.96,141.06,262.0798,-0.1307,-0.8398,55.81396,37.500267,209.0256,2108
0.220273,0.057463,9.675264,-0.008656,0.012771,-0.00819,141.42,-18.96,140.76,262.0798,-0.1307,-0.8398,55.81396,37.500267,209.0256,2124
0.220273,0.057463,9.675264,-0.008656,0.012771,-0.00819,141.42,-18.96,140.76,262.0798,-0.1307,-0.8398,55.81396,37.500267,209.0256,2128
0.217879,0.047885,9.660899,-0.008045,-0.000668,-0.00819,141.12,-18.78,140.82,262.0798,-0.1307,-0.8398,55.81396,37.500267,209.0256,2137
0.181965,0.040703,9.747093,-0.006212,-0.010442,-0.017964,141.12,-18.78,140.82,262.0798,-0.1307,-0.8398,55.81396,37.500267,209.0256,2148
0.158022,0.028731,9.794978,-0.003158,-0.017162,-0.015521,141.24,-17.82,141.3,262.4585,-0.1457,-0.9221,55.81396,37.500267,209.0256,2158
0.158022,0.028731,9.794978,0.001118,-0.019605,-0.011856,141.24,-17.82,141.3,262.4585,-0.1457,-0.9221,55.81396,37.500267,209.0256,2168
0.134079,0.047885,9.802161,-0.001936,-0.014718,-0.017353,141.3,-18,140.88,262.4585,-0.1457,-0.9221,55.81396,37.500267,209.0256,2178
0.129291,-0.004789,9.75667,-0.009267,-0.015329,-0.011245,141.06,-18.42,140.76,262.4585,-0.1457,-0.9221,55.81396,37.500267,209.0256,2188
0.110137,-0.009577,9.869201,-0.008656,-0.011053,-0.005136,141.06,-18.42,140.76,262.4585,-0.1457,-0.9221,55.81396,37.500267,209.0256,2198
0.095771,0.004789,9.890749,-0.000715,-0.009831,0.000362,140.58,-18.54,140.58,262.0268,-0.1575,-1.0203,55.81396,37.500267,209.0256,2208
0.095771,0.004789,9.890749,-0.000715,-0.009831,0.000362,140.58,-18.54,140.58,262.0268,-0.1575,-1.0203,55.81396,37.500267,209.0256,2218
0.203513,-0.004789,9.862018,0.001729,-0.006166,-0.009412,140.94,-18.36,140.82,262.0268,-0.1575,-1.0203,55.81396,37.500267,209.0256,2228
0.136474,0.019154,9.897932,0.001729,-0.006166,-0.009412,140.94,-18.36,140.82,262.0268,-0.1575,-1.0203,55.81396,37.500267,209.0256,2238
0.119714,0.031126,9.850046,0.004172,-0.002501,-0.013688,141.66,-18.24,141.6,262.5158,-0.131,-0.9885,55.81396,37.500267,209.0256,2248
0.119714,0.031126,9.850046,0.009059,-0.006777,-0.014299,141.66,-18.24,141.6,262.5158,-0.131,-0.9885,55.81396,37.500267,209.0256,2258
0.047885,0.074223,9.830893,0.013946,-0.00922,-0.003914,141,-18.18,141.42,262.5158,-0.131,-0.9885,55.81396,37.500267,209.0256,2269
0.102954,0.076617,9.802161,0.013946,-0.009831,-0.001471,141,-18.18,141.42,262.5158,-0.131,-0.9885,55.81396,37.500267,209.0256,2278
0.201119,0.026337,9.830893,0.009059,0.001164,0.001583,141,-18.36,141,262.4712,-0.1304,-0.9426,55.81396,37.500267,209.0256,2289
0.22985,-0.026337,9.816526,0.00234,0.018269,-0.001471,141,-18.36,141,262.4712,-0.1304,-0.9426,55.81396,37.500267,209.0256,2298
0.22985,-0.026337,9.816526,0.00234,0.015214,-0.010634,141.48,-18.36,141.54,262.4712,-0.1304,-0.9426,55.81396,37.500267,209.0256,2308
0.148445,0.047885,9.826104,0.01639,0.00544,-0.009412,141.48,-18.36,141.54,262.4712,-0.1304,-0.9426,55.81396,37.500267,209.0256,2319
0.107742,0.126897,9.768641,0.027385,-0.010442,-0.009412,141,-18.66,142.38,262.0332,-0.1677,-0.8902,55.81396,37.500267,209.0256,2328
0.126897,0.076617,9.663293,0.027385,-0.010442,-0.009412,141,-18.66,142.38,262.0332,-0.1677,-0.8902,55.81396,37.500267,209.0256,2338
0.126897,0.076617,9.663293,0.006005,-0.001279,-0.010023,140.94,-18.66,141.9,262.0332,-0.1677,-0.8902,55.81396,37.500267,209.0256,2348
0.079011,0.055068,9.711179,-0.005602,-5.7E-05,-0.00819,140.94,-18.66,141.9,262.0332,-0.1677,-0.8902,55.81396,37.500267,209.0256,2358
0.102954,0.090982,9.804555,-0.003158,-0.003723,-0.006969,140.94,-18.54,140.94,261.9827,-0.2196,-0.8903,55.81396,37.500267,209.0256,2369
0.102954,0.090982,9.804555,0.001118,-0.01594,-0.004525,140.94,-18.54,140.94,261.9827,-0.2196,-0.8903,55.81396,37.500267,209.0256,2378
0.179571,0.122108,9.862018,0.001118,-0.01594,-0.004525,140.7,-18.72,141.48,261.9827,-0.2196,-0.8903,55.81396,37.500267,209.0256,2388
0.227456,0.064645,9.883567,0.004172,-0.016551,-0.006969,140.7,-18.72,141.48,261.9827,-0.2196,-0.8903,55.81396,37.500267,209.0256,2398
0.148445,0.06704,9.943423,0.00295,-0.010442,-0.005747,140.94,-18.78,141.06,261.9407,-0.2671,-0.8499,55.81396,37.500267,209.0256,2408
0.148445,0.06704,9.943423,0.007227,0.006662,0.005859,140.94,-18.78,141.06,261.9407,-0.2671,-0.8499,55.81396,37.500267,209.0256,2418
0.177176,0.040703,9.909904,0.012113,0.008495,0.005249,141,-18.84,140.76,261.9407,-0.2671,-0.8499,55.81396,37.500267,209.0256,2428
0.210696,0.004789,9.948212,0.019444,0.009106,0.007081,141,-18.84,140.76,261.9407,-0.2671,-0.8499,55.81396,37.500267,209.0256,2438
0.160416,0.021548,9.90272,0.03777,-0.004944,0.000972,141.36,-18.54,141.6,261.8588,-0.341,-0.8767,55.81396,37.500267,209.0256,2448
0.098165,0.028731,9.826104,0.042657,-0.006166,-0.002082,141.24,-18.42,141.54,261.8588,-0.341,-0.8767,55.81396,37.500267,209.0256,2457
0.098165,0.028731,9.826104,0.042657,-0.006166,-0.002082,141.24,-18.42,141.54,261.8588,-0.341,-0.8767,55.81396,37.500267,209.0256,2468
0.10056,0.071828,9.715967,0.038381,-0.012275,-0.003304,140.94,-18.78,141.66,261.8588,-0.341,-0.8767,55.81396,37.500267,209.0256,2478
0.10056,0.071828,9.715967,0.021276,-0.001279,-0.002082,140.94,-18.78,141.66,261.8588,-0.341,-0.8767,55.81396,37.500267,209.0256,2488
0.107742,0.076617,9.668081,0.01639,0.00483,0.002194,140.76,-19.02,141.66,261.8188,-0.3778,-0.8935,55.81396,37.500267,209.0256,2500
0.158022,0.093377,9.684841,0.004172,0.015214,0.007081,140.64,-19.32,141.36,261.8188,-0.3778,-0.8935,55.81396,37.500267,209.0256,2508
0.21309,0.059857,9.766247,-0.003158,0.015214,0.005859,140.64,-19.32,141.36,261.8188,-0.3778,-0.8935,55.81396,37.500267,209.0256,2521
0.21309,0.059857,9.766247,-0.000104,0.013382,0.005249,141.12,-18.3,141,262.2183,-0.3919,-0.8566,55.81396,37.500267,209.0256,2528
0.196331,0.040703,9.785401,0.00234,-0.001279,0.004027,141.12,-18.3,141,262.2183,-0.3919,-0.8566,55.81396,37.500267,209.0256,2538
0.191542,0.062251,9.833286,0.007837,-0.003112,0.004027,141,-18.18,141.3,262.2183,-0.3919,-0.8566,55.81396,37.500267,209.0256,2548
0.239427,0.028731,9.857229,0.009059,-0.004944,0.005249,141,-18.18,141.3,262.2183,-0.3919,-0.8566,55.81396,37.500267,209.0256,2558
0.239427,0.028731,9.857229,0.013335,-0.006777,0.008914,141.36,-18.6,141.36,261.815,-0.3923,-0.8458,55.81396,37.500267,209.0256,2568
0.22985,0.069434,9.862018,0.01639,-0.003723,0.008303,141.36,-18.6,141.36,261.815,-0.3923,-0.8458,55.81396,37.500267,209.0256,2577
0.201119,0.112531,9.72315,0.017,-0.002501,0.010746,141.36,-17.94,141.36,261.815,-0.3923,-0.8458,55.81396,37.500267,209.0256,2588
0.172388,0.119714,9.696813,0.012724,-0.014107,0.010135,141.36,-17.94,141.36,261.815,-0.3923,-0.8458,55.81396,37.500267,209.0256,2598
0.179571,0.124502,9.718362,0.00295,-0.010442,0.008914,140.46,-17.94,141.3,262.1546,-0.3898,-0.9262,55.81396,37.500267,209.0256,2608
0.179571,0.124502,9.718362,-0.007434,0.002386,0.005249,140.46,-17.94,141.3,262.1546,-0.3898,-0.9262,55.81396,37.500267,209.0256,2618
0.186753,0.146051,9.771035,-0.01171,0.006051,0.001583,140.58,-18.06,141.42,262.1546,-0.3898,-0.9262,55.81396,37.500267,209.0256,2628
0.189148,0.129291,9.792584,-0.009878,0.004219,-0.003914,140.58,-18.06,141.42,262.1546,-0.3898,-0.9262,55.81396,37.500267,209.0256,2638
0.124502,0.124502,9.842864,-0.000104,-0.006777,-0.009412,140.82,-18.3,141.18,262.1532,-0.4369,-0.9912,55.81396,37.500267,209.0256,2648
0.10056,0.126897,9.857229,0.007227,-0.00861,-0.00819,140.82,-18.3,141.18,262.1532,-0.4369,-0.9912,55.81396,37.500267,209.0256,2658
0.10056,0.126897,9.857229,0.007227,-0.00861,-0.00819,140.82,-18.3,141.18,262.1532,-0.4369,-0.9912,55.81396,37.500267,209.0256,2668
0.10056,0.107742,9.830893,0.014557,-0.012275,-0.003914,140.82,-18.66,140.94,262.1532,-0.4369,-0.9912,55.81396,37.500267,209.0256,2678
0.162811,0.112531,9.838076,0.015779,-0.00922,-0.004525,141.18,-18.96,140.88,261.6898,-0.4925,-1.0013,55.81396,37.500267,209.0256,2688
0.141262,0.110137,9.866806,0.013946,-5.7E-05,-0.00086,141.18,-18.96,140.88,261.6898,-0.4925,-1.0013,55.81396,37.500267,209.0256,2698
0.141262,0.110137,9.866806,0.011503,0.003608,0.000362,141.12,-19.38,141.6,261.6898,-0.4925,-1.0013,55.81396,37.500267,209.0256,2708
0.167599,0.079011,9.847652,0.014557,0.003608,0.002805,141.12,-19.38,141.6,261.6898,-0.4925,-1.0013,55.81396,37.500267,209.0256,2718
0.193936,0.102954,9.883567,0.014557,0.003608,-0.003304,141.36,-19.02,141.96,261.6111,-0.57,-0.971,55.81396,37.500267,209.0256,2727
0.237033,0.098165,9.830893,0.017,0.011549,-0.005136,141.36,-19.02,141.96,261.6111,-0.57,-0.971,55.81396,37.500267,209.0256,2738
0.203513,0.090982,9.778218,0.012724,0.014603,-0.010634,141.54,-18.66,142.14,261.6111,-0.57,-0.971,55.81396,37.500267,209.0256,2748
0.203513,0.090982,9.778218,0.006005,0.01216,-0.006358,141.54,-18.66,142.14,261.6111,-0.57,-0.971,55.81396,37.500267,209.0256,2758
0.129291,0.102954,9.711179,0.008448,0.007884,-0.003304,141.36,-18.6,142.08,261.5763,-0.6068,-0.954,55.81396,37.500267,209.0256,2768
0.143657,0.110137,9.718362,0.006005,-5.7E-05,0.001583,141.36,-18.6,142.08,261.5763,-0.6068,-0.954,55.81396,37.500267,209.0256,2778
0.146051,0.107742,9.701602,0.007837,-0.001279,-0.000249,141.6,-18.9,141.24,261.5763,-0.6068,-0.954,55.81396,37.500267,209.0256,2788
0.167599,0.119714,9.725544,0.007837,-0.002501,-0.00086,141.6,-18.9,141.24,261.5763,-0.6068,-0.954,55.81396,37.500267,209.0256,2798
0.181965,0.129291,9.718362,0.007837,-0.002501,-0.00086,141.78,-18.9,141.54,261.6305,-0.6125,-0.9515,55.81396,37.500267,209.0256,2808
0.181965,0.129291,9.718362,0.006616,-0.004944,0.001583,141.78,-18.9,141.54,261.6305,-0.6125,-0.9515,55.81396,37.500267,209.0256,2818
0.225062,0.134079,9.715967,0.001118,-0.010442,-0.000249,141.72,-18.72,141.9,261.6305,-0.6125,-0.9515,55.81396,37.500267,209.0256,2828
0.210696,0.143657,9.730332,-0.010489,-0.003112,-0.002082,141.72,-18.72,141.9,261.6305,-0.6125,-0.9515,55.81396,37.500267,209.0256,2838
0.191542,0.129291,9.759064,-0.022095,0.00483,-0.005747,140.94,-18.48,141.48,261.959,-0.6284,-0.9906,55.81396,37.500267,209.0256,2848
0.222668,0.126897,9.811738,-0.023928,0.001164,-0.002693,140.94,-18.48,141.48,261.959,-0.6284,-0.9906,55.81396,37.500267,209.0256,2858
0.222668,0.126897,9.811738,-0.023317,-0.003112,-0.004525,140.7,-18.48,141.24,261.959,-0.6284,-0.9906,55.81396,37.500267,209.0256,2869
0.208302,0.114925,9.876384,-0.019652,-0.005555,-0.010023,140.7,-18.48,141.24,261.959,-0.6284,-0.9906,55.81396,37.500267,209.0256,2878
0.119714,0.069434,9.895537,-0.013543,-0.007999,-0.014299,140.88,-18.72,141.48,261.5564,-0.6223,-1.0139,55.81396,37.500267,209.0256,2887
0.129291,0.064645,9.895537,-0.004991,-0.004944,-0.013688,140.88,-18.72,141.48,261.5564,-0.6223,-1.0139,55.81396,37.500267,209.0256,2898
0.184359,0.081405,9.857229,0.005394,-0.00861,-0.010634,140.82,-18.78,141.78,261.5564,-0.6223,-1.0139,55.81396,37.500267,209.0256,2908
0.201119,0.112531,9.878778,0.008448,-0.004944,-0.009412,140.82,-18.78,141.78,261.5564,-0.6223,-1.0139,55.81396,37.500267,209.0256,2918
0.201119,0.112531,9.878778,0.013946,-0.00189,-0.010634,140.7,-18.66,142.02,261.5471,-0.6219,-1.0401,55.81396,37.500267,209.0256,2928
0.272947,0.126897,9.871595,0.014557,-0.005555,-0.012467,140.7,-18.66,142.02,261.5471,-0.6219,-1.0401,55.81396,37.500267,209.0256,2938
0.29689,0.064645,9.912297,0.012724,0.007273,-0.011856,140.46,-18.9,141.66,261.5471,-0.6219,-1.0401,55.81396,37.500267,209.0256,2947
0.265765,0.074223,9.90272,0.011503,0.013992,-0.017353,140.46,-18.9,141.66,261.5471,-0.6219,-1.0401,55.81396,37.500267,209.0256,2958
0.265765,0.074223,9.90272,0.019444,0.00544,-0.026516,141.12,-19.14,141.48,261.5291,-0.6417,-1.061,55.81396,37.500267,209.0256,2968
0.189148,0.138868,9.835681,0.025552,-0.007388,-0.027738,141.12,-19.14,141.48,261.5291,-0.6417,-1.061,55.81396,37.500267,209.0256,2978
0.0838,0.251399,9.660899,0.027996,-0.012275,-0.025295,141.66,-18.84,140.88,261.5291,-0.6417,-1.061,55.81396,37.500267,209.0256,2989
0.074223,0.184359,9.598648,0.011503,-0.006777,-0.017353,141.66,-18.84,140.88,261.5291,-0.6417,-1.061,55.81396,37.500267,209.0256,2998
0.05028,0.136474,9.620196,-0.008656,0.007273,-0.017353,141.12,-18.42,140.52,261.9127,-0.6541,-1.1214,55.81396,37.500267,209.0256,3009
0.05028,0.136474,9.620196,-0.008656,0.007273,-0.017353,141.12,-18.42,140.52,261.9127,-0.6541,-1.1214,55.81396,37.500267,209.0256,3018
0.019154,0.117319,9.703996,-0.026371,0.017658,-0.005136,141.3,-18.3,141.36,261.9127,-0.6541,-1.1214,55.81396,37.500267,209.0256,3028
0.179571,0.138868,9.823709,-0.026371,0.017658,-0.005136,141.3,-18.3,141.36,261.9127,-0.6541,-1.1214,55.81396,37.500267,209.0256,3038
0.179571,0.138868,9.823709,-0.020262,-0.000668,-0.010023,141.3,-18.3,141.36,261.9127,-0.6541,-1.1214,55.81396,37.500267,209.0256,3048
0.222668,0.155628,9.866806,-0.012321,-0.00861,-0.014299,141.3,-18.48,141.18,261.853,-0.7229,-1.0558,55.81396,37.500267,209.0256,3058
0.153234,0.122108,9.876384,0.001118,-0.028157,-0.023462,141.06,-18.54,141.12,261.853,-0.7229,-1.0558,55.81396,37.500267,209.0256,3068
0.179571,0.093377,9.905115,0.003561,-0.02999,-0.016743,141.06,-18.54,141.12,261.853,-0.7229,-1.0558,55.81396,37.500267,209.0256,3078
0.179571,0.093377,9.905115,0.00234,-0.012275,-0.010023,141.66,-18.78,141.3,261.521,-0.7236,-0.9718,55.81396,37.500267,209.0256,3088
0.184359,0.098165,9.909904,-0.006823,0.000553,-0.001471,141.66,-18.78,141.3,261.521,-0.7236,-0.9718,55.81396,37.500267,209.0256,3098
0.184359,0.05028,9.960183,-0.01171,0.013992,-0.005136,141.18,-18.78,141.18,261.521,-0.7236,-0.9718,55.81396,37.500267,209.0256,3108
0.124502,0.076617,9.933846,-0.003769,0.01216,-0.004525,141.18,-18.78,141.18,261.521,-0.7236,-0.9718,55.81396,37.500267,209.0256,3118
0.150839,0.098165,9.866806,0.007227,-0.006166,-0.009412,140.7,-18.78,141.72,261.4525,-0.7239,-0.9829,55.81396,37.500267,209.0256,3128
0.150839,0.098165,9.866806,0.015168,-0.015329,-0.005747,140.7,-18.78,141.72,261.4525,-0.7239,-0.9829,55.81396,37.500267,209.0256,3138
0.134079,0.134079,9.802161,0.015779,-0.019605,-0.003914,141.9,-18.42,141.42,261.4525,-0.7239,-0.9829,55.81396,37.500267,209.0256,3148
0.158022,0.153234,9.715967,0.004783,-0.014718,0.000972,141.9,-18.42,141.42,261.4525,-0.7239,-0.9829,55.81396,37.500267,209.0256,3158
0.220273,0.205908,9.694419,-0.014154,-0.003112,-0.003304,141.24,-18,140.94,261.8884,-0.7027,-0.9606,55.81396,37.500267,209.0256,3168
0.225062,0.225062,9.787795,-0.026371,0.004219,-0.00758,141.24,-18,140.94,261.8884,-0.7027,-0.9606,55.81396,37.500267,209.0256,3178
0.225062,0.225062,9.787795,-0.023317,0.000553,-0.010634,140.58,-18.18,141,261.8884,-0.7027,-0.9606,55.81396,37.500267,209.0256,3188
0.153234,0.177176,9.845258,-0.023317,0.000553,-0.010634,140.58,-18.18,141,261.8884,-0.7027,-0.9606,55.81396,37.500267,209.0256,3198
0.134079,0.148445,9.881172,-0.016597,-0.00922,-0.014299,141.06,-18.96,141,261.4711,-0.7146,-0.9643,55.81396,37.500267,209.0256,3208
0.10056,0.131685,9.893144,-0.003769,-0.014718,-0.010023,141.06,-18.96,141,261.4711,-0.7146,-0.9643,55.81396,37.500267,209.0256,3218
0.112531,0.143657,9.823709,0.006616,-0.021438,-0.003304,141.36,-19.14,140.82,261.4711,-0.7146,-0.9643,55.81396,37.500267,209.0256,3228
0.112531,0.143657,9.823709,0.007227,-0.019605,-0.003304,141.36,-19.14,140.82,261.4711,-0.7146,-0.9643,55.81396,37.500267,209.0256,3238
0.162811,0.153234,9.814133,0.004172,-0.021438,-0.002693,141.54,-18.48,140.82,261.8796,-0.7651,-0.9823,55.81396,37.500267,209.0256,3248
0.198725,0.146051,9.826104,-0.000104,-0.017773,-0.006358,141.54,-18.48,140.82,261.8796,-0.7651,-0.9823,55.81396,37.500267,209.0256,3258
0.179571,0.136474,9.876384,-0.008045,-0.013496,-0.013688,141.06,-18.6,141.42,261.8796,-0.7651,-0.9823,55.81396,37.500267,209.0256,3268
0.179571,0.136474,9.876384,0.001729,-0.017162,-0.009412,141.06,-18.6,141.42,261.8796,-0.7651,-0.9823,55.81396,37.500267,209.0256,3278
0.174782,0.165205,9.921875,0.001729,-0.017162,-0.009412,141.06,-18.6,141.42,261.8796,-0.7651,-0.9823,55.81396,37.500267,209.0256,3288
0.119714,0.191542,9.943423,0.024942,-0.018994,-0.004525,140.82,-19.26,141.36,261.3793,-0.8019,-0.9865,55.81396,37.500267,209.0256,3298
0.105348,0.222668,9.852441,0.024942,-0.018994,-0.004525,141.18,-18.66,141.48,261.3793,-0.8019,-0.9865,55.81396,37.500267,209.0256,3308
0.105348,0.222668,9.852441,0.032272,-0.026935,0.001583,141.18,-18.66,141.48,261.3793,-0.8019,-0.9865,55.81396,37.500267,209.0256,3318
0.189148,0.256187,9.72315,0.030439,-0.02327,0.002805,141.6,-18.54,141.66,261.3909,-0.8408,-1.0059,55.81396,37.500267,209.0256,3328
0.241822,0.268159,9.725544,0.010281,-0.006166,-0.005136,141.6,-18.54,141.66,261.3909,-0.8408,-1.0059,55.81396,37.500267,209.0256,3338
0.167599,0.244216,9.72315,-0.004991,0.013382,-0.00819,141.18,-18.36,141.12,261.3909,-0.8408,-1.0059,55.81396,37.500267,209.0256,3348
0.167599,0.244216,9.72315,-0.008656,0.014603,-0.005747,141.18,-18.36,141.12,261.3909,-0.8408,-1.0059,55.81396,37.500267,209.0256,3357
0.141262,0.172388,9.792584,-0.001326,0.007273,-0.006358,141.3,-18.06,141.3,261.6046,-0.9734,-1.0217,55.81396,37.500267,209.0256,3368
0.181965,0.148445,9.840469,0.00295,-0.003723,-0.011245,141.3,-18.06,141.3,261.6046,-0.9734,-1.0217,55.81396,37.500267,209.0256,3378
0.174782,0.134079,9.802161,0.007837,-0.006166,-0.013688,141.18,-18.96,142.02,261.6046,-0.9734,-1.0217,55.81396,37.500267,209.0256,3388
0.174782,0.134079,9.802161,0.006005,-0.005555,-0.010634,141.18,-18.96,142.02,261.6046,-0.9734,-1.0217,55.81396,37.500267,209.0256,3397
0.165205,0.098165,9.766247,0.001729,-0.003723,-0.011245,140.7,-18.9,142.32,261.1246,-1.0407,-1.017,55.81396,37.500267,209.0256,3408
0.21309,0.122108,9.778218,-0.010489,0.000553,-0.00819,140.7,-18.9,142.32,261.1246,-1.0407,-1.017,55.81396,37.500267,209.0256,3418
0.198725,0.148445,9.835681,-0.008045,0.002997,-0.00758,141.48,-17.7,141.72,261.1246,-1.0407,-1.017,55.81396,37.500267,209.0256,3428
0.198725,0.148445,9.835681,-0.004991,0.002386,-0.004525,141.48,-17.7,141.72,261.1246,-1.0407,-1.017,55.81396,37.500267,209.0256,3438
0.265765,0.138868,9.792584,-0.005602,0.001164,-0.00758,141.6,-17.52,141.54,261.6107,-1.0176,-1.0251,55.81396,37.500267,209.0256,3448
0.260976,0.158022,9.749487,-0.006212,0.006051,-0.004525,141.6,-17.52,141.54,261.6107,-1.0176,-1.0251,55.81396,37.500267,209.0256,3458
0.222668,0.158022,9.768641,-0.015375,0.010327,-0.005747,141.3,-18.12,142.14,261.6107,-1.0176,-1.0251,55.81396,37.500267,209.0256,3468
0.21309,0.179571,9.797373,-0.015986,0.015214,0.004027,141.3,-18.12,142.14,261.6107,-1.0176,-1.0251,55.81396,37.500267,209.0256,3478
0.198725,0.191542,9.816526,-0.005602,0.014603,0.00647,140.7,-18.42,141.84,261.5928,-0.9699,-1.0658,55.81396,37.500267,209.0256,3488
0.198725,0.191542,9.816526,-0.000104,-5.7E-05,0.00647,140.7,-18.42,141.84,261.5928,-0.9699,-1.0658,55.81396,37.500267,209.0256,3498
0.210696,0.210696,9.763853,0.005394,-0.006166,0.003416,140.22,-18.18,141.6,261.5928,-0.9699,-1.0658,55.81396,37.500267,209.0256,3508
0.222668,0.241822,9.77343,0.00295,-0.00861,-0.005747,140.22,-18.18,141.6,261.5928,-0.9699,-1.0658,55.81396,37.500267,209.0256,3517
0.222668,0.244216,9.715967,0.00295,-0.00861,-0.005747,140.88,-17.88,141.42,261.6117,-0.9528,-1.1048,55.81396,37.500267,209.0256,3527
0.222668,0.244216,9.715967,-0.008045,-0.003112,-0.011245,140.88,-17.88,141.42,261.6117,-0.9528,-1.1048,55.81396,37.500267,209.0256,3538
0.217879,0.237033,9.749487,-0.022706,0.006051,-0.016743,141.48,-18,141.6,261.6117,-0.9528,-1.1048,55.81396,37.500267,209.0256,3548
0.184359,0.220273,9.823709,-0.036145,0.018269,-0.021019,141.48,-18,141.6,261.6117,-0.9528,-1.1048,55.81396,37.500267,209.0256,3558
0.155628,0.232245,9.852441,-0.037367,0.015825,-0.019186,141.06,-17.88,141.96,261.5375,-1.0085,-1.1606,55.81396,37.500267,209.0256,3568
0.155628,0.232245,9.852441,-0.030647,0.008495,-0.021019,141.06,-17.88,141.96,261.5375,-1.0085,-1.1606,55.81396,37.500267,209.0256,3578
0.227456,0.227456,9.814133,-0.017208,-0.006166,-0.019797,140.82,-17.64,142.38,261.5375,-1.0085,-1.1606,55.81396,37.500267,209.0256,3588
0.28013,0.179571,9.761458,-0.017819,-0.004944,-0.019186,140.82,-17.64,142.38,261.5375,-1.0085,-1.1606,55.81396,37.500267,209.0256,3598
0.241822,0.155628,9.802161,-0.017208,0.009716,-0.025906,141,-18.12,141.96,261.517,-1.0301,-1.1505,55.81396,37.500267,209.0256,3608
0.136474,0.203513,9.759064,-0.006823,0.002997,-0.027127,141,-18.12,141.96,261.517,-1.0301,-1.1505,55.81396,37.500267,209.0256,3618
0.098165,0.251399,9.682447,0.003561,-0.017773,-0.02896,140.76,-18.3,141.24,261.517,-1.0301,-1.1505,55.81396,37.500267,209.0256,3628
0.098165,0.251399,9.682447,0.003561,-0.017773,-0.02896,140.76,-18.3,141.24,261.517,-1.0301,-1.1505,55.81396,37.500267,209.0256,3638
0.148445,0.237033,9.677659,-0.009878,-0.020216,-0.036901,141.12,-18.06,141.24,261.4882,-1.0606,-1.188,55.81396,37.500267,209.0256,3648
0.136474,0.167599,9.725544,-0.009878,-0.020216,-0.036901,141.12,-18.06,141.24,261.4882,-1.0606,-1.188,55.81396,37.500267,209.0256,3658
0.086194,0.181965,9.828498,-0.036756,0.000553,-0.037512,141.06,-17.82,141.42,261.4882,-1.0606,-1.188,55.81396,37.500267,209.0256,3668
0.086194,0.181965,9.828498,-0.045919,0.012771,-0.033236,141.06,-17.82,141.42,261.4882,-1.0606,-1.188,55.81396,37.500267,209.0256,3677
0.081405,0.21309,9.900327,-0.037977,0.007273,-0.012467,140.94,-17.76,141.48,261.4347,-1.1157,-1.1732,55.81396,37.500267,209.0256,3688
0.227456,0.225062,9.907509,-0.03981,0.002386,-0.013688,140.94,-17.76,141.48,261.4347,-1.1157,-1.1732,55.81396,37.500267,209.0256,3697
0.234639,0.256187,9.972155,-0.029425,-0.003723,-0.011245,141.06,-18.18,141.78,261.4347,-1.1157,-1.1732,55.81396,37.500267,209.0256,3708
0.208302,0.225062,9.883567,-0.014765,-0.012886,-0.01491,141.06,-18.18,141.78,261.4347,-1.1157,-1.1732,55.81396,37.500267,209.0256,3718
0.208302,0.225062,9.883567,-0.013543,-0.016551,-0.019797,141.06,-18.24,142.26,261.4831,-1.0783,-1.0608,55.81396,37.500267,209.0256,3728
0.162811,0.253793,9.828498,-0.016597,-0.012275,-0.012467,141.06,-18.24,142.26,261.4831,-1.0783,-1.0608,55.81396,37.500267,209.0256,3738
0.153234,0.301679,9.814133,-0.019041,-0.002501,-0.006358,141.48,-18.36,142.14,261.4831,-1.0783,-1.0608,55.81396,37.500267,209.0256,3748
0.131685,0.299284,9.759064,-0.019041,-0.002501,-0.006358,141.48,-18.36,142.14,261.4831,-1.0783,-1.0608,55.81396,37.500267,209.0256,3758
0.131685,0.299284,9.759064,-0.030647,0.010938,-0.005136,141.18,-18.48,142.02,261.4373,-1.1206,-1.0761,55.81396,37.500267,209.0256,3768
0.117319,0.335198,9.720756,-0.04653,0.017047,-0.001471,141.18,-18.48,142.02,261.4373,-1.1206,-1.0761,55.81396,37.500267,209.0256,3778
0.184359,0.385478,9.711179,-0.062412,0.017047,0.004638,141.18,-17.7,142.2,261.4373,-1.1206,-1.0761,55.81396,37.500267,209.0256,3788
0.160416,0.344776,9.744699,-0.081349,0.024988,0.004027,141.18,-17.7,142.2,261.4373,-1.1206,-1.0761,55.81396,37.500267,209.0256,3798
0.160416,0.344776,9.744699,-0.107005,0.05492,0.011968,141.36,-17.52,141.9,261.3741,-1.1945,-1.0072,55.81396,37.500267,209.0256,3807
0.189148,0.337593,9.814133,-0.109449,0.050644,0.004027,141.36,-17.52,141.9,261.3741,-1.1945,-1.0072,55.81396,37.500267,209.0256,3819
0.167599,0.318439,9.871595,-0.102118,0.02621,0.004027,141.48,-18.12,141.78,261.3741,-1.1945,-1.0072,55.81396,37.500267,209.0256,3828
0.167599,0.225062,9.960183,-0.086847,0.011549,0.003416,141.48,-18.12,141.78,261.3741,-1.1945,-1.0072,55.81396,37.500267,209.0256,3839
0.167599,0.225062,9.960183,-0.083792,0.015214,0.007081,141.66,-18.06,142.02,261.4775,-1.1698,-0.9047,55.81396,37.500267,209.0256,3848
0.141262,0.191542,9.988914,-0.080738,0.026821,0.012579,141.66,-18.06,142.02,261.4775,-1.1698,-0.9047,55.81396,37.500267,209.0256,3858
0.098165,0.217879,9.96976,-0.075851,0.016436,0.012579,141.18,-17.64,142.44,261.4775,-1.1698,-0.9047,55.81396,37.500267,209.0256,3867
0.172388,0.270553,9.897932,-0.069132,0.001164,0.015633,141.18,-17.64,142.44,261.4775,-1.1698,-0.9047,55.81396,37.500267,209.0256,3878
0.210696,0.399844,9.816526,-0.066077,-0.014718,0.010746,141.12,-17.34,142.44,261.9042,-1.0928,-0.875,55.81396,37.500267,209.0256,3888
0.210696,0.399844,9.816526,-0.074629,-0.018383,0.005249,141.12,-17.34,142.44,261.9042,-1.0928,-0.875,55.81396,37.500267,209.0256,3898
0.249005,0.442941,9.502876,-0.101507,-0.064809,-0.000249,141.24,-17.34,142.14,261.9042,-1.0928,-0.875,55.81396,37.500267,209.0256,3908
0.251399,0.428575,9.615408,-0.133883,-0.031212,0.00647,141.24,-17.34,142.14,261.9042,-1.0928,-0.875,55.81396,37.500267,209.0256,3918
0.28013,0.490826,9.584282,-0.165037,-0.026935,0.002194,140.88,-17.4,142.26,261.8177,-1.171,-0.9183,55.81396,37.500267,209.0256,3927
0.28013,0.418998,9.598648,-0.189472,-0.021438,0.002805,140.88,-17.4,142.26,261.8177,-1.171,-0.9183,55.81396,37.500267,209.0256,3938
0.256187,0.418998,9.598648,-0.205965,-0.000668,0.000972,140.88,-17.34,141.48,261.8177,-1.171,-0.9183,55.81396,37.500267,209.0256,3948
0.316044,0.356747,9.744699,-0.205965,-0.000668,0.000972,140.88,-17.34,141.48,261.8177,-1.171,-0.9183,55.81396,37.500267,209.0256,3957
0.505192,0.404632,9.785401,-0.202911,-0.003723,-0.030182,141.12,-16.86,141.9,262.0548,-0.9239,-1.0082,55.81396,37.500267,209.0256,3967
0.215485,0.217879,9.90272,-0.165648,-0.046483,-0.029571,141.12,-16.86,141.9,262.0548,-0.9239,-1.0082,55.81396,37.500267,209.0256,3978
0.215485,0.217879,9.90272,-0.165648,-0.046483,-0.029571,141.12,-16.5,142.2,262.0548,-0.9239,-1.0082,55.81396,37.500267,209.0256,3988
0.193936,0.387873,9.979338,-0.141825,-0.052592,-0.041788,141.12,-16.5,142.2,262.0548,-0.9239,-1.0082,55.81396,37.500267,209.0256,3998
0.112531,0.265765,9.921875,-0.116779,-0.038542,-0.02896,140.58,-16.98,142.14,262.5286,-0.4601,-1.0123,55.81396,37.500267,209.0256,4008
0.148445,0.371113,9.682447,-0.102729,-0.029379,-0.02163,140.58,-16.98,142.14,262.5286,-0.4601,-1.0123,55.81396,37.500267,209.0256,4018
0.141262,0.411815,9.514848,-0.114336,-0.028157,-0.011856,141.12,-17.34,142.26,262.5286,-0.4601,-1.0123,55.81396,37.500267,209.0256,4028
0.141262,0.411815,9.514848,-0.141214,-0.014718,-0.005747,141.12,-17.34,142.26,262.5286,-0.4601,-1.0123,55.81396,37.500267,209.0256,4038
0.193936,0.466884,9.450203,-0.174811,-0.013496,0.001583,141.66,-16.86,142.32,262.8441,-0.1903,-1.1051,55.81396,37.500267,209.0256,4048
0.191542,0.488432,9.364009,-0.229789,0.015825,0.007692,141.66,-16.86,142.32,262.8441,-0.1903,-1.1051,55.81396,37.500267,209.0256,4057
0.339987,0.34717,9.517242,-0.281713,0.02621,0.018077,141.24,-16.44,142.74,262.8441,-0.1903,-1.1051,55.81396,37.500267,209.0256,4067
0.371113,0.258582,9.747093,-0.325695,0.046979,0.011968,141.24,-16.44,142.74,262.8441,-0.1903,-1.1051,55.81396,37.500267,209.0256,4078
0.371113,0.258582,9.747093,-0.36479,0.07569,-0.006358,141.06,-16.8,142.38,263.2074,0.2132,-1.1189,55.81396,37.500267,209.0256,4088
0.268159,0.160416,9.895537,-0.365401,0.063473,-0.006969,141.06,-16.8,142.38,263.2074,0.2132,-1.1189,55.81396,37.500267,209.0256,4098
0.162811,0.090982,9.842864,-0.358071,0.04759,-0.021019,141.36,-16.44,142.14,263.2074,0.2132,-1.1189,55.81396,37.500267,209.0256,4108
0.162811,0.090982,9.842864,-0.355627,0.04026,-0.010634,141.36,-16.44,142.14,263.2074,0.2132,-1.1189,55.81396,37.500267,209.0256,4118
0.086194,0.074223,9.979338,-0.344021,0.041481,-0.017353,141.78,-16.14,142.38,264.4757,0.9925,-0.9838,55.81396,37.500267,209.0256,4128
0.055068,0.117319,9.828498,-0.337301,0.046979,-0.032625,141.78,-16.14,142.38,264.4757,0.9925,-0.9838,55.81396,37.500267,209.0256,4138
0.141262,0.172388,9.689631,-0.311034,0.001164,-0.005136,142.2,-16.2,142.68,264.4757,0.9925,-0.9838,55.81396,37.500267,209.0256,4148
0.150839,0.189148,9.596253,-0.287821,-0.039153,-0.012467,142.26,-15.48,142.86,264.4757,0.9925,-0.9838,55.81396,37.500267,209.0256,4159
0.150839,0.189148,9.596253,-0.285378,-0.082524,-0.019186,142.26,-15.48,142.86,264.4757,0.9925,-0.9838,55.81396,37.500267,209.0256,4168
0.124502,0.284919,9.380769,-0.318365,-0.085579,-0.010634,141.06,-15.12,143.1,265.8526,1.946,-0.8956,55.81396,37.500267,209.0256,4178
0.208302,0.155628,9.361614,-0.394112,-0.047094,-0.012467,141.06,-15.12,143.1,265.8526,1.946,-0.8956,55.81396,37.500267,209.0256,4188
0.222668,0.10056,9.562734,-0.436262,-0.017162,-0.002693,141,-14.82,143.16,265.8526,1.946,-0.8956,55.81396,37.500267,209.0256,4198
0.222668,0.10056,9.562734,-0.44909,0.017658,0.00647,141,-14.82,143.16,265.8526,1.946,-0.8956,55.81396,37.500267,209.0256,4208
0.215485,0.031126,9.632168,-0.448479,0.00483,-0.006358,141.3,-14.46,143.1,267.0283,2.6785,-1.0499,55.81396,37.500267,209.0256,4218
0.181965,-0.045491,9.687236,-0.440538,-0.001279,0.002194,141.3,-14.46,143.1,267.0283,2.6785,-1.0499,55.81396,37.500267,209.0256,4228
0.208302,-0.143656,9.62259,-0.438094,-0.002501,-0.001471,141,-14.52,143.46,267.0283,2.6785,-1.0499,55.81396,37.500267,209.0256,4238
0.26337,-0.184359,9.574705,-0.439927,-0.027546,0.007081,141,-14.52,143.46,267.0283,2.6785,-1.0499,55.81396,37.500267,209.0256,4248
0.26337,-0.184359,9.574705,-0.447868,-0.040985,0.01319,140.28,-14.04,143.88,268.0928,3.6772,-1.0442,55.81396,37.500267,209.0256,4258
0.323227,-0.21309,9.603436,-0.468027,-0.040985,0.009525,140.28,-14.04,143.88,268.0928,3.6772,-1.0442,55.81396,37.500267,209.0256,4268
0.404632,-0.21309,9.634562,-0.479022,-0.028768,0.016244,139.98,-13.26,143.88,268.0928,3.6772,-1.0442,55.81396,37.500267,209.0256,4278
0.404632,-0.21309,9.634562,-0.479022,-0.028768,0.016244,139.98,-13.26,143.88,268.0928,3.6772,-1.0442,55.81396,37.500267,209.0256,4288
0.134079,-0.184359,9.613013,-0.490018,0.006662,0.038235,140.76,-13.38,143.22,269.5589,4.6822,-1.1036,55.81396,37.500267,209.0256,4298
0.007183,-0.260976,9.407105,-0.537665,0.056753,0.068168,140.88,-13.02,143.16,269.5589,4.6822,-1.1036,55.81396,37.500267,209.0256,4308
0.009577,-0.325621,9.354432,-0.60425,0.10379,0.117648,140.88,-13.02,143.16,269.5589,4.6822,-1.1036,55.81396,37.500267,209.0256,4318
0.316044,-0.502798,9.419077,-0.683662,0.17465,0.154911,141.24,-12.54,143.64,269.5589,4.6822,-1.1036,55.81396,37.500267,209.0256,4328
0.316044,-0.502798,9.419077,-0.760631,0.222298,0.164074,141.24,-12.54,143.64,269.5589,4.6822,-1.1036,55.81396,37.500267,209.0256,4338
0.433364,-0.603357,9.577099,-0.768572,0.183202,0.131087,141,-11.76,143.82,271.5928,6.1885,-0.9826,55.81396,37.500267,209.0256,4348
0.524346,-0.756591,9.972155,-0.750857,0.141052,0.102376,141,-11.76,143.58,271.5928,6.1885,-0.9826,55.81396,37.500267,209.0256,4358
0.524346,-0.756591,9.972155,-0.692214,0.085464,0.036403,141,-11.76,143.58,271.5928,6.1885,-0.9826,55.81396,37.500267,209.0256,4368
0.34717,-0.988835,10.187639,-0.651286,0.056142,0.02052,141.6,-11.34,143.64,271.5928,6.1885,-0.9826,55.81396,37.500267,209.0256,4378
0.167599,-1.005595,10.252285,-0.605471,0.022545,0.018077,141.6,-11.34,143.64,271.5928,6.1885,-0.9826,55.81396,37.500267,209.0256,4388
0.021548,-1.055875,10.024829,-0.605471,0.022545,0.018077,141.54,-10.92,144.42,274.0709,8.2836,-0.4573,55.81396,37.500267,209.0256,4398
0.208302,-1.098972,9.727939,-0.590811,0.002997,0.029072,141.42,-10.62,144.6,274.0709,8.2836,-0.4573,55.81396,37.500267,209.0256,4408
0.208302,-1.098972,9.727939,-0.607915,-0.018383,0.03457,141.42,-10.62,144.6,274.0709,8.2836,-0.4573,55.81396,37.500267,209.0256,4418
0.241822,-1.106155,9.636956,-0.66778,0.008495,0.060226,141.24,-10.5,144.72,274.0709,8.2836,-0.4573,55.81396,37.500267,209.0256,4428
0.093377,-1.166012,9.70639,-0.729477,0.078744,0.096878,141.24,-10.5,144.72,274.0709,8.2836,-0.4573,55.81396,37.500267,209.0256,4438
0.201119,-1.369525,9.957788,-0.760631,0.127003,0.127422,141,-9.84,144.96,276.3612,10.04,-0.4042,55.81396,37.500267,209.0256,4448
0.316044,-1.553884,10.304958,-0.754522,0.157546,0.130476,141,-9.84,144.96,276.3612,10.04,-0.4042,55.81396,37.500267,209.0256,4458
0.316044,-1.553884,10.304958,-0.714205,0.155102,0.121924,141.06,-8.52,145.14,276.3612,10.04,-0.4042,55.81396,37.500267,209.0256,4468
0.411815,-1.623318,10.700014,-0.605471,0.128835,0.102376,141.06,-8.52,145.14,276.3612,10.04,-0.4042,55.81396,37.500267,209.0256,4478
0.241822,-1.695146,10.546781,-0.501013,0.11845,0.093213,141.36,-8.16,144.6,278.7331,11.6984,-0.1047,55.81396,37.500267,209.0256,4488
0.086194,-1.699935,10.017646,-0.436872,0.093405,0.096267,141.36,-8.16,144.6,278.7331,11.6984,-0.1047,55.81396,37.500267,209.0256,4498
0.138868,-1.685569,9.921875,-0.384949,0.046368,0.095657,142.08,-7.5,145.08,278.7331,11.6984,-0.1047,55.81396,37.500267,209.0256,4508
0.138868,-1.685569,9.921875,-0.355627,0.01949,0.099322,142.08,-7.5,145.08,278.7331,11.6984,-0.1047,55.81396,37.500267,209.0256,4518
0.165205,-1.795706,9.917087,-0.342188,0.020101,0.121924,142.2,-7.38,146.1,280.1992,12.8901,0.1963,55.81396,37.500267,209.0256,4528
0.435758,-1.728666,9.737515,-0.349519,0.018269,0.120091,142.2,-7.38,146.1,280.1992,12.8901,0.1963,55.81396,37.500267,209.0256,4538
0.531529,-1.910631,9.794978,-0.375786,0.013992,0.104209,141.84,-7.86,146.46,280.1992,12.8901,0.1963,55.81396,37.500267,209.0256,4548
0.512375,-1.910631,9.929058,-0.373953,0.031708,0.097489,141.84,-7.86,146.46,280.1992,12.8901,0.1963,55.81396,37.500267,209.0256,4559
0.512375,-1.910631,9.929058,-0.345854,0.029875,0.044344,142.38,-7.02,146.58,281.0147,13.6852,0.3107,55.81396,37.500267,209.0256,4568
0.696734,-1.89866,10.020041,-0.345854,0.029875,0.044344,142.38,-7.02,146.58,281.0147,13.6852,0.3107,55.81396,37.500267,209.0256,4578
0.395055,-2.063865,10.515655,-0.234676,-0.009831,-0.045453,141.6,-6.36,146.7,281.0147,13.6852,0.3107,55.81396,37.500267,209.0256,4588
0.268159,-2.056682,10.407912,-0.15954,-0.035488,-0.054616,141.6,-6.36,146.7,281.0147,13.6852,0.3107,55.81396,37.500267,209.0256,4598
0.268159,-2.056682,10.407912,-0.15954,-0.035488,-0.054616,141.06,-6.18,146.7,282.2058,14.4856,0.3934,55.81396,37.500267,209.0256,4608
0.057463,-2.06147,9.814133,-0.17359,0.015214,-0.060114,141.06,-6.18,146.7,282.2058,14.4856,0.3934,55.81396,37.500267,209.0256,4618
-0.102954,-2.087808,9.481328,-0.23773,0.020712,-0.035069,141.42,-6.18,146.1,282.2058,14.4856,0.3934,55.81396,37.500267,209.0256,4628
-0.035914,-1.927391,9.450203,-0.23773,0.020712,-0.035069,141.42,-6.18,146.1,282.2058,14.4856,0.3934,55.81396,37.500267,209.0256,4638
-0.035914,-1.927391,9.450203,-0.296374,0.039038,-0.022851,141.48,-6.48,146.46,282.5449,14.8998,0.3065,55.81396,37.500267,209.0256,4648
0.117319,-2.030345,9.356826,-0.340356,0.028653,-0.008801,141.48,-6.48,146.46,282.5449,14.8998,0.3065,55.81396,37.500267,209.0256,4657
0.244216,-2.288926,9.696813,-0.384949,0.026821,-0.004525,141.84,-6.54,146.88,282.5449,14.8998,0.3065,55.81396,37.500267,209.0256,4668
0.138868,-2.588211,9.727939,-0.411827,0.053699,-0.011856,141.84,-6.54,146.88,282.5449,14.8998,0.3065,55.81396,37.500267,209.0256,4678
0.138868,-2.588211,9.727939,-0.419768,0.05492,-0.013688,141.54,-5.7,146.64,283.1517,15.5493,0.3526,55.81396,37.500267,209.0256,4688
-0.081405,-3.064672,9.826104,-0.416714,0.051866,-0.006358,141.54,-5.7,146.64,283.1517,15.5493,0.3526,55.81396,37.500267,209.0256,4698
-0.196331,-3.426207,9.783007,-0.397166,0.086075,0.027851,141.42,-5.64,146.64,283.1517,15.5493,0.3526,55.81396,37.500267,209.0256,4708
-0.196331,-3.426207,9.783007,-0.383116,0.083631,0.0419,141.42,-5.64,146.64,283.1517,15.5493,0.3526,55.81396,37.500267,209.0256,4718
-0.114925,-3.787743,9.58907,-0.359903,0.094016,0.058394,141.6,-5.46,147.06,284.3287,16.4743,0.4573,55.81396,37.500267,209.0256,4728
-0.090982,-3.948159,9.713573,-0.359903,0.094016,0.058394,141.6,-5.46,147.06,284.3287,16.4743,0.4573,55.81396,37.500267,209.0256,4738
0.119714,-3.914639,9.519637,-0.270717,0.079966,0.07672,141.3,-5.04,146.52,284.3287,16.4743,0.4573,55.81396,37.500267,209.0256,4748
0.119714,-3.914639,9.519637,-0.192526,0.039038,0.063892,141.3,-5.04,146.52,284.3287,16.4743,0.4573,55.81396,37.500267,209.0256,4758
0.193936,-3.952947,9.390346,-0.135716,0.002997,0.047398,141.42,-4.74,146.76,285.082,17.3138,0.686,55.81396,37.500267,209.0256,4768
0.107742,-3.986467,9.380769,-0.074629,0.003608,0.038846,141.42,-4.74,146.76,285.082,17.3138,0.686,55.81396,37.500267,209.0256,4778
-0.076617,-3.924216,9.347249,-0.00438,-0.011664,0.044344,141.54,-4.02,147.72,285.082,17.3138,0.686,55.81396,37.500267,209.0256,4788
-0.220273,-3.802108,9.189227,0.071978,-0.028157,0.059005,141.54,-4.02,147.72,285.082,17.3138,0.686,55.81396,37.500267,209.0256,4798
-0.349564,-3.672817,9.000079,0.146504,-0.022049,0.091991,141.96,-3.6,147.72,285.6932,17.6394,0.7716,55.81396,37.500267,209.0256,4808
-0.349564,-3.672817,9.000079,0.194151,-0.021438,0.114593,141.96,-3.6,147.72,285.6932,17.6394,0.7716,55.81396,37.500267,209.0256,4818
-0.390267,-3.519584,8.442213,0.205758,-0.026935,0.126811,142.38,-3.66,147.9,285.6932,17.6394,0.7716,55.81396,37.500267,209.0256,4828
-0.550683,-3.43339,7.872376,0.159943,-0.026325,0.111539,142.38,-3.66,147.9,285.6932,17.6394,0.7716,55.81396,37.500267,209.0256,4839
-0.794899,-3.340013,7.937021,0.084806,-0.034877,0.091381,141.96,-4.14,147.66,285.4584,17.3825,0.7754,55.81396,37.500267,209.0256,4848
-0.794899,-3.340013,7.937021,-0.022095,0.002997,0.074887,141.96,-4.14,147.66,285.4584,17.3825,0.7754,55.81396,37.500267,209.0256,4858
-1.029538,-3.340013,8.13814,-0.099675,0.010938,0.062059,141.6,-4.5,147.66,285.4584,17.3825,0.7754,55.81396,37.500267,209.0256,4868
-0.95771,-3.306493,8.360808,-0.160761,-0.014718,0.030905,141.6,-4.5,147.66,285.4584,17.3825,0.7754,55.81396,37.500267,209.0256,4878
-1.134886,-3.330436,8.74868,-0.218794,-0.000668,0.016855,141.9,-4.5,148.02,285.2563,17.1761,0.803,55.81396,37.500267,209.0256,4888
-1.252206,-3.38311,9.002473,-0.245061,-0.00861,0.021742,141.9,-4.5,148.02,285.2563,17.1761,0.803,55.81396,37.500267,209.0256,4898
-1.252206,-3.38311,9.002473,-0.238952,-0.053814,0.033348,142.02,-4.26,147.6,285.2563,17.1761,0.803,55.81396,37.500267,209.0256,4908
-1.161223,-3.421419,9.330489,-0.234676,-0.070307,0.051674,142.02,-4.26,147.6,285.2563,17.1761,0.803,55.81396,37.500267,209.0256,4918
-1.043904,-3.490852,9.225141,-0.249948,-0.092298,0.073665,142.02,-3.78,147.48,285.5133,17.6006,0.8355,55.81396,37.500267,209.0256,4928
-0.670397,-3.761406,9.256267,-0.292097,-0.138113,0.099933,142.02,-3.78,147.48,285.5133,17.6006,0.8355,55.81396,37.500267,209.0256,4938
-0.52674,-3.766194,9.584282,-0.292097,-0.129561,0.112761,142.5,-3.3,147.96,285.5133,17.6006,0.8355,55.81396,37.500267,209.0256,4948
-0.52674,-3.766194,9.584282,-0.292097,-0.129561,0.112761,142.5,-3.3,147.96,285.5133,17.6006,0.8355,55.81396,37.500267,209.0256,4958
-0.375901,-3.806897,9.90272,-0.26583,-0.125285,0.126811,142.56,-3.78,147.96,286.1169,18.1927,0.7123,55.81396,37.500267,209.0256,4967
-0.098165,-3.409447,9.950606,-0.175422,-0.104515,0.144526,142.56,-3.78,147.96,286.1169,18.1927,0.7123,55.81396,37.500267,209.0256,4978
0.05028,-3.007209,9.624985,-0.070353,-0.127728,0.137195,142.02,-4.08,147.3,286.1169,18.1927,0.7123,55.81396,37.500267,209.0256,4988
-0.10056,-2.640885,9.059936,0.018222,-0.138113,0.129254,142.02,-4.08,147.3,286.1169,18.1927,0.7123,55.81396,37.500267,209.0256,4998
-0.10056,-2.640885,9.059936,0.085417,-0.125896,0.126811,141.36,-3.66,147.36,286.7957,18.7372,0.5581,55.81396,37.500267,209.0256,5008
-0.023943,-2.454131,8.566715,0.078698,-0.108791,0.110928,141.36,-3.66,147.36,286.7957,18.7372,0.5581,55.81396,37.500267,209.0256,5018
-0.105348,-2.257801,8.128563,0.008448,-0.06542,0.079163,141.18,-3.48,147.9,286.7957,18.7372,0.5581,55.81396,37.500267,209.0256,5028
-0.105348,-2.257801,8.128563,-0.052638,-0.026935,0.042511,141.18,-3.48,147.9,286.7957,18.7372,0.5581,55.81396,37.500267,209.0256,5038
-0.232245,-2.236253,7.898713,-0.052638,-0.026935,0.042511,141.48,-3.36,147.66,287.2744,18.6336,0.3762,55.81396,37.500267,209.0256,5048
-0.464489,-2.286532,8.080677,-0.112503,-0.024492,0.011968,141.48,-3.36,147.66,287.2744,18.6336,0.3762,55.81396,37.500267,209.0256,5058
-0.36393,-2.334418,8.293768,-0.163816,-0.018383,0.008914,141.66,-3.78,147.66,287.2744,18.6336,0.3762,55.81396,37.500267,209.0256,5068
-0.36393,-2.334418,8.293768,-0.219404,0.007273,0.016855,141.66,-3.78,147.66,287.2744,18.6336,0.3762,55.81396,37.500267,209.0256,5078
-0.222668,-2.379909,8.542772,-0.265219,0.03354,0.026018,142.32,-3.72,147.42,286.849,18.7744,0.3294,55.81396,37.500267,209.0256,5088
-0.031126,-2.434977,8.700794,-0.299428,0.039649,0.019298,142.32,-3.72,147.42,286.849,18.7744,0.3294,55.81396,37.500267,209.0256,5098
0.009577,-2.4254,8.882759,-0.325695,0.018879,0.008303,142.08,-3.66,147,286.849,18.7744,0.3294,55.81396,37.500267,209.0256,5107
-0.177176,-2.5092,9.167678,-0.341577,-0.003112,-0.002082,142.08,-3.66,147,286.849,18.7744,0.3294,55.81396,37.500267,209.0256,5118
-0.177176,-2.5092,9.167678,-0.328138,-0.02999,-0.016743,141.54,-3.72,147.72,287.4401,19.3512,0.4027,55.81396,37.500267,209.0256,5128
-0.502798,-2.672011,9.4095,-0.292708,-0.053814,-0.025295,141.54,-3.72,147.72,287.4401,19.3512,0.4027,55.81396,37.500267,209.0256,5137
-0.572232,-2.786936,9.399923,-0.265219,-0.089855,-0.031403,141.96,-2.82,147.54,287.4401,19.3512,0.4027,55.81396,37.500267,209.0256,5148
-0.737437,-2.954535,9.531608,-0.271939,-0.091687,-0.030792,141.96,-2.82,147.54,287.4401,19.3512,0.4027,55.81396,37.500267,209.0256,5158
-0.737437,-2.954535,9.531608,-0.284767,-0.050759,-0.030792,142.2,-2.76,147.84,288.4552,20.0742,0.3457,55.81396,37.500267,209.0256,5168
-0.725465,-3.17002,9.828498,-0.268274,-0.033044,-0.034458,142.2,-2.76,147.84,288.4552,20.0742,0.3457,55.81396,37.500267,209.0256,5178
-0.64406,-3.191568,9.981731,-0.188861,-0.055035,-0.046675,141.9,-2.46,148.68,288.4552,20.0742,0.3457,55.81396,37.500267,209.0256,5188
-0.514769,-3.126923,10.015251,-0.118001,-0.073972,-0.065612,141.9,-2.46,148.68,288.4552,20.0742,0.3457,55.81396,37.500267,209.0256,5198
-0.514769,-3.126923,10.015251,-0.118001,-0.073972,-0.065612,141.42,-2.34,148.32,289.5554,20.6818,0.1763,55.81396,37.500267,209.0256,5209
-0.306467,-3.076643,10.020041,-0.03248,-0.099628,-0.080273,141.42,-2.34,148.32,289.5554,20.6818,0.1763,55.81396,37.500267,209.0256,5218
-0.29689,-2.87313,9.900327,0.027385,-0.09352,-0.07172,141.72,-3,148.2,289.5554,20.6818,0.1763,55.81396,37.500267,209.0256,5228
-0.124502,-2.734262,9.775824,0.039602,-0.081913,-0.059503,141.72,-3,148.2,289.5554,20.6818,0.1763,55.81396,37.500267,209.0256,5238
-0.124502,-2.734262,9.775824,0.052431,-0.101461,-0.050951,142.02,-3,148.44,289.4285,20.897,-0.0546,55.81396,37.500267,209.0256,5248
0.05028,-2.669616,9.943423,0.041435,-0.099018,-0.068055,142.02,-3,148.44,289.4285,20.897,-0.0546,55.81396,37.500267,209.0256,5257
-0.064645,-2.729473,10.115811,0.026163,-0.06542,-0.068666,141.36,-3.06,148.26,289.4285,20.897,-0.0546,55.81396,37.500267,209.0256,5268
-0.122108,-2.877918,10.082292,0.012113,-0.047094,-0.063168,141.12,-3.12,148.02,289.4285,20.897,-0.0546,55.81396,37.500267,209.0256,5278
-0.122108,-2.877918,10.082292,0.020055,-0.067253,-0.073553,141.12,-3.12,148.02,289.4285,20.897,-0.0546,55.81396,37.500267,209.0256,5288
0.009577,-2.968901,10.115811,0.031661,-0.062977,-0.083327,141.72,-2.94,147.96,289.5013,20.7558,-0.3595,55.81396,37.500267,209.0256,5298
-0.095771,-3.155654,10.223554,0.031661,-0.062977,-0.083327,141.72,-2.52,148.02,289.5013,20.7558,-0.3595,55.81396,37.500267,209.0256,5308
-0.095771,-3.155654,10.223554,0.046322,-0.055035,-0.091879,141.72,-2.52,148.02,289.5013,20.7558,-0.3595,55.81396,37.500267,209.0256,5317
-0.316044,-3.172414,10.273833,0.068924,-0.036709,-0.10654,140.76,-2.16,148.38,289.5013,20.7558,-0.3595,55.81396,37.500267,209.0256,5328
-0.521952,-3.126923,10.154119,0.071978,-0.025103,-0.12059,140.76,-2.16,148.38,289.5013,20.7558,-0.3595,55.81396,37.500267,209.0256,5338
-0.61054,-3.177203,9.814133,0.029829,-0.035488,-0.140748,140.1,-2.22,148.26,290.1544,20.6433,-0.5957,55.81396,37.500267,209.0256,5348
-0.490826,-3.608172,9.821315,-0.080127,-0.018994,-0.153576,140.1,-2.22,148.26,290.1544,20.6433,-0.5957,55.81396,37.500267,209.0256,5358
-0.536318,-3.888302,10.223554,-0.234065,0.056753,-0.156631,141.06,-2.16,147.54,290.1544,20.6433,-0.5957,55.81396,37.500267,209.0256,5368
-0.536318,-3.888302,10.223554,-0.234065,0.056753,-0.156631,141.06,-2.16,147.54,290.1544,20.6433,-0.5957,55.81396,37.500267,209.0256,5378
-0.579414,-4.130124,10.546781,-0.312867,0.11845,-0.155409,141.06,-1.68,148.14,290.1544,20.6433,-0.5957,55.81396,37.500267,209.0256,5388
-0.421392,-4.510813,10.515655,-0.376397,0.164876,-0.161518,140.4,-1.92,148.14,290.3092,20.6888,-0.768,55.81396,37.500267,209.0256,5398
-0.277736,-4.95136,10.61382,-0.378229,0.170985,-0.152966,140.4,-1.92,148.14,290.3092,20.6888,-0.768,55.81396,37.500267,209.0256,5408
-0.203513,-5.16445,10.470163,-0.367234,0.219854,-0.114481,140.1,-2.64,148.44,290.3092,20.6888,-0.768,55.81396,37.500267,209.0256,5418
-0.203513,-5.16445,10.470163,-0.276826,0.2449,-0.056449,140.52,-2.52,148.44,290.3092,20.6888,-0.768,55.81396,37.500267,209.0256,5428
-0.002394,-5.267404,10.065532,-0.163816,0.208858,-0.027738,140.52,-2.52,148.44,290.3092,20.6888,-0.768,55.81396,37.500267,209.0256,5437
0.260976,-5.195576,9.689631,-0.017208,0.145939,-0.017353,140.94,-2.46,148.2,290.8402,21.6968,-0.4319,55.81396,37.500267,209.0256,5448
0.344776,-4.841223,9.299363,0.196595,0.084242,-0.02224,140.94,-2.46,148.2,290.8402,21.6968,-0.4319,55.81396,37.500267,209.0256,5458
0.311256,-4.276175,8.511647,0.360918,0.036594,-0.051562,140.46,-2.04,148.32,290.8402,21.6968,-0.4319,55.81396,37.500267,209.0256,5468
0.311256,-4.276175,8.511647,0.476371,-0.02327,-0.084549,140.46,-2.04,148.32,290.8402,21.6968,-0.4319,55.81396,37.500267,209.0256,5478
0.22985,-3.883514,7.6114,0.492864,-0.05809,-0.116314,140.4,-1.5,147.96,291.1646,21.8095,-0.0765,55.81396,37.500267,209.0256,5488
0.301679,-3.684789,6.91706,0.385352,-0.06542,-0.138305,140.4,-1.5,147.96,291.1646,21.8095,-0.0765,55.81396,37.500267,209.0256,5498
0.395055,-3.452544,6.869175,0.24974,-0.039764,-0.160907,140.16,-1.68,147.18,291.1646,21.8095,-0.0765,55.81396,37.500267,209.0256,5507
0.375901,-3.426207,7.249864,0.123902,-0.014718,-0.178011,140.16,-1.68,147.18,291.1646,21.8095,-0.0765,55.81396,37.500267,209.0256,5518
0.375901,-3.426207,7.249864,0.123902,-0.014718,-0.178011,140.16,-1.68,147.18,291.1646,21.8095,-0.0765,55.81396,37.500267,209.0256,5528
0.392661,-3.411842,7.733508,0.038992,-5.7E-05,-0.179844,140.22,-1.98,147.84,290.0743,20.8268,-0.2264,55.81396,37.500267,209.0256,5538
0.459701,-3.490852,8.066312,-0.050806,0.034762,-0.15602,140.58,-2.76,147.9,290.0743,20.8268,-0.2264,55.81396,37.500267,209.0256,5548
0.617723,-3.699154,8.212363,-0.097231,0.046368,-0.128531,140.58,-2.76,147.9,290.0743,20.8268,-0.2264,55.81396,37.500267,209.0256,5558
0.703917,-3.972102,8.284191,-0.167481,0.057364,-0.10654,140.4,-2.94,147.36,289.5032,20.5846,-0.4019,55.81396,37.500267,209.0256,5568
0.703917,-3.972102,8.284191,-0.167481,0.057364,-0.10654,139.98,-2.7,147.36,289.5032,20.5846,-0.4019,55.81396,37.500267,209.0256,5578
0.524346,-4.247443,8.729526,-0.232233,0.059807,-0.09249,139.98,-2.7,147.36,289.5032,20.5846,-0.4019,55.81396,37.500267,209.0256,5588
0.129291,-4.37434,9.177256,-0.293319,0.117229,-0.066223,140.1,-2.46,147.84,289.5032,20.5846,-0.4019,55.81396,37.500267,209.0256,5598
-0.146051,-4.539545,9.237112,-0.284156,0.163044,-0.028349,139.8,-2.4,148.02,290.4043,21.0972,-0.3644,55.81396,37.500267,209.0256,5608
-0.146051,-4.539545,9.237112,-0.253002,0.184424,0.000362,139.8,-2.4,148.02,290.4043,21.0972,-0.3644,55.81396,37.500267,209.0256,5618
-0.29689,-4.3911,9.174861,-0.210852,0.226574,0.040068,139.86,-1.8,148.92,290.4043,21.0972,-0.3644,55.81396,37.500267,209.0256,5628
-0.33041,-4.237866,8.868394,-0.191305,0.255895,0.05534,139.86,-1.8,148.92,290.4043,21.0972,-0.3644,55.81396,37.500267,209.0256,5638
-0.332804,-4.02717,8.710372,-0.169924,0.260782,0.064502,139.86,-2.04,148.74,290.7585,21.5645,-0.085,55.81396,37.500267,208.0457,5648
-0.244216,-3.670423,8.509253,-0.132662,0.248565,0.077331,139.86,-2.04,148.74,290.7585,21.5645,-0.085,55.81396,37.500267,208.0457,5658
0.090982,-3.344802,8.13814,-0.100897,0.199085,0.066946,140.34,-1.86,148.56,290.7585,21.5645,-0.085,55.81396,37.500267,208.0457,5668
0.090982,-3.344802,8.13814,-0.096621,0.155713,0.052285,140.34,-1.86,148.56,290.7585,21.5645,-0.085,55.81396,37.500267,208.0457,5678
0.196331,-3.105374,7.996878,-0.100897,0.109287,0.032737,140.34,-1.38,148.62,291.0194,21.9766,0.5421,55.81396,37.500267,208.0457,5688
0.131685,-3.000026,8.10462,-0.095399,0.08302,0.024185,140.34,-1.38,148.62,291.0194,21.9766,0.5421,55.81396,37.500267,208.0457,5698
0.076617,-3.002421,8.22194,-0.091734,0.06164,0.019909,140.52,-1.68,148.74,291.0194,21.9766,0.5421,55.81396,37.500267,208.0457,5708
-0.01676,-3.03594,8.310528,-0.091123,0.052477,0.027851,140.52,-1.68,148.74,291.0194,21.9766,0.5421,55.81396,37.500267,208.0457,5718
-0.01676,-3.03594,8.310528,-0.100897,0.043314,0.03457,141.18,-1.32,149.04,290.8654,22.3205,0.9959,55.81396,37.500267,208.0457,5728
0.057463,-3.074249,8.370385,-0.100897,0.043314,0.03457,141.18,-1.32,149.04,290.8654,22.3205,0.9959,55.81396,37.500267,208.0457,5738
0.181965,-3.217905,8.303345,-0.143046,0.040871,0.043122,141.42,-0.84,149.34,290.8654,22.3205,0.9959,55.81396,37.500267,208.0457,5747
0.210696,-3.208328,8.437425,-0.184585,0.037205,0.039457,141.42,-0.84,149.34,290.8654,22.3205,0.9959,55.81396,37.500267,208.0457,5758
0.181965,-3.368744,8.609812,-0.225513,0.053088,0.038846,140.52,-1.08,148.86,290.923,22.4411,1.0582,55.81396,37.500267,208.0457,5768
0.181965,-3.368744,8.609812,-0.260943,0.073246,0.043122,140.52,-1.08,148.86,290.923,22.4411,1.0582,55.81396,37.500267,208.0457,5778
0.148445,-3.486064,8.645726,-0.277437,0.079355,0.048009,139.98,-1.32,148.8,290.923,22.4411,1.0582,55.81396,37.500267,208.0457,5788
0.239427,-3.605778,8.875577,-0.295152,0.08302,0.046177,139.98,-1.32,148.8,290.923,22.4411,1.0582,55.81396,37.500267,208.0457,5797
0.239427,-3.605778,8.875577,-0.299428,0.108066,0.049231,140.52,-1.02,149.04,291.2183,22.9361,1.2202,55.81396,37.500267,208.0457,5808
0.270553,-3.66324,9.150918,-0.290265,0.145939,0.064502,140.52,-1.02,149.04,291.2183,22.9361,1.2202,55.81396,37.500267,208.0457,5817
0.0838,-3.691972,9.490906,-0.261554,0.135555,0.083439,141.06,-0.48,148.8,291.2183,22.9361,1.2202,55.81396,37.500267,208.0457,5828
-0.064645,-3.68,9.478934,-0.261554,0.135555,0.083439,141.06,-0.48,148.8,291.2183,22.9361,1.2202,55.81396,37.500267,208.0457,5838
-0.064645,-3.68,9.478934,-0.199246,0.089129,0.1262,141.42,-0.6,149.1,291.5721,23.6016,1.486,55.81396,37.500267,208.0457,5848
-0.131685,-3.598595,9.634562,-0.142435,0.062862,0.164074,141.42,-0.6,149.1,291.5721,23.6016,1.486,55.81396,37.500267,208.0457,5858
-0.059857,-3.541132,9.526819,-0.11006,0.05431,0.186676,141.42,-0.78,149.76,291.5721,23.6016,1.486,55.81396,37.500267,208.0457,5868
-0.107742,-3.478881,9.411894,-0.099064,0.036594,0.194617,141.42,-0.78,149.76,291.5721,23.6016,1.486,55.81396,37.500267,208.0457,5878
-0.107742,-3.478881,9.411894,-0.098453,0.018879,0.18301,141.54,-0.3,149.52,291.9857,24.04,1.8264,55.81396,37.500267,208.0457,5888
-0.155628,-3.574652,9.569917,-0.086236,-0.017162,0.172626,141.54,-0.3,149.52,291.9857,24.04,1.8264,55.81396,37.500267,208.0457,5898
-0.287313,-3.648875,9.538791,-0.08929,-0.033655,0.174458,141.78,-0.66,149.82,291.9857,24.04,1.8264,55.81396,37.500267,208.0457,5908
-0.174782,-3.859571,9.431048,-0.11739,-0.050759,0.167128,141.78,-0.66,149.82,291.9857,24.04,1.8264,55.81396,37.500267,208.0457,5918
-0.174782,-3.859571,9.431048,-0.11739,-0.050759,0.167128,141.72,-0.84,150,291.6748,24.2343,2.0506,55.81396,37.500267,208.0457,5928
-0.148445,-4.087027,9.835681,-0.118001,-0.061755,0.153078,141.72,-0.84,150,291.6748,24.2343,2.0506,55.81396,37.500267,208.0457,5938
0,-4.271386,10.436644,-0.033701,-0.053814,0.125589,141.9,-0.66,149.4,291.6748,24.2343,2.0506,55.81396,37.500267,208.0457,5948
0.117319,-4.14449,10.659311,0.034105,-0.048927,0.101765,141.9,-0.66,149.4,291.6748,24.2343,2.0506,55.81396,37.500267,208.0457,5958
0.117319,-4.14449,10.659311,0.093969,-0.017162,0.080385,141.9,-0.66,149.4,291.6748,24.2343,2.0506,55.81396,37.500267,208.0457,5969
0.129291,-4.003228,10.482135,0.103132,0.015214,0.065113,142.08,-0.78,149.52,291.7999,24.4383,2.0983,55.81396,37.500267,208.0457,5978
0.28013,-4.065479,9.950606,0.039602,0.065305,0.040679,142.44,0,149.88,291.7999,24.4383,2.0983,55.81396,37.500267,208.0457,5988
0.368718,-4.218712,9.598648,-0.099675,0.136776,0.035792,142.44,0,149.88,291.7999,24.4383,2.0983,55.81396,37.500267,208.0457,5998
0.368718,-4.788549,9.531608,-0.250559,0.197252,0.014412,142.32,0.3,148.98,291.8222,24.2844,2.1435,55.81396,37.500267,208.0457,6008
0.368718,-4.788549,9.531608,-0.396555,0.231461,-0.021019,142.32,0.3,148.98,291.8222,24.2844,2.1435,55.81396,37.500267,208.0457,6017
0.002394,-5.705557,9.601042,-0.396555,0.231461,-0.021019,142.32,0.3,148.98,291.8222,24.2844,2.1435,55.81396,37.500267,208.0457,6028
-0.466884,-6.548342,10.106234,-0.535222,0.207026,-0.039345,141.84,-0.18,148.86,291.8222,24.2844,2.1435,55.81396,37.500267,208.0457,6038
-0.775745,-6.9003,10.949018,-0.510176,0.14655,-0.023462,141.6,-0.66,149.76,292.0634,25.3865,2.7524,55.81396,37.500267,208.0457,6047
-0.775745,-6.9003,10.949018,-0.264608,0.106233,0.021742,141.6,-0.66,149.76,292.0634,25.3865,2.7524,55.81396,37.500267,208.0457,6059
-0.921796,-6.45257,11.305766,0.049987,0.11112,0.087105,142.14,-0.06,149.7,292.0634,25.3865,2.7524,55.81396,37.500267,208.0457,6068
-0.766168,-5.427821,9.522031,0.394515,0.058586,0.121313,142.14,-0.06,149.7,292.0634,25.3865,2.7524,55.81396,37.500267,208.0457,6077
-0.847573,-4.702356,7.948993,0.533792,-0.010442,0.118869,142.68,0.96,150.24,292.6974,25.781,2.9009,55.81396,37.500267,208.0457,6088
-0.847573,-4.702356,7.948993,0.459267,-0.011664,0.109096,142.68,0.96,150.24,292.6974,25.781,2.9009,55.81396,37.500267,208.0457,6098
-1.098972,-4.029564,6.141315,0.459267,-0.011664,0.109096,141.96,0.78,150.06,292.6974,25.781,2.9009,55.81396,37.500267,208.0457,6108
-1.130098,-3.838022,5.53317,0.210034,-0.003723,0.078552,141.96,0.78,150.06,292.6974,25.781,2.9009,55.81396,37.500267,208.0457,6118
-1.139675,-3.866754,5.918648,-0.138159,0.003608,0.033348,141.9,0.3,149.4,291.6254,24.886,3.0862,55.81396,37.500267,208.0457,6128
-1.027144,-4.072661,6.95058,-0.325695,0.020101,0.021742,141.9,0.3,149.4,291.6254,24.886,3.0862,55.81396,37.500267,208.0457,6138
-1.027144,-4.072661,6.95058,-0.411216,0.040871,0.015633,142.2,0.3,149.64,291.6254,24.886,3.0862,55.81396,37.500267,208.0457,6148
-0.84039,-4.491659,7.929838,-0.413049,0.023766,0.030294,142.2,0.3,149.64,291.6254,24.886,3.0862,55.81396,37.500267,208.0457,6158
-0.871516,-4.841223,8.41827,-0.363569,-0.030601,0.059005,142.44,0,149.76,291.7197,24.9021,3.1578,55.81396,37.500267,208.0457,6168
-0.878699,-5.027977,8.822903,-0.274993,-0.091687,0.101154,142.44,0,149.76,291.7197,24.9021,3.1578,55.81396,37.500267,208.0457,6178
-0.878699,-5.027977,8.822903,-0.274993,-0.091687,0.101154,142.56,0,150.06,291.7197,24.9021,3.1578,55.81396,37.500267,208.0457,6188
-0.622511,-5.219519,8.394327,-0.187639,-0.143,0.152467,142.56,0,150.06,291.7197,24.9021,3.1578,55.81396,37.500267,208.0457,6197
-0.404632,-5.305713,8.023216,-0.192526,-0.166213,0.159187,142.02,0.9,150.48,292.6001,25.7753,3.235,55.81396,37.500267,208.0457,6208
-0.404632,-5.305713,8.023216,-0.226735,-0.172321,0.139639,142.02,0.9,150.48,292.6001,25.7753,3.235,55.81396,37.500267,208.0457,6218
-0.387873,-5.344021,8.08786,-0.277437,-0.15033,0.095657,141.9,1.38,150.66,292.6001,25.7753,3.235,55.81396,37.500267,208.0457,6228
-0.442941,-5.233885,8.296163,-0.276826,-0.138724,0.054118,141.9,1.38,150.66,292.6001,25.7753,3.235,55.81396,37.500267,208.0457,6238
-0.409421,-4.913052,8.403905,-0.20902,-0.144222,0.00647,142.2,0.78,150.48,293.073,26.2621,3.0627,55.81396,37.500267,208.0457,6248
-0.409421,-4.913052,8.403905,-0.118612,-0.139946,-0.044232,142.2,0.78,150.48,293.073,26.2621,3.0627,55.81396,37.500267,208.0457,6258
-0.311256,-4.472505,8.178843,-0.064245,-0.124674,-0.053395,142.38,0.42,151.08,293.073,26.2621,3.0627,55.81396,37.500267,208.0457,6268
-0.445335,-3.950553,7.580274,-0.064245,-0.124674,-0.053395,142.38,0.42,151.08,293.073,26.2621,3.0627,55.81396,37.500267,208.0457,6278
-0.445335,-3.950553,7.580274,-0.081349,-0.083746,-0.035069,141.96,1.02,151.26,293.7929,26.794,2.7855,55.81396,37.500267,208.0457,6288
-0.478855,-3.634509,7.130151,-0.172979,-0.061755,-0.004525,141.96,1.02,151.26,293.7929,26.794,2.7855,55.81396,37.500267,208.0457,6298
-0.256187,-3.45015,7.046351,-0.257278,-0.062366,0.00647,141.72,1.38,151.02,293.7929,26.794,2.7855,55.81396,37.500267,208.0457,6308
-0.241822,-3.440573,7.453377,-0.326306,-0.052592,0.007081,141.72,1.38,151.02,293.7929,26.794,2.7855,55.81396,37.500267,208.0457,6318
-0.241822,-3.440573,7.453377,-0.383727,-0.068474,-0.005136,141.96,1.68,151.02,294.4483,27.0634,2.5462,55.81396,37.500267,208.0457,6328
-0.289707,-3.521978,7.783788,-0.37884,-0.10757,-0.038123,141.96,1.68,151.02,294.4483,27.0634,2.5462,55.81396,37.500267,208.0457,6337
-0.409421,-3.66324,8.133352,-0.369677,-0.118565,-0.060725,141.78,1.5,151.26,294.4483,27.0634,2.5462,55.81396,37.500267,208.0457,6348
-0.639271,-3.859571,8.365596,-0.351351,-0.081913,-0.082105,141.78,1.5,151.26,294.4483,27.0634,2.5462,55.81396,37.500267,208.0457,6357
-0.780534,-4.091815,8.339259,-0.32936,-0.091076,-0.082716,142.02,1.38,151.14,294.8376,27.8641,2.4089,55.81396,37.500267,208.0457,6369
-0.780534,-4.091815,8.339259,-0.32936,-0.091076,-0.082716,142.02,1.38,151.14,294.8376,27.8641,2.4089,55.81396,37.500267,208.0457,6378
-0.895459,-4.302511,8.274614,-0.320197,-0.111235,-0.068666,142.02,2.58,150.54,294.8376,27.8641,2.4089,55.81396,37.500267,208.0457,6388
-0.768562,-4.319271,8.463761,-0.300039,-0.124674,-0.054616,142.02,2.58,150.54,294.8376,27.8641,2.4089,55.81396,37.500267,208.0457,6398
-0.689551,-4.45814,8.549955,-0.2866,-0.112457,-0.038123,142.14,2.58,151.2,296.1816,28.6578,2.106,55.81396,37.500267,208.0457,6408
-0.483643,-4.623344,8.825297,-0.256056,-0.12162,-0.027738,142.14,2.58,151.2,296.1816,28.6578,2.106,55.81396,37.500267,208.0457,6418
-0.483643,-4.623344,8.825297,-0.168092,-0.158272,-0.045453,141.9,1.98,152.28,296.1816,28.6578,2.106,55.81396,37.500267,208.0457,6429
-0.337593,-4.767001,9.277815,-0.08196,-0.162548,-0.069277,141.9,1.98,152.28,296.1816,28.6578,2.106,55.81396,37.500267,208.0457,6438
-0.337593,-4.90108,9.447808,0.039602,-0.191869,-0.105318,140.58,2.52,152.76,297.5935,29.4335,1.5764,55.81396,37.500267,208.0457,6448
-0.409421,-4.90108,9.447808,0.039602,-0.191869,-0.105318,140.58,2.52,152.76,297.5935,29.4335,1.5764,55.81396,37.500267,208.0457,6458
-0.493221,-4.980091,9.390346,0.150169,-0.210806,-0.145635,140.94,2.64,152.52,297.5935,29.4335,1.5764,55.81396,37.500267,208.0457,6468
-0.533923,-4.929812,9.261055,0.167273,-0.184539,-0.163961,140.94,2.64,152.52,297.5935,29.4335,1.5764,55.81396,37.500267,208.0457,6479
-0.457306,-4.869955,9.179649,0.166051,-0.158882,-0.162739,141.84,2.7,152.28,297.4601,29.3509,1.2816,55.81396,37.500267,208.0457,6488
-0.457306,-4.869955,9.179649,0.14406,-0.123452,-0.162739,141.3,2.7,152.52,297.4601,29.3509,1.2816,55.81396,37.500267,208.0457,6499
-0.275342,-4.927418,9.277815,0.126956,-0.105126,-0.162129,141.3,2.7,152.52,297.4601,29.3509,1.2816,55.81396,37.500267,208.0457,6508
-0.33041,-4.920234,9.735122,0.131232,-0.067253,-0.173124,141.24,2.88,152.28,297.4601,29.3509,1.2816,55.81396,37.500267,208.0457,6518
-0.469278,-4.987274,9.811738,0.175214,-0.05809,-0.176178,141.24,2.88,152.28,297.4601,29.3509,1.2816,55.81396,37.500267,208.0457,6529
-0.469278,-4.987274,9.811738,0.219197,-0.048927,-0.167626,141.3,2.64,152.4,297.8708,28.8435,0.5374,55.81396,37.500267,208.0457,6538
-0.574626,-5.044737,9.675264,0.25646,-0.039764,-0.154798,141.3,2.64,152.4,297.8708,28.8435,0.5374,55.81396,37.500267,208.0457,6549
-0.64406,-4.865166,9.778218,0.27112,-0.017162,-0.152966,140.52,2.4,152.04,297.8708,28.8435,0.5374,55.81396,37.500267,208.0457,6558
-0.57702,-4.9346,9.816526,0.252794,0.017047,-0.180454,140.52,2.4,152.04,297.8708,28.8435,0.5374,55.81396,37.500267,208.0457,6568
-0.57702,-4.9346,9.816526,0.230192,0.031097,-0.215885,139.98,2.28,151.8,297.5816,28.2881,0.2601,55.81396,37.500267,208.0457,6578
-0.354353,-5.183605,9.859624,0.201482,0.048812,-0.248871,139.98,2.28,151.8,297.5816,28.2881,0.2601,55.81396,37.500267,208.0457,6588
-0.308861,-5.269799,10.024829,0.184377,0.071414,-0.273917,139.68,2.58,152.1,297.5816,28.2881,0.2601,55.81396,37.500267,208.0457,6598
-0.208302,-5.54514,9.799767,0.167884,0.073857,-0.321564,139.68,2.58,152.1,297.5816,28.2881,0.2601,55.81396,37.500267,208.0457,6608
-0.196331,-6.103006,9.548368,0.137952,0.067749,-0.320953,139.02,2.46,152.4,297.5112,27.776,0.0838,55.81396,37.500267,208.0457,6618
-0.196331,-6.103006,9.548368,0.137952,0.067749,-0.320953,139.02,2.46,152.4,297.5112,27.776,0.0838,55.81396,37.500267,208.0457,6629
-0.160416,-6.615381,9.517242,0.087861,0.128835,-0.271473,139.02,2.7,152.52,297.5112,27.776,0.0838,55.81396,37.500267,208.0457,6638
0.045491,-6.83326,9.493299,0.071367,0.239402,-0.185952,139.8,2.28,151.74,297.5112,27.776,0.0838,55.81396,37.500267,208.0457,6648
0.045491,-6.83326,9.493299,0.134897,0.326145,-0.143192,139.8,2.28,151.74,297.5112,27.776,0.0838,55.81396,37.500263,208.0604,6658
0.323227,-6.356799,9.368797,0.228971,0.381123,-0.145635,140.16,1.68,151.2,297.0614,27.5083,-0.0021,55.81396,37.500263,208.0604,6668
0.512375,-5.724711,8.593052,0.319379,0.393951,-0.201224,140.16,1.68,151.2,297.0614,27.5083,-0.0021,55.81396,37.500263,208.0604,6678
0.636877,-5.396695,8.011244,0.345035,0.367073,-0.263532,139.74,1.98,151.14,297.0614,27.5083,-0.0021,55.81396,37.500263,208.0604,6688
0.636877,-5.396695,8.011244,0.345035,0.367073,-0.263532,139.74,1.98,151.14,297.0614,27.5083,-0.0021,55.81396,37.500263,208.0604,6698
0.756591,-5.224307,7.5276,0.274786,0.37929,-0.299573,139.92,2.4,151.44,296.2667,27.0725,0.5856,55.81396,37.500263,208.0604,6708
0.723071,-4.819675,7.383944,0.167884,0.388453,-0.322175,139.92,2.4,151.44,296.2667,27.0725,0.5856,55.81396,37.500263,208.0604,6718
0.495615,-4.702356,7.474926,0.09458,0.359131,-0.305682,140.1,2.4,151.74,296.2667,27.0725,0.5856,55.81396,37.500263,208.0604,6728
0.251399,-4.539545,7.690411,0.048155,0.327366,-0.273306,140.1,2.4,151.74,296.2667,27.0725,0.5856,55.81396,37.500263,208.0604,6738
0.251399,-4.539545,7.690411,0.009059,0.268723,-0.193893,140.04,2.1,151.2,295.2802,26.4973,1.3025,55.81396,37.500263,208.0604,6747
0.198725,-4.539545,7.71196,0.004172,0.192365,-0.115703,140.04,2.1,151.2,295.2802,26.4973,1.3025,55.81396,37.500263,208.0604,6758
0.169994,-4.577853,7.886741,0.009059,0.108066,-0.020408,139.86,1.38,150.9,295.2802,26.4973,1.3025,55.81396,37.500263,208.0604,6768
0.107742,-4.482082,8.051947,0.042657,0.05492,0.04862,139.86,1.38,150.9,295.2802,26.4973,1.3025,55.81396,37.500263,208.0604,6778
-0.028731,-4.3911,8.011244,0.089082,0.007884,0.072444,139.98,0.96,151.38,294.8781,26.5065,1.455,55.81396,37.500263,208.0604,6788
-0.028731,-4.3911,8.011244,0.115961,-0.020827,0.07672,140.16,1.02,151.26,294.8781,26.5065,1.455,55.81396,37.500263,208.0604,6798
-0.253793,-4.225895,7.707171,0.116571,-0.026325,0.068779,140.16,1.02,151.26,294.8781,26.5065,1.455,55.81396,37.500263,208.0604,6808
-0.342381,-4.063084,7.453377,0.097024,-0.027546,0.059005,139.98,1.14,151.26,294.8781,26.5065,1.455,55.81396,37.500263,208.0604,6818
-0.603357,-3.883514,7.127756,0.097024,-0.027546,0.059005,139.98,1.14,151.26,294.8781,26.5065,1.455,55.81396,37.500263,208.0604,6828
-0.713494,-3.790137,6.996071,0.029829,-0.007999,0.053507,140.28,1.74,151.68,295.0694,26.3067,1.5774,55.81396,37.500263,208.0604,6837
-0.713494,-3.790137,6.996071,-0.041643,-0.003723,0.052896,140.28,1.74,151.68,295.0694,26.3067,1.5774,55.81396,37.500263,208.0604,6848
-0.620117,-3.725491,7.084659,-0.078905,0.001164,0.059005,140.76,1.32,151.44,295.0694,26.3067,1.5774,55.81396,37.500263,208.0604,6858
-0.517163,-3.670423,7.405492,-0.108227,0.031708,0.062059,140.7,1.08,151.26,295.0694,26.3067,1.5774,55.81396,37.500263,208.0604,6868
-0.517163,-3.670423,7.405492,-0.100286,0.077522,0.076109,140.7,1.08,151.26,295.0694,26.3067,1.5774,55.81396,37.500263,208.0604,6878
-0.445335,-3.545921,7.726325,-0.074019,0.083631,0.082218,140.46,1.5,150.66,294.893,26.3123,1.6306,55.81396,37.500263,208.0604,6888
-0.299284,-3.404659,7.788576,-0.052027,0.079966,0.091381,140.76,1.56,150.6,294.893,26.3123,1.6306,55.81396,37.500263,208.0604,6898
-0.052674,-3.275368,7.702382,-0.043475,0.049423,0.082828,140.76,1.56,150.6,294.893,26.3123,1.6306,55.81396,37.500263,208.0604,6908
0.064645,-3.261002,7.647314,-0.043475,0.049423,0.082828,141.36,1.38,150.42,294.893,26.3123,1.6306,55.81396,37.500263,208.0604,6918
0.064645,-3.261002,7.647314,-0.069742,0.031097,0.080996,141.36,1.38,150.42,294.893,26.3123,1.6306,55.81396,37.500263,208.0604,6928
0.134079,-3.337619,7.678439,-0.137549,0.022545,0.080996,141.36,0.9,150.54,294.3635,26.5234,1.9509,55.81396,37.500263,208.0604,6938
0.198725,-3.469304,7.960964,-0.180309,0.006051,0.082828,141.36,0.9,150.54,294.3635,26.5234,1.9509,55.81396,37.500263,208.0604,6948
0.186753,-3.620143,8.303345,-0.202911,-0.00189,0.075498,140.76,1.74,150.6,294.3635,26.5234,1.9509,55.81396,37.500263,208.0604,6958
0.119714,-3.849994,8.518829,-0.210241,-0.007999,0.069389,140.76,1.74,150.6,294.3635,26.5234,1.9509,55.81396,37.500263,208.0604,6968
0.031126,-4.051113,8.722343,-0.196802,-0.013496,0.070611,140.34,2.04,151.14,294.905,26.8052,2.0976,55.81396,37.500263,208.0604,6978
0.031126,-4.051113,8.722343,-0.158929,-0.02999,0.073665,141,1.86,151.5,294.905,26.8052,2.0976,55.81396,37.500263,208.0604,6988
0.239427,-4.331243,9.086273,-0.123499,-0.048316,0.071222,141,1.86,151.5,294.905,26.8052,2.0976,55.81396,37.500263,208.0604,7003
0.239427,-4.331243,9.086273,-0.088068,-0.048316,0.06267,141.18,1.8,151.32,294.905,26.8052,2.0976,55.81396,37.500263,208.0604,7008
0.304073,-4.467716,9.172467,-0.069742,-0.045872,0.054118,141.18,1.8,151.32,294.905,26.8052,2.0976,55.81396,37.500263,208.0604,7018
0.36393,-4.647287,9.347249,-0.069742,-0.045872,0.054118,140.58,1.74,151.32,295.1565,27.3938,2.123,55.81396,37.500263,208.0604,7029
0.36393,-4.647287,9.347249,-0.049584,-0.069085,0.044955,140.58,1.74,151.32,295.1565,27.3938,2.123,55.81396,37.500263,208.0604,7038
0.282524,-4.752635,9.548368,-0.034923,-0.078859,0.046787,140.46,1.68,151.8,295.1565,27.3938,2.123,55.81396,37.500263,208.0604,7048
0.052674,-4.814886,9.816526,-0.023317,-0.077637,0.050453,140.46,1.68,151.8,295.1565,27.3938,2.123,55.81396,37.500263,208.0604,7057
-0.153234,-4.975303,9.996098,0.004172,-0.073972,0.072444,140.46,1.68,151.8,295.1565,27.3938,2.123,55.81396,37.500263,208.0604,7067
-0.323227,-5.23149,10.134965,0.044489,-0.078859,0.113372,140.52,2.04,151.68,295.3783,27.4482,2.0692,55.81396,37.500263,208.0604,7079
-0.337593,-5.339233,10.144543,0.070757,-0.067253,0.143915,140.4,2.46,151.26,295.3783,27.4482,2.0692,55.81396,37.500263,208.0604,7088
-0.337593,-5.339233,10.144543,0.098856,-0.05137,0.16163,140.4,2.46,151.26,295.3783,27.4482,2.0692,55.81396,37.500263,208.0604,7098
-0.181965,-5.444581,10.209188,0.105576,-0.028157,0.153078,140.7,2.58,151.14,295.5874,27.4326,1.9664,55.81396,37.500263,208.0604,7108
0.004789,-5.33205,10.091868,0.089082,-0.021438,0.107263,140.7,2.58,151.14,295.5874,27.4326,1.9664,55.81396,37.500263,208.0604,7118
0.05028,-5.379935,10.027223,0.058539,-0.011053,0.071833,140.82,2.7,151.86,295.5874,27.4326,1.9664,55.81396,37.500263,208.0604,7128
0.05028,-5.379935,10.027223,0.058539,-0.011053,0.071833,140.82,2.7,151.86,295.5874,27.4326,1.9664,55.81396,37.500263,208.0604,7138
-0.026337,-5.480495,9.960183,0.044489,-0.007999,0.060837,141.12,2.52,152.16,295.5874,27.4326,1.9664,55.81396,37.500263,208.0604,7148
-0.102954,-5.695979,9.96976,-0.039199,0.00483,0.040068,140.76,2.16,152.22,295.1952,27.1625,2.0382,55.81396,37.500263,208.0604,7158
-0.162811,-5.705557,10.118205,-0.10334,0.048201,0.04129,140.76,2.16,152.22,295.1952,27.1625,2.0382,55.81396,37.500263,208.0604,7168
-0.153234,-6.143709,10.084685,-0.13877,0.072025,0.058394,139.92,2.1,151.14,295.1952,27.1625,2.0382,55.81396,37.500263,208.0604,7178
-0.294496,-6.584255,10.278622,-0.148544,0.050644,0.085883,139.92,2.1,151.14,295.1952,27.1625,2.0382,55.81396,37.500263,208.0604,7188
-0.294496,-6.584255,10.278622,-0.100897,0.015214,0.139028,140.34,2.34,151.5,295.3521,27.2625,2.1334,55.81396,37.500263,208.0604,7198
-0.409421,-6.699181,10.532414,0.00234,-0.014718,0.18301,140.34,2.34,151.5,295.3521,27.2625,2.1334,55.81396,37.500263,208.0604,7208
-0.565049,-6.217931,10.453403,0.281505,-0.047094,0.241653,140.4,2.34,152.04,295.3521,27.2625,2.1334,55.81396,37.500263,208.0604,7218
-0.871516,-5.133325,9.052753,0.571666,-0.0868,0.248373,140.4,2.34,152.04,295.3521,27.2625,2.1334,55.81396,37.500263,208.0604,7228
-0.871516,-5.133325,9.052753,0.715219,-0.157661,0.22516,140.52,2.16,151.8,295.1403,27.4026,2.3386,55.81396,37.500263,208.0604,7238
-1.091789,-4.369551,7.685622,0.746984,-0.216304,0.186676,140.52,2.16,151.8,295.1403,27.4026,2.3386,55.81396,37.500263,208.0604,7250
-1.32164,-3.873937,6.397503,0.610761,-0.256621,0.143915,140.88,2.28,150.78,295.1403,27.4026,2.3386,55.81396,37.500263,208.0604,7258
-1.505999,-3.73028,5.650489,0.370691,-0.252345,0.123756,140.88,2.28,150.78,295.1403,27.4026,2.3386,55.81396,37.500263,208.0604,7268
-1.668809,-4.008016,5.791751,0.05182,-0.211417,0.127422,140.88,1.74,150.78,294.041,26.0439,2.3027,55.81396,37.500263,208.0604,7278
-1.668809,-4.008016,5.791751,0.05182,-0.211417,0.127422,140.88,1.38,150.78,294.041,26.0439,2.3027,55.81396,37.500263,208.0604,7287
-1.438959,-4.271386,6.771009,-0.166259,-0.189426,0.134141,140.88,1.38,150.78,294.041,26.0439,2.3027,55.81396,37.500263,208.0604,7298
-1.048692,-4.640105,7.956176,-0.252391,-0.187593,0.131698,140.82,1.62,150.9,294.041,26.0439,2.3027,55.81396,37.500263,208.0604,7308
-0.773351,-5.049525,8.741497,-0.273161,-0.197978,0.118259,140.82,1.62,150.9,294.041,26.0439,2.3027,55.81396,37.500263,208.0604,7318
-0.572232,-5.593026,8.760652,-0.214518,-0.194313,0.123146,140.7,1.56,150.78,294.286,25.786,1.7102,55.81396,37.500263,208.0604,7328
-0.572232,-5.593026,8.760652,-0.158929,-0.20653,0.132309,140.7,1.56,150.78,294.286,25.786,1.7102,55.81396,37.500263,208.0604,7337
-0.22985,-5.863579,8.511647,-0.103951,-0.210195,0.128643,140.7,1.56,150.78,294.286,25.786,1.7102,55.81396,37.500263,208.0604,7348
-0.071828,-5.901887,8.336865,-0.062412,-0.215082,0.096878,141,1.26,150.3,294.286,25.786,1.7102,55.81396,37.500263,208.0604,7358
-0.150839,-5.676825,8.30574,-0.017208,-0.229132,0.066335,141,1.26,150.3,294.286,25.786,1.7102,55.81396,37.500263,208.0604,7368
-0.150839,-5.676825,8.30574,-0.017208,-0.229132,0.066335,141,1.26,150.3,294.286,25.786,1.7102,55.81396,37.500263,208.0604,7378
-0.150839,-5.676825,8.30574,-0.017208,-0.229132,0.066335,141,1.26,150.3,294.286,25.786,1.7102,55.81396,37.500263,208.0604,7387
-0.158022,-5.614574,8.310528,0.057317,-0.098407,0.0419,140.94,1.62,150.06,294.4064,25.9858,1.5624,55.81396,37.500263,208.0604,7398
-0.193936,-4.108575,7.223527,0.057317,-0.098407,0.0419,140.94,1.5,150.6,294.4064,25.9858,1.5624,55.81396,37.500263,208.0604,7408
-0.021548,-3.715914,7.173248,0.034105,-0.069085,0.033959,140.94,1.5,150.6,294.4064,25.9858,1.5624,55.81396,37.500263,208.0604,7418
-0.031126,-3.387899,7.288173,0.023109,-0.057479,0.008914,140.94,2.22,150,294.8024,26.0136,1.0602,55.81396,37.500263,208.0604,7428
-0.031126,-3.387899,7.288173,0.029218,-0.054424,-0.013077,140.94,2.22,150,294.8024,26.0136,1.0602,55.81396,37.500263,208.0604,7438
-0.119714,-3.263396,7.405492,0.034715,-0.061755,-0.033236,140.58,2.58,149.94,294.8024,26.0136,1.0602,55.81396,37.500263,208.0604,7448
-0.249005,-3.174808,7.573091,0.025552,-0.048316,-0.042399,140.58,2.58,149.94,294.8024,26.0136,1.0602,55.81396,37.500263,208.0604,7458
-0.33041,-3.158048,7.568303,0.013946,-0.05137,-0.032014,140.52,1.68,150.18,294.8619,25.9606,0.9278,55.81396,37.500263,208.0604,7468
-0.33041,-3.158048,7.568303,-0.009267,-0.088022,-0.030182,140.52,1.68,150.18,294.8619,25.9606,0.9278,55.81396,37.500263,208.0604,7477
-0.332804,-3.129317,7.556331,-0.029425,-0.109402,-0.025295,140.28,1.38,150.48,294.8619,25.9606,0.9278,55.81396,37.500263,208.0604,7488
-0.435758,-3.191568,7.80773,-0.029425,-0.109402,-0.025295,140.28,1.38,150.48,294.8619,25.9606,0.9278,55.81396,37.500263,208.0604,7498
-0.569837,-3.292128,7.920261,-0.042864,-0.116122,-0.027738,140.76,1.86,150,294.9623,25.9235,0.7574,55.81396,37.500263,208.0604,7508
-0.624906,-3.474093,7.95857,-0.056914,-0.130783,-0.027738,140.76,1.86,150,294.9623,25.9235,0.7574,55.81396,37.500263,208.0604,7518
-0.624906,-3.474093,7.95857,-0.085625,-0.123452,-0.032014,140.88,1.8,149.46,294.9623,25.9235,0.7574,55.81396,37.500263,208.0604,7528
-0.624906,-3.768588,8.035186,-0.133883,-0.105737,-0.041788,140.88,1.8,149.46,294.9623,25.9235,0.7574,55.81396,37.500263,208.0604,7538
-0.653637,-4.082239,8.454185,-0.171757,-0.089244,-0.05034,140.16,1.8,150,295.4205,26.0241,0.4625,55.81396,37.500263,208.0604,7548
-0.780534,-4.326454,8.997684,-0.187029,-0.069696,-0.07111,140.16,1.8,150,295.4205,26.0241,0.4625,55.81396,37.500263,208.0604,7558
-0.780534,-4.326454,8.997684,-0.144879,-0.066642,-0.077829,139.86,1.68,150.42,295.4205,26.0241,0.4625,55.81396,37.500263,208.0604,7568
-0.744619,-4.371946,9.330489,-0.036145,-0.092909,-0.076607,139.86,1.68,150.42,295.4205,26.0241,0.4625,55.81396,37.500263,208.0604,7577
-0.471672,-4.460534,9.42626,0.018833,-0.101461,-0.085159,139.5,1.62,151.02,296.0396,26.3867,0.2097,55.81396,37.500263,208.0604,7588
-0.471672,-4.460534,9.42626,0.018833,-0.101461,-0.085159,139.5,1.62,151.02,296.0396,26.3867,0.2097,55.81396,37.500263,208.0604,7598
-0.371113,-4.529968,9.44302,0.043878,-0.083135,-0.099209,139.92,2.04,150.72,296.0396,26.3867,0.2097,55.81396,37.500263,208.0604,7608
-0.227456,-4.465322,9.531608,0.053041,-0.055035,-0.136472,139.92,2.04,150.72,296.0396,26.3867,0.2097,55.81396,37.500263,208.0604,7618
-0.052674,-4.561093,9.718362,0.059761,-0.056868,-0.181065,140.46,2.22,150.48,296.1831,26.486,-0.0632,55.81396,37.500263,208.0604,7627
-0.052674,-4.561093,9.718362,0.064037,-0.048316,-0.220772,140.46,2.22,150.48,296.1831,26.486,-0.0632,55.81396,37.500263,208.0604,7638
0.045491,-4.652076,9.881172,0.055485,-0.026325,-0.243984,140.16,2.22,150.66,296.1831,26.486,-0.0632,55.81396,37.500263,208.0604,7649
-0.153234,-4.723904,9.962578,0.053041,-0.002501,-0.24093,140.16,2.22,150.66,296.1831,26.486,-0.0632,55.81396,37.500263,208.0604,7658
-0.208302,-4.810098,9.847652,0.058539,-0.014718,-0.217717,139.26,1.98,150.42,296.4787,26.3467,-0.3678,55.813965,37.500256,207.9945,7668
-0.289707,-4.714327,9.914692,0.073811,-0.03732,-0.187174,139.26,1.98,150.42,296.4787,26.3467,-0.3678,55.813965,37.500256,207.9945,7678
-0.289707,-4.714327,9.914692,0.084196,-0.035488,-0.173124,138.9,2.1,150.48,296.4787,26.3467,-0.3678,55.813965,37.500256,207.9945,7688
-0.481249,-4.616162,9.857229,0.055485,-0.012275,-0.172513,138.9,2.1,150.48,296.4787,26.3467,-0.3678,55.813965,37.500256,207.9945,7698
-0.565049,-4.807704,9.694419,-0.009878,-0.003723,-0.183509,139.38,2.22,150.6,296.7683,26.1211,-0.7677,55.813965,37.500256,207.9945,7708
-0.320833,-5.193182,9.780613,-0.10334,-0.005555,-0.202446,139.38,2.22,150.6,296.7683,26.1211,-0.7677,55.813965,37.500256,207.9945,7718
-0.284919,-5.604997,10.261862,-0.218794,0.029264,-0.222604,139.14,2.22,151.08,296.7683,26.1211,-0.7677,55.813965,37.500256,207.9945,7728
-0.284919,-5.604997,10.261862,-0.278048,0.059807,-0.226269,139.14,2.22,151.08,296.7683,26.1211,-0.7677,55.813965,37.500256,207.9945,7738
-0.244216,-6.021601,10.520444,-0.299428,0.112342,-0.202446,139.5,2.22,151.62,296.9131,26.2122,-0.8796,55.813965,37.500256,207.9945,7748
-0.203513,-6.56989,10.453403,-0.248115,0.114174,-0.133418,139.5,2.22,151.62,296.9131,26.2122,-0.8796,55.813965,37.500256,207.9945,7757
-0.184359,-6.893117,10.369604,-0.144268,0.111731,-0.05034,139.68,1.86,151.5,296.9131,26.2122,-0.8796,55.813965,37.500256,207.9945,7768
-0.184359,-6.893117,10.369604,0.040213,0.11845,0.028461,139.68,1.86,151.5,296.9131,26.2122,-0.8796,55.813965,37.500256,207.9945,7778
-0.01676,-6.632141,10.257073,0.208201,0.140442,0.056561,139.38,1.92,151.2,297.4322,26.8196,-0.908,55.813965,37.500256,207.9945,7788
0.318439,-5.854002,9.601042,0.351144,0.154491,0.031516,139.38,1.92,151.2,297.4322,26.8196,-0.908,55.813965,37.500256,207.9945,7798
0.723071,-5.03516,8.269825,0.351144,0.154491,0.031516,138.42,2.28,151.2,297.4322,26.8196,-0.908,55.813965,37.500256,207.9945,7808
0.761379,-4.606584,7.369578,0.387796,0.099514,-0.072331,138.42,2.28,151.2,297.4322,26.8196,-0.908,55.813965,37.500256,207.9945,7818
0.761379,-4.606584,7.369578,0.303496,0.095848,-0.137083,137.64,2.34,151.44,297.227,26.6639,-0.5971,55.813965,37.500256,207.9945,7828
0.682368,-4.486871,7.194796,0.142839,0.108677,-0.172513,137.64,2.34,151.44,297.227,26.6639,-0.5971,55.813965,37.500256,207.9945,7838
0.553077,-4.427014,7.5276,0.034715,0.120894,-0.152355,138.72,2.28,151.26,297.227,26.6639,-0.5971,55.813965,37.500256,207.9945,7849
0.567443,-4.338426,7.790971,-0.006823,0.109287,-0.122422,138.72,2.28,151.26,297.227,26.6639,-0.5971,55.813965,37.500256,207.9945,7857
0.490826,-4.369551,8.008849,-0.011099,0.10379,-0.082716,139.86,2.82,150.78,296.606,26.0415,-0.4752,55.813965,37.500256,207.9945,7868
0.490826,-4.369551,8.008849,0.006616,0.094627,-0.006358,139.86,2.82,150.78,296.606,26.0415,-0.4752,55.813965,37.500256,207.9945,7878
0.368718,-4.517997,8.016032,0.029218,0.045147,0.039457,139.92,2.52,151.32,296.606,26.0415,-0.4752,55.813965,37.500256,207.9945,7888
0.383084,-4.55391,8.063917,0.029218,0.045147,0.039457,139.92,2.52,151.32,296.606,26.0415,-0.4752,55.813965,37.500256,207.9945,7898
0.488432,-4.532362,7.984907,0.035937,0.031097,0.062059,139.14,2.28,151.68,296.5166,26.0476,-0.3392,55.813965,37.500256,207.9945,7908
0.488432,-4.532362,7.984907,0.01639,0.029264,0.059005,139.14,2.28,151.68,296.5166,26.0476,-0.3392,55.813965,37.500256,207.9945,7917
0.308861,-4.60419,7.97533,-0.020262,0.053699,0.044344,138.96,1.98,151.14,296.5166,26.0476,-0.3392,55.813965,37.500256,207.9945,7927
0.014366,-4.640105,7.968147,-0.050195,0.072636,0.031516,138.96,1.98,151.14,296.5166,26.0476,-0.3392,55.813965,37.500256,207.9945,7938
-0.222668,-4.438985,7.879559,-0.055693,0.046979,0.00647,139.62,1.02,150.84,295.7682,26.0131,-0.1958,55.813965,37.500256,207.9945,7949
-0.222668,-4.438985,7.879559,-0.044697,0.091572,0.000972,139.62,1.02,150.84,295.7682,26.0131,-0.1958,55.813965,37.500256,207.9945,7958
-0.241822,-4.276175,7.872376,-0.044697,0.091572,0.000972,139.44,1.5,150.84,295.7682,26.0131,-0.1958,55.813965,37.500256,207.9945,7968
-0.26337,-4.252232,7.618582,-0.049584,0.135555,0.007692,139.44,1.5,150.84,295.7682,26.0131,-0.1958,55.813965,37.500256,207.9945,7978
-0.282524,-4.189981,7.522812,-0.08196,0.180148,0.024796,139.2,2.34,150.96,296.1968,26.1355,-0.0323,55.813965,37.500256,207.9945,7987
-0.282524,-4.189981,7.522812,-0.086236,0.19603,0.059616,139.2,2.34,150.96,296.1968,26.1355,-0.0323,55.813965,37.500256,207.9945,7998
-0.196331,-4.046324,7.587457,-0.085625,0.196641,0.086494,139.2,1.74,151.38,296.1968,26.1355,-0.0323,55.813965,37.500256,207.9945,8008
-0.196331,-4.046324,7.587457,-0.076462,0.214967,0.118869,139.2,1.74,151.38,296.1968,26.1355,-0.0323,55.813965,37.500256,207.9945,8018
0.011971,-3.759011,7.690411,-0.050806,0.193587,0.129865,139.02,1.92,151.92,296.1968,26.1355,-0.0323,55.813965,37.500256,207.9945,8028
0.433364,-3.464516,7.630554,-0.021484,0.145329,0.117037,139.5,1.92,151.98,295.9115,26.3597,0.5334,55.813965,37.500256,207.9945,8038
0.433364,-3.464516,7.630554,-0.02576,0.10379,0.083439,139.5,1.92,151.98,295.9115,26.3597,0.5334,55.813965,37.500256,207.9945,8048
0.474066,-3.296916,7.630554,-0.042864,0.072025,0.073055,139.68,1.92,151.8,295.9115,26.3597,0.5334,55.813965,37.500256,207.9945,8058
0.29689,-3.435784,7.788576,-0.067299,0.037205,0.065113,139.68,1.92,151.8,295.9115,26.3597,0.5334,55.813965,37.500256,207.9945,8068
0.29689,-3.435784,7.788576,-0.105173,0.029875,0.073665,139.74,2.4,151.86,295.5936,26.4479,1.0307,55.813965,37.500256,207.9945,8077
0.237033,-3.555498,8.075889,-0.114947,0.032929,0.079163,139.74,2.4,151.86,295.5936,26.4479,1.0307,55.813965,37.500256,207.9945,8088
0.287313,-3.782954,8.224334,-0.114947,0.032929,0.079163,139.5,2.52,151.62,295.5936,26.4479,1.0307,55.813965,37.500256,207.9945,8098
0.318439,-3.991256,8.387145,-0.11006,0.01216,0.074276,139.5,2.52,151.62,295.5936,26.4479,1.0307,55.813965,37.500256,207.9945,8108
0.442941,-4.063084,8.56911,-0.095399,-0.007388,0.068168,139.86,1.92,151.2,295.4466,26.6213,1.2062,55.813965,37.500256,207.9945,8118
0.442941,-4.063084,8.56911,-0.069742,-0.017162,0.062059,139.86,1.92,151.2,295.4466,26.6213,1.2062,55.813965,37.500256,207.9945,8128
0.517163,-4.185192,8.710372,-0.045308,-0.036098,0.054729,140.04,2.04,151.38,295.4466,26.6213,1.2062,55.813965,37.500256,207.9945,8138
0.598569,-4.166038,8.858817,-0.008045,-0.075805,0.049231,140.04,2.04,151.38,295.4466,26.6213,1.2062,55.813965,37.500256,207.9945,8148
0.639271,-4.07745,8.961771,0.018833,-0.114289,0.044955,139.38,2.4,151.68,295.8455,26.8192,1.2743,55.813965,37.500256,207.9945,8158
0.581809,-4.084633,8.921068,0.027385,-0.151552,0.037624,139.38,2.4,151.68,295.8455,26.8192,1.2743,55.813965,37.500256,207.9945,8168
0.581809,-4.084633,8.921068,0.009059,-0.169878,0.035792,139.38,2.4,152.28,295.8455,26.8192,1.2743,55.813965,37.500256,207.9945,8178
0.445335,-4.182798,9.141341,-0.031258,-0.16438,0.040068,139.74,2.4,152.34,295.8455,26.8192,1.2743,55.813965,37.500256,207.9945,8187
0.301679,-4.417437,9.462174,-0.047751,-0.153385,0.059005,139.74,2.4,152.34,295.8455,26.8192,1.2743,55.813965,37.500256,207.9945,8197
0.220273,-4.635316,9.718362,-0.05386,-0.132615,0.07,140.52,2.1,152.34,295.7272,26.8037,0.9992,55.813965,37.500256,207.9945,8208
0.090982,-4.872349,10.032011,-0.05386,-0.132615,0.07,140.52,2.1,152.34,295.7272,26.8037,0.9992,55.813965,37.500256,207.9945,8218
0.090982,-4.872349,10.032011,-0.041643,-0.098407,0.077942,140.16,2.1,151.8,295.7272,26.8037,0.9992,55.813965,37.500256,207.9945,8228
-0.045491,-5.138114,10.30017,-0.013543,-0.051981,0.087105,140.16,2.1,151.8,295.7272,26.8037,0.9992,55.813965,37.500256,207.9945,8238
-0.169993,-5.166845,10.288198,0.004783,-0.014718,0.087715,139.38,2.1,151.74,296.3331,26.8926,0.7212,55.813965,37.500256,207.9945,8248
-0.177176,-5.23149,9.878778,0.004172,0.029875,0.077942,139.38,2.1,151.74,296.3331,26.8926,0.7212,55.813965,37.500256,207.9945,8258
-0.177176,-5.23149,9.878778,-0.052638,0.051255,0.07,139.8,1.38,151.62,296.3331,26.8926,0.7212,55.813965,37.500256,207.9945,8268
-0.150839,-5.454158,9.541185,-0.128996,0.037816,0.059616,139.8,1.38,151.62,296.3331,26.8926,0.7212,55.813965,37.500256,207.9945,8278
-0.110137,-5.691191,9.586677,-0.216961,0.002386,0.040679,139.98,2.04,151.62,296.138,26.9053,0.7749,55.813965,37.500256,207.9945,8288
-0.160416,-6.179623,10.173274,-0.318365,0.009106,0.026629,139.98,2.04,151.62,296.138,26.9053,0.7749,55.813965,37.500256,207.9945,8298
-0.160416,-6.179623,10.173274,-0.360514,0.020101,0.036403,139.74,3.18,152.1,296.138,26.9053,0.7749,55.813965,37.500256,207.9945,8308
-0.208302,-6.93382,10.448615,-0.319586,0.006662,0.095046,139.74,3.18,152.1,296.138,26.9053,0.7749,55.813965,37.500256,207.9945,8319
-0.292102,-7.283384,10.802968,-0.161372,-0.019605,0.162852,139.8,3.18,152.1,296.6625,27.3335,0.8806,55.813965,37.500256,207.9945,8328
-0.22985,-7.020014,10.956202,-0.161372,-0.019605,0.162852,139.8,3.18,152.1,296.6625,27.3335,0.8806,55.813965,37.500256,207.9945,8337
-0.272947,-6.043149,10.264256,0.077476,-0.053814,0.20378,139.98,3,151.8,296.6625,27.3335,0.8806,55.813965,37.500256,207.9945,8348
-0.272947,-6.043149,10.264256,0.409787,-0.055646,0.233712,139.98,3,151.8,296.6625,27.3335,0.8806,55.813965,37.500256,207.9945,8358
-0.579414,-5.157268,8.684034,0.611983,-0.076416,0.218441,140.16,3.06,151.68,296.9578,27.8702,1.005,55.813965,37.500256,207.9945,8368
-0.794899,-4.417437,6.888329,0.610151,-0.106348,0.187897,140.16,3.06,151.68,296.9578,27.8702,1.005,55.813965,37.500256,207.9945,8378
-0.854756,-4.024776,6.035967,0.476982,-0.115511,0.148191,140.52,2.04,151.92,296.9578,27.8702,1.005,55.813965,37.500256,207.9945,8388
-1.084606,-3.974496,5.540352,0.198427,-0.073972,0.121924,140.52,2.04,151.92,296.9578,27.8702,1.005,55.813965,37.500256,207.9945,8398
-1.084606,-3.974496,5.540352,-0.055693,-0.053814,0.107263,140.4,1.26,152.1,295.5014,26.7492,1.0676,55.813965,37.500256,207.9945,8408
-1.046298,-4.245049,6.148498,-0.2866,-0.03732,0.092602,140.4,1.26,152.1,295.5014,26.7492,1.0676,55.813965,37.500256,207.9945,8418
-0.778139,-4.714327,7.24747,-0.386782,-0.025714,0.09077,140.4,1.38,151.14,295.5014,26.7492,1.0676,55.813965,37.500256,207.9945,8428
-0.493221,-5.190788,8.358414,-0.408162,-0.014107,0.0981,140.4,1.38,151.14,295.5014,26.7492,1.0676,55.813965,37.500256,207.9945,8438
-0.493221,-5.190788,8.358414,-0.323252,-0.048316,0.120702,140.22,1.86,151.08,295.5331,26.5791,1.0523,55.813965,37.500256,207.9945,8448
-0.325621,-5.741471,9.069513,-0.323252,-0.048316,0.120702,140.22,1.86,151.08,295.5331,26.5791,1.0523,55.813965,37.500256,207.9945,8458
-0.196331,-6.009629,9.086273,-0.216961,-0.10085,0.139028,139.68,2.46,151.86,295.5331,26.5791,1.0523,55.813965,37.500256,207.9945,8468
0.026337,-6.033572,8.777411,-0.143657,-0.141778,0.145137,139.68,2.46,151.86,295.5331,26.5791,1.0523,55.813965,37.500256,207.9945,8478
0.026337,-6.033572,8.777411,-0.047751,-0.179041,0.143915,140.4,2.16,151.92,296.2411,27.3939,1.1095,55.813965,37.500256,207.9945,8488
0.035914,-5.921041,8.61939,0.00234,-0.147887,0.129865,140.4,2.16,151.92,296.2411,27.3939,1.1095,55.813965,37.500256,207.9945,8498
-0.129291,-5.62894,8.549955,0.038381,-0.131393,0.11948,140.7,1.92,151.38,296.2411,27.3939,1.1095,55.813965,37.500256,207.9945,8509
-0.174782,-5.004034,8.245882,0.112295,-0.102072,0.101154,140.7,1.92,151.38,296.2411,27.3939,1.1095,55.813965,37.500256,207.9945,8518
-0.047885,-4.479688,7.865193,0.112295,-0.102072,0.101154,140.16,2.1,151.74,296.5157,27.566,0.9227,55.813965,37.500256,207.9945,8528
-0.047885,-4.479688,7.865193,0.191708,-0.118565,0.050453,140.16,2.1,151.74,296.5157,27.566,0.9227,55.813965,37.500256,207.9945,8538
0.01676,-3.885908,7.345635,0.210034,-0.12162,0.019298,140.58,2.28,151.5,296.5157,27.566,0.9227,55.813965,37.500256,207.9945,8548
0.055068,-3.46691,6.859597,0.190486,-0.116122,0.005249,140.58,2.28,151.5,296.5157,27.566,0.9227,55.813965,37.500256,207.9945,8558
0.055068,-3.46691,6.859597,0.190486,-0.116122,0.005249,140.52,2.7,151.86,296.5689,27.2965,0.7578,55.813965,37.500256,207.9945,8569
0.052674,-3.081432,6.644113,0.125124,-0.135059,-0.026516,140.52,2.7,151.86,296.5689,27.2965,0.7578,55.813965,37.500256,207.9945,8578
0.119714,-2.923409,6.730307,0.059761,-0.153385,-0.058892,139.98,2.76,152.22,296.5689,27.2965,0.7578,55.813965,37.500256,207.9945,8588
0.119714,-2.923409,6.730307,-0.019652,-0.144832,-0.086381,139.98,2.76,152.22,296.5689,27.2965,0.7578,55.813965,37.500256,207.9945,8597
0.023943,-3.18678,6.957763,-0.101507,-0.13628,-0.10654,139.74,2.46,151.5,296.5919,26.9456,0.2378,55.813965,37.500256,207.9945,8608
-0.172388,-3.457333,7.71196,-0.153431,-0.126507,-0.118146,139.74,2.46,151.5,296.5919,26.9456,0.2378,55.813965,37.500256,207.9945,8618
-0.383084,-3.838022,8.224334,-0.157096,-0.112457,-0.121811,139.92,2.4,151.38,296.5919,26.9456,0.2378,55.813965,37.500256,207.9945,8629
-0.383084,-3.838022,8.224334,-0.146711,-0.097796,-0.123644,139.92,2.4,151.38,296.5919,26.9456,0.2378,55.813965,37.500256,207.9945,8638
-0.328016,-4.079844,8.430242,-0.132662,-0.091076,-0.129753,140.46,2.16,150.6,296.7362,27.1062,0.024,55.813965,37.500256,207.9945,8648
-0.464489,-4.486871,8.638543,-0.118612,-0.070307,-0.130364,140.46,2.16,150.6,296.7362,27.1062,0.024,55.813965,37.500256,207.9945,8658
-0.603357,-4.733481,8.808537,-0.099064,-0.060533,-0.121811,140.46,2.22,151.08,296.7362,27.1062,0.024,55.813965,37.500256,207.9945,8668
-0.603357,-4.733481,8.808537,-0.063023,-0.0587,-0.110205,140.46,2.22,151.08,296.7362,27.1062,0.024,55.813965,37.50024,207.6324,8678
-0.588992,-4.872349,8.964165,-0.009878,-0.076416,-0.10654,139.92,2.64,152.22,297.8576,27.4935,-0.4592,55.813965,37.50024,207.6324,8688
-0.557866,-4.73827,9.126976,0.056096,-0.082524,-0.102875,139.92,2.64,152.22,297.8576,27.4935,-0.4592,55.813965,37.50024,207.6324,8698
-0.574626,-4.63771,9.040782,0.103743,-0.075194,-0.104096,139.56,2.76,152.1,297.8576,27.4935,-0.4592,55.813965,37.50024,207.6324,8708
-0.574626,-4.63771,9.040782,0.13673,-0.084357,-0.129142,139.56,2.76,152.1,297.8576,27.4935,-0.4592,55.813965,37.50024,207.6324,8717
-0.466884,-4.479688,8.861211,0.126956,-0.080692,-0.146246,139.38,2.76,151.74,298.1149,27.4473,-0.6079,55.813965,37.50024,207.6324,8728
-0.308861,-4.450957,8.937828,0.106187,-0.076416,-0.168848,139.38,2.76,151.74,298.1149,27.4473,-0.6079,55.813965,37.50024,207.6324,8738
-0.177176,-4.450957,9.184438,0.106798,-0.071529,-0.182287,139.5,2.22,152.04,298.1149,27.4473,-0.6079,55.813965,37.50024,207.6324,8748
0.01676,-4.529968,9.404712,0.112906,-0.070918,-0.19145,139.5,2.22,152.04,298.1149,27.4473,-0.6079,55.813965,37.50024,207.6324,8758
0.01676,-4.529968,9.404712,0.112906,-0.070918,-0.19145,139.5,1.62,152.28,297.6986,27.1586,-0.9315,55.813965,37.50024,207.6324,8767
0.129291,-4.601796,9.548368,0.123902,-0.059922,-0.19145,139.5,1.62,152.28,297.6986,27.1586,-0.9315,55.813965,37.50024,207.6324,8778
0.098165,-4.709538,9.63935,0.133065,-0.022049,-0.19145,139.68,1.92,152.58,297.6986,27.1586,-0.9315,55.813965,37.50024,207.6324,8788
0.009577,-4.702356,9.680053,0.143449,-0.004333,-0.1774,139.68,1.92,152.58,297.6986,27.1586,-0.9315,55.813965,37.50024,207.6324,8798
-0.169993,-4.450957,9.768641,0.152002,0.00544,-0.171902,139.5,2.34,152.58,297.9198,26.8842,-1.2772,55.813965,37.50024,207.6324,8808
-0.169993,-4.450957,9.768641,0.155056,0.015825,-0.187174,139.5,2.34,152.58,297.9198,26.8842,-1.2772,55.813965,37.50024,207.6324,8818
-0.339987,-4.288146,9.624985,0.109852,0.012771,-0.213441,138.84,2.28,151.98,297.9198,26.8842,-1.2772,55.813965,37.50024,207.6324,8827
-0.260976,-4.668835,9.466963,-0.004991,0.029875,-0.236654,138.84,2.28,151.98,297.9198,26.8842,-1.2772,55.813965,37.50024,207.6324,8838
-0.177176,-4.956148,9.900327,-0.205965,0.112953,-0.257423,138.36,2.04,152.46,297.9861,26.5326,-1.4655,55.813965,37.50024,207.6324,8848
-0.177176,-4.956148,9.900327,-0.325695,0.169763,-0.263532,138.36,2.04,152.46,297.9861,26.5326,-1.4655,55.813965,37.50024,207.6324,8858
-0.217879,-5.782173,10.199611,-0.325695,0.169763,-0.263532,137.88,1.92,152.7,297.9861,26.5326,-1.4655,55.813965,37.50024,207.6324,8868
-0.064645,-6.960157,10.290593,-0.380673,0.167931,-0.240319,137.88,1.92,152.7,297.9861,26.5326,-1.4655,55.813965,37.50024,207.6324,8878
0.153234,-7.70717,10.637763,-0.432596,0.213745,-0.153576,138.6,1.86,152.04,298.0685,26.7624,-1.5513,55.813965,37.50024,207.6324,8888
0.34717,-7.79097,11.147743,-0.408162,0.282162,-0.079051,138.6,1.86,152.04,298.0685,26.7624,-1.5513,55.813965,37.50024,207.6324,8898
0.34717,-7.79097,11.147743,-0.261554,0.31576,-0.02896,139.5,1.32,151.8,298.0685,26.7624,-1.5513,55.813965,37.50024,207.6324,8909
0.569837,-7.015225,11.154926,0.081752,0.303543,-0.006358,139.5,1.32,151.8,298.0685,26.7624,-1.5513,55.813965,37.50024,207.6324,8917
0.806871,-5.921041,10.1206,0.374357,0.251008,-0.037512,139.14,1.38,151.08,298.0593,27.6534,-1.2342,55.813965,37.50024,207.6324,8928
1.087001,-4.72151,8.253065,0.586938,0.173428,-0.108372,138.78,1.74,151.2,298.0593,27.6534,-1.2342,55.813965,37.50024,207.6324,8938
1.087001,-4.72151,8.253065,0.662685,0.092794,-0.199391,138.78,1.74,151.2,298.0593,27.6534,-1.2342,55.813965,37.50024,207.6324,8948
1.036721,-4.039142,6.605804,0.585105,0.05492,-0.2617,139.5,2.4,151.38,298.0593,27.6534,-1.2342,55.813965,37.50024,207.6324,8958
0.806871,-3.785348,6.019207,0.337705,0.049423,-0.289188,139.5,2.4,151.38,298.0593,27.6534,-1.2342,55.813965,37.50024,207.6324,8969
0.490826,-3.672817,6.251452,0.119015,0.053088,-0.263532,139.32,2.16,151.8,297.1065,26.3413,-0.7854,55.813965,37.50024,207.6324,8978
0.452518,-3.624932,6.677633,0.119015,0.053088,-0.263532,139.26,2.28,151.68,297.1065,26.3413,-0.7854,55.813965,37.50024,207.6324,8988
0.452518,-3.624932,6.677633,-0.014154,0.067749,-0.222604,139.26,2.28,151.68,297.1065,26.3413,-0.7854,55.813965,37.50024,207.6324,8998
0.337593,-3.849994,7.491686,-0.096621,0.079966,-0.158463,139.38,1.68,151.38,297.1065,26.3413,-0.7854,55.813965,37.50024,207.6324,9008
0.39745,-4.225895,7.889136,-0.121055,0.073246,-0.114481,139.38,1.68,151.38,297.1065,26.3413,-0.7854,55.813965,37.50024,207.6324,9018
0.392661,-4.642499,8.277008,-0.120444,0.049423,-0.057671,139.68,1.44,151.56,296.5233,26.0374,-0.9397,55.813965,37.50024,207.6324,9028
0.500403,-4.898686,8.241094,-0.102729,0.043314,0.016855,139.68,1.44,151.56,296.5233,26.0374,-0.9397,55.813965,37.50024,207.6324,9039
