ACCELEROMETER X (m/s²),ACCELEROMETER Y (m/s²),ACCELEROMETER Z (m/s²),GRAVITY X (m/s²),GRAVITY Y (m/s²),GRAVITY Z (m/s²),GYROSCOPE X (rad/s),GYROSCOPE Y (rad/s),GYROSCOPE Z (rad/s),MAGNETIC FIELD X (μT),MAGNETIC FIELD Y (μT),MAGNETIC FIELD Z (μT),ORIENTATION Z (azimuth °),ORIENTATION X (pitch °),ORIENTATION Y (roll °),ATMOSPHERIC PRESSURE (hPa),LOCATION Latitude : ,LOCATION Longitude : ,LOCATION Altitude ( m),LOCATION Altitude-google ( m),LOCATION Altitude-atmospheric pressure ( m),LOCATION Speed ( m/s),LOCATION Accuracy ( m),LOCATION ORIENTATION (°),Satellites in range,GPS NMEA,Time since start in ms ,YYYY-MO-DD HH-MI-SS_SSS
0.277736,0.373507,9.864412,0.32357,0.370229,9.794315,-0.005602,0.009106,-0.016132,135.48,-36.42,144.24,252.3064,-2.1398,-1.9054,1002.875,55.81399,37.500248,207.6069,NaN,,0.0335,8.0,319.2401,24 / 26,,16,2021-05-11 18:51:36:133
0.366324,0.404632,9.90272,0.323248,0.373137,9.794216,0.010892,-0.020216,-0.019797,136.02,-36.78,144.48,252.3064,-2.1398,-1.9054,1002.8767,55.81399,37.500248,207.6069,NaN,,0.0335,8.0,319.2401,24 / 26,,26,2021-05-11 18:51:36:143
0.366324,0.404632,9.90272,0.323248,0.373137,9.794216,0.010892,-0.020216,-0.019797,136.02,-36.78,144.48,252.3064,-2.1398,-1.9054,1002.8767,55.81399,37.500248,207.6069,NaN,,0.0335,8.0,319.2401,24 / 26,,36,2021-05-11 18:51:36:153
0.335198,0.450124,9.785401,0.327416,0.380429,9.793797,0.022498,-0.003723,-0.027738,135.54,-36.72,144.3,252.3064,-2.1398,-1.9054,1002.8767,55.81399,37.500248,207.6069,NaN,,0.0335,8.0,319.2401,24 / 26,,46,2021-05-11 18:51:36:163
0.217879,0.390267,9.696813,0.32811,0.384558,9.793612,0.013335,-0.00861,-0.014299,135.42,-36.48,144.54,252.1714,-2.2474,-1.9188,1002.8767,55.81399,37.500248,207.6069,NaN,,0.0335,8.0,319.2401,24 / 26,,56,2021-05-11 18:51:36:173
0.217879,0.390267,9.696813,0.32811,0.384558,9.793612,0.013335,-0.00861,-0.014299,135.42,-36.48,144.54,252.1714,-2.2474,-1.9188,1002.8767,55.81399,37.500248,207.6069,NaN,,0.0335,8.0,319.2401,24 / 26,,67,2021-05-11 18:51:36:184
0.225062,0.361536,9.852441,0.323291,0.388227,9.793628,0.013335,0.001164,-0.004525,135.06,-36.42,144.18,252.1714,-2.2474,-1.9188,1002.8767,55.81399,37.500248,207.6069,NaN,,0.0335,8.0,319.2401,24 / 26,,76,2021-05-11 18:51:36:193
0.225062,0.361536,9.852441,0.323291,0.388227,9.793628,0.025552,-0.012275,-0.008801,135.06,-36.42,144.18,252.1714,-2.2474,-1.9188,1002.8767,55.81399,37.500248,207.6069,NaN,,0.0335,8.0,319.2401,24 / 26,,86,2021-05-11 18:51:36:203
0.277736,0.332804,9.862018,0.317188,0.390376,9.793742,0.036548,-0.016551,-0.012467,135.42,-37.44,144.96,252.1714,-2.2474,-1.9188,1002.8767,55.81399,37.500248,207.6069,NaN,,0.0335,8.0,319.2401,24 / 26,,96,2021-05-11 18:51:36:213
0.323227,0.404632,9.873989,0.3156,0.391651,9.793742,0.041435,-0.018383,-0.017964,135.66,-37.38,145.32,251.8919,-2.2814,-1.855,1002.8767,55.81399,37.500244,207.794,NaN,,0.0,8.0,,23 / 26,,106,2021-05-11 18:51:36:223
0.28013,0.450124,9.675264,0.314201,0.396784,9.793581,0.035326,-0.004944,-0.02224,136.26,-36.9,144.3,251.8919,-2.2814,-1.855,1002.8767,55.81399,37.500244,207.794,NaN,,0.0,8.0,,23 / 26,,116,2021-05-11 18:51:36:233
0.28013,0.450124,9.675264,0.314201,0.396784,9.793581,0.035326,-0.004944,-0.02224,136.26,-36.9,144.3,251.8919,-2.2814,-1.855,1002.8767,55.81399,37.500244,207.794,NaN,,0.0,8.0,,23 / 26,,125,2021-05-11 18:51:36:242
0.22985,0.483644,9.608225,0.314201,0.396784,9.793581,0.01639,0.01216,-0.019186,136.26,-36.9,144.3,251.8919,-2.2814,-1.855,1002.8767,55.81399,37.500244,207.794,NaN,,0.0,8.0,,23 / 26,,136,2021-05-11 18:51:36:253
0.251399,0.457306,9.581888,0.308289,0.402834,9.793522,-0.003769,0.025599,-0.011856,136.2,-36.84,143.76,251.8803,-2.3189,-1.8375,1002.8767,55.81399,37.500244,207.794,NaN,,0.0,8.0,,23 / 26,,146,2021-05-11 18:51:36:263
0.251399,0.462095,9.608225,0.308289,0.402834,9.793522,-0.021484,0.029875,-0.006969,136.2,-36.84,143.76,251.8803,-2.3189,-1.8375,1002.8767,55.81399,37.500244,207.794,NaN,,0.0,8.0,,23 / 26,,155,2021-05-11 18:51:36:272
0.251399,0.462095,9.608225,0.297823,0.406128,9.79371,-0.026982,0.028653,-0.005747,135.3,-36.78,144.78,251.8803,-2.3189,-1.8375,1002.8767,55.81399,37.500244,207.794,NaN,,0.0,8.0,,23 / 26,,166,2021-05-11 18:51:36:283
0.301679,0.404632,9.763853,0.292482,0.406793,9.793842,-0.023317,0.015825,-0.011856,135.42,-36.42,144.36,251.8803,-2.3189,-1.8375,1002.8767,55.81399,37.500244,207.794,NaN,,0.0,8.0,,23 / 26,,176,2021-05-11 18:51:36:293
0.301679,0.404632,9.763853,0.292482,0.406793,9.793842,-0.023317,0.015825,-0.011856,135.42,-36.42,144.36,251.8803,-2.3189,-1.8375,1002.8767,55.81399,37.500244,207.794,NaN,,0.0,8.0,,23 / 26,,185,2021-05-11 18:51:36:302
0.294496,0.359141,9.873989,0.286223,0.406427,9.794044,-0.017208,0.021323,-0.014299,134.94,-36.3,144.24,252.1354,-2.3774,-1.7106,1002.8767,55.81399,37.500244,207.794,NaN,,0.0,8.0,,23 / 26,,196,2021-05-11 18:51:36:313
0.253793,0.373507,9.888355,0.28342,0.405556,9.794161,0.003561,0.002386,-0.016743,135.48,-36.06,143.76,252.1354,-2.3774,-1.7106,1002.8767,55.81399,37.500244,207.794,NaN,,0.0,8.0,,23 / 26,,206,2021-05-11 18:51:36:323
0.253793,0.373507,9.888355,0.28342,0.405556,9.794161,0.003561,0.002386,-0.016743,135.48,-36.06,143.76,252.1354,-2.3774,-1.7106,1002.8767,55.81399,37.500244,207.794,NaN,,0.0,8.0,,23 / 26,,216,2021-05-11 18:51:36:333
0.28013,0.433364,9.775824,0.280843,0.405701,9.794229,0.008448,-0.002501,-0.017964,135.78,-36.24,144.42,252.1354,-2.3774,-1.7106,1002.8767,55.81399,37.500244,207.794,NaN,,0.0,8.0,,23 / 26,,226,2021-05-11 18:51:36:343
0.28013,0.433364,9.775824,0.280843,0.405701,9.794229,0.008448,-0.002501,-0.017964,135.78,-36.24,144.42,252.1354,-2.3774,-1.7106,1002.8625,55.81399,37.500244,207.794,NaN,,0.0,8.0,,23 / 26,,236,2021-05-11 18:51:36:353
0.251399,0.438152,9.761458,0.279765,0.407207,9.794197,-0.002547,-6.68E-4,-0.016743,135.54,-36.48,144.78,252.2733,-2.371,-1.6425,1002.8625,55.81399,37.500244,207.794,NaN,,0.0,8.0,,23 / 26,,246,2021-05-11 18:51:36:363
0.208302,0.438152,9.792584,0.279765,0.407207,9.794197,-0.005602,0.004219,-0.013077,135.54,-36.48,144.78,252.2733,-2.371,-1.6425,1002.8625,55.81399,37.500244,207.794,NaN,,0.0,8.0,,23 / 26,,256,2021-05-11 18:51:36:373
0.208302,0.438152,9.792584,0.27447,0.40865,9.794287,0.003561,-0.003112,-0.010023,135.36,-36.42,144.36,252.2733,-2.371,-1.6425,1002.8625,55.81399,37.500244,207.794,NaN,,0.0,8.0,,23 / 26,,266,2021-05-11 18:51:36:383
0.205908,0.438152,9.73991,0.271155,0.410325,9.79431,0.004783,-0.007388,-0.011245,135.24,-36.18,144.12,252.2733,-2.371,-1.6425,1002.8625,55.81399,37.500244,207.794,NaN,,0.0,8.0,,23 / 26,,276,2021-05-11 18:51:36:393
0.249005,0.488432,9.749487,0.271155,0.410325,9.79431,0.001118,-0.007999,-0.012467,135.24,-36.18,144.12,252.2733,-2.371,-1.6425,1002.8625,55.81399,37.500244,207.794,NaN,,0.0,8.0,,23 / 26,,286,2021-05-11 18:51:36:403
0.249005,0.488432,9.749487,0.267049,0.414766,9.794235,0.001118,-0.007999,-0.012467,135.12,-36.42,144.06,252.1604,-2.398,-1.5858,1002.8625,55.81399,37.500244,207.794,NaN,,0.0,8.0,,23 / 26,,296,2021-05-11 18:51:36:413
0.249005,0.488432,9.749487,0.267049,0.414766,9.794235,-0.011099,0.006051,-0.01491,135.12,-36.42,144.06,252.1604,-2.398,-1.5858,1002.8625,55.81399,37.500244,207.794,NaN,,0.0,8.0,,23 / 26,,306,2021-05-11 18:51:36:423
0.258582,0.478855,9.763853,0.265369,0.417345,9.794171,-0.015986,0.008495,-0.016132,135.36,-36.48,144.18,252.1604,-2.398,-1.5858,1002.8625,55.81399,37.500244,207.794,NaN,,0.0,8.0,,23 / 26,,316,2021-05-11 18:51:36:433
0.189148,0.418998,9.809344,0.260123,0.420956,9.794157,-0.031258,0.020101,-0.014299,135.42,-36.18,144.06,252.1604,-2.398,-1.5858,1002.8625,55.81399,37.500244,207.794,NaN,,0.0,8.0,,23 / 26,,326,2021-05-11 18:51:36:443
0.189148,0.418998,9.809344,0.260123,0.420956,9.794157,-0.031258,0.020101,-0.014299,135.42,-36.18,144.06,252.1604,-2.398,-1.5858,1002.8577,55.81399,37.500244,207.794,NaN,,0.0,8.0,,23 / 26,,336,2021-05-11 18:51:36:453
0.186753,0.38069,9.996098,0.251138,0.419914,9.794436,-0.016597,0.024988,-0.00819,134.82,-36.12,144.6,252.1009,-2.4602,-1.5214,1002.8577,55.81399,37.500244,207.794,NaN,,0.0,8.0,,23 / 26,,346,2021-05-11 18:51:36:463
0.186753,0.38069,9.996098,0.251138,0.419914,9.794436,-0.016597,0.024988,-0.00819,134.82,-36.12,144.6,252.1009,-2.4602,-1.5214,1002.8577,55.81399,37.500244,207.794,NaN,,0.0,8.0,,23 / 26,,356,2021-05-11 18:51:36:473
0.217879,0.38069,9.90272,0.243057,0.420416,9.794619,0.013335,0.012771,-0.008801,135.06,-36.18,144.36,252.1009,-2.4602,-1.5214,1002.8577,55.81399,37.500244,207.794,NaN,,0.0,8.0,,23 / 26,,366,2021-05-11 18:51:36:483
0.268159,0.421392,9.826104,0.241399,0.421227,9.794624,0.013946,0.002386,-0.010634,135.0,-36.0,144.0,252.1611,-2.4571,-1.4215,1002.8577,55.81399,37.500244,207.794,NaN,,0.0,8.0,,23 / 26,,376,2021-05-11 18:51:36:493
0.268159,0.421392,9.826104,0.241399,0.421227,9.794624,0.013946,0.002386,-0.010634,135.0,-36.0,144.0,252.1611,-2.4571,-1.4215,1002.8577,55.81399,37.500244,207.794,NaN,,0.0,8.0,,23 / 26,,386,2021-05-11 18:51:36:503
0.251399,0.447729,9.802161,0.239745,0.421501,9.794654,0.00234,0.01216,-0.013688,135.6,-36.06,144.0,252.1611,-2.4571,-1.4215,1002.8577,55.81399,37.500244,207.794,NaN,,0.0,8.0,,23 / 26,,396,2021-05-11 18:51:36:513
0.217879,0.450124,9.828498,0.23758,0.422038,9.794683,0.004783,0.010938,-0.013688,135.66,-36.0,143.76,252.1611,-2.4571,-1.4215,1002.8577,55.81399,37.500244,207.794,NaN,,0.0,8.0,,23 / 26,,406,2021-05-11 18:51:36:523
0.217879,0.450124,9.828498,0.23758,0.422038,9.794683,0.004783,0.011549,-0.011245,135.66,-36.0,143.76,252.1611,-2.4571,-1.4215,1002.8577,55.81399,37.500244,207.794,NaN,,0.0,8.0,,23 / 26,,416,2021-05-11 18:51:36:533
0.172388,0.447729,9.749487,0.23638,0.422473,9.794694,5.07E-4,0.013992,-0.014299,135.66,-36.78,143.76,251.8978,-2.4665,-1.3895,1002.8577,55.81399,37.500244,207.794,NaN,,0.0,8.0,,23 / 26,,426,2021-05-11 18:51:36:543
0.172388,0.447729,9.749487,0.23638,0.422473,9.794694,5.07E-4,0.013992,-0.014299,135.66,-36.78,143.76,251.8978,-2.4665,-1.3895,1002.8577,55.81399,37.500244,207.794,NaN,,0.0,8.0,,23 / 26,,436,2021-05-11 18:51:36:553
0.162811,0.41421,9.742304,0.230549,0.423947,9.794769,-7.15E-4,0.018879,-0.005136,135.42,-36.54,143.88,251.8978,-2.4665,-1.3895,1002.8577,55.81399,37.500244,207.794,NaN,,0.0,8.0,,23 / 26,,446,2021-05-11 18:51:36:563
0.217879,0.407027,9.732727,0.230549,0.423947,9.794769,-0.012321,0.024377,-8.6E-4,135.42,-36.54,143.88,251.8978,-2.4665,-1.3895,1002.8577,55.81399,37.500244,207.794,NaN,,0.0,8.0,,23 / 26,,456,2021-05-11 18:51:36:573
0.217879,0.407027,9.732727,0.222631,0.423064,9.794991,-0.011099,0.028653,-0.003304,136.08,-36.78,144.6,251.8819,-2.4777,-1.3484,1002.8577,55.81399,37.500244,207.794,NaN,,0.0,8.0,,23 / 26,,466,2021-05-11 18:51:36:583
0.237033,0.418998,9.804555,0.219267,0.421959,9.795114,-0.007434,0.015214,-0.00819,135.6,-37.2,144.78,251.8819,-2.4777,-1.3484,1002.8577,55.81399,37.500244,207.794,NaN,,0.0,8.0,,23 / 26,,476,2021-05-11 18:51:36:593
0.237033,0.418998,9.804555,0.219267,0.421959,9.795114,-0.007434,0.015214,-0.00819,135.6,-37.2,144.78,251.8819,-2.4777,-1.3484,1002.8577,55.81399,37.500244,207.794,NaN,,0.0,8.0,,23 / 26,,486,2021-05-11 18:51:36:603
0.277736,0.457306,9.780613,0.216506,0.421486,9.795196,-0.006212,0.016436,-0.008801,135.48,-36.12,145.14,251.8819,-2.4777,-1.3484,1002.8577,55.81399,37.500244,207.794,NaN,,0.0,8.0,,23 / 26,,496,2021-05-11 18:51:36:613
0.196331,0.404632,9.840469,0.21626,0.421584,9.795197,-0.008045,0.024377,-0.010023,134.88,-35.94,144.54,252.1917,-2.4633,-1.2662,1002.8577,55.81399,37.500244,207.794,NaN,,0.0,8.0,,23 / 26,,506,2021-05-11 18:51:36:623
0.196331,0.404632,9.840469,0.21626,0.421584,9.795197,-0.008045,0.024377,-0.010023,134.88,-35.94,144.54,252.1917,-2.4633,-1.2662,1002.8577,55.81399,37.500244,207.794,NaN,,0.0,8.0,,23 / 26,,516,2021-05-11 18:51:36:633
0.146051,0.390267,9.794978,0.212763,0.420136,9.795336,-0.015986,0.02621,-8.6E-4,135.12,-36.3,144.6,252.1917,-2.4633,-1.2662,1002.864,55.81399,37.500244,207.794,NaN,,0.0,8.0,,23 / 26,,526,2021-05-11 18:51:36:643
0.146051,0.390267,9.794978,0.212763,0.420136,9.795336,-0.015986,0.02621,-8.6E-4,135.12,-36.3,144.6,252.1917,-2.4633,-1.2662,1002.864,55.81399,37.500244,207.794,NaN,,0.0,8.0,,23 / 26,,536,2021-05-11 18:51:36:653
0.158022,0.38069,9.838076,0.205161,0.416676,9.795646,-0.004991,0.027432,0.004027,135.66,-36.78,144.84,251.9424,-2.4554,-1.2443,1002.864,55.81399,37.500244,207.794,NaN,,0.0,8.0,,23 / 26,,546,2021-05-11 18:51:36:663
0.158022,0.38069,9.838076,0.205161,0.416676,9.795646,-0.004991,0.027432,0.004027,135.66,-36.78,144.84,251.9424,-2.4554,-1.2443,1002.864,55.81399,37.500244,207.794,NaN,,0.0,8.0,,23 / 26,,556,2021-05-11 18:51:36:673
0.205908,0.383084,9.799767,0.198938,0.414024,9.795887,0.00234,0.015214,0.007081,135.6,-36.12,144.54,251.9424,-2.4554,-1.2443,1002.864,55.81399,37.500244,207.794,NaN,,0.0,8.0,,23 / 26,,566,2021-05-11 18:51:36:683
0.232245,0.402238,9.828498,0.197415,0.412753,9.795972,0.003561,0.010327,0.007692,135.78,-36.06,144.66,252.3977,-2.4197,-1.1634,1002.864,55.81399,37.500244,207.794,NaN,,0.0,8.0,,23 / 26,,575,2021-05-11 18:51:36:692
0.232245,0.402238,9.828498,0.197415,0.412753,9.795972,0.003561,0.010327,0.007692,135.78,-36.06,144.66,252.3977,-2.4197,-1.1634,1002.864,55.81399,37.500244,207.794,NaN,,0.0,8.0,,23 / 26,,586,2021-05-11 18:51:36:703
0.196331,0.423787,9.80695,0.196445,0.410731,9.796076,-0.001326,0.009716,0.004638,135.96,-36.0,144.96,252.3977,-2.4197,-1.1634,1002.864,55.81399,37.500244,207.794,NaN,,0.0,8.0,,23 / 26,,596,2021-05-11 18:51:36:713
0.196331,0.423787,9.80695,0.196445,0.410731,9.796076,-0.001326,0.009716,0.004638,135.96,-36.0,144.96,252.3977,-2.4197,-1.1634,1002.864,55.81399,37.500244,207.794,NaN,,0.0,8.0,,23 / 26,,606,2021-05-11 18:51:36:723
0.198725,0.41421,9.778218,0.194376,0.408264,9.79622,-0.004991,0.014603,0.007692,136.68,-36.84,144.3,252.3977,-2.4197,-1.1634,1002.864,55.81399,37.500244,207.794,NaN,,0.0,8.0,,23 / 26,,616,2021-05-11 18:51:36:733
0.28013,0.41421,9.816526,0.194846,0.407743,9.796232,-0.001936,0.015214,-0.003914,136.32,-37.08,143.88,252.0694,-2.386,-1.1367,1002.864,55.81399,37.500244,207.794,NaN,,0.0,8.0,,23 / 26,,626,2021-05-11 18:51:36:743
0.28013,0.41421,9.816526,0.194846,0.407743,9.796232,-0.001936,0.015214,-0.003914,136.32,-37.08,143.88,252.0694,-2.386,-1.1367,1002.8604,55.81399,37.500244,207.794,NaN,,0.0,8.0,,23 / 26,,635,2021-05-11 18:51:36:752
0.208302,0.426181,9.766247,0.197688,0.408156,9.796159,0.010281,-5.7E-5,-0.006969,135.96,-36.66,144.42,252.0694,-2.386,-1.1367,1002.8604,55.81399,37.500244,207.794,NaN,,0.0,8.0,,23 / 26,,646,2021-05-11 18:51:36:763
0.172388,0.538712,9.699207,0.197688,0.408156,9.796159,0.014557,0.002386,0.004027,135.96,-36.66,144.42,252.0694,-2.386,-1.1367,1002.8604,55.81399,37.500244,207.794,NaN,,0.0,8.0,,23 / 26,,656,2021-05-11 18:51:36:773
0.172388,0.538712,9.699207,0.200645,0.412857,9.7959,0.014557,0.002386,0.004027,135.42,-36.42,144.78,252.3101,-2.3854,-1.1561,1002.8604,55.81399,37.500244,207.794,NaN,,0.0,8.0,,23 / 26,,666,2021-05-11 18:51:36:783
0.110137,0.471672,9.672871,0.200624,0.417433,9.795708,-0.001326,0.013992,0.004027,135.78,-36.36,144.78,252.3101,-2.3854,-1.1561,1002.8604,55.81399,37.500244,207.794,NaN,,0.0,8.0,,23 / 26,,676,2021-05-11 18:51:36:793
0.110137,0.471672,9.672871,0.200624,0.417433,9.795708,-0.034312,0.022545,0.015633,135.78,-36.36,144.78,252.3101,-2.3854,-1.1561,1002.8604,55.81399,37.500244,207.794,NaN,,0.0,8.0,,23 / 26,,686,2021-05-11 18:51:36:803
0.064645,0.41421,9.792584,0.193768,0.42209,9.795646,-0.040421,0.023155,0.007081,136.44,-36.72,144.3,252.3101,-2.3854,-1.1561,1002.8604,55.81399,37.500244,207.794,NaN,,0.0,8.0,,23 / 26,,696,2021-05-11 18:51:36:813
0.114925,0.438152,10.005674,0.193768,0.42209,9.795646,-0.031258,0.021323,0.007692,135.78,-36.96,144.3,251.991,-2.4668,-1.1332,1002.8604,55.81399,37.500244,207.794,NaN,,0.0,8.0,,23 / 26,,706,2021-05-11 18:51:36:823
0.114925,0.438152,10.005674,0.181368,0.419224,9.796006,-0.031258,0.021323,0.007692,135.78,-36.96,144.3,251.991,-2.4668,-1.1332,1002.8604,55.81399,37.500244,207.794,NaN,,0.0,8.0,,23 / 26,,716,2021-05-11 18:51:36:833
0.220273,0.411815,9.96976,0.176481,0.419056,9.796103,-1.04E-4,0.007273,0.002805,135.78,-36.78,144.6,251.991,-2.4668,-1.1332,1002.8604,55.81399,37.500244,207.794,NaN,,0.0,8.0,,23 / 26,,726,2021-05-11 18:51:36:843
0.220273,0.411815,9.96976,0.176481,0.419056,9.796103,-1.04E-4,0.007273,0.002805,135.78,-36.78,144.6,251.991,-2.4668,-1.1332,1002.8604,55.81399,37.500244,207.794,NaN,,0.0,8.0,,23 / 26,,736,2021-05-11 18:51:36:853
0.179571,0.445335,9.873989,0.173488,0.422227,9.796021,0.018833,-0.00189,-8.6E-4,135.48,-36.66,144.36,251.991,-2.4668,-1.1332,1002.8604,55.81399,37.500244,207.794,NaN,,0.0,8.0,,23 / 26,,747,2021-05-11 18:51:36:864
0.179571,0.445335,9.873989,0.173488,0.422227,9.796021,0.018833,-0.00189,-8.6E-4,135.48,-36.66,144.36,251.991,-2.4668,-1.1332,1002.8604,55.81399,37.500244,207.794,NaN,,0.0,8.0,,23 / 26,,757,2021-05-11 18:51:36:874
0.143657,0.430969,9.814133,0.173963,0.425974,9.79585,0.020666,-0.007999,0.007081,136.14,-36.9,144.48,252.0332,-2.4676,-1.0146,1002.8604,55.81399,37.500244,207.794,NaN,,0.0,8.0,,23 / 26,,767,2021-05-11 18:51:36:884
0.169994,0.423787,9.814133,0.173559,0.427441,9.795793,0.017,-0.002501,0.007081,136.38,-37.32,144.18,252.0332,-2.4676,-1.0146,1002.8604,55.81399,37.500244,207.794,NaN,,0.0,8.0,,23 / 26,,776,2021-05-11 18:51:36:893
0.169994,0.423787,9.814133,0.173559,0.427441,9.795793,0.017,-0.002501,0.007081,136.38,-37.32,144.18,252.0332,-2.4676,-1.0146,1002.8604,55.81399,37.500244,207.794,NaN,,0.0,8.0,,23 / 26,,787,2021-05-11 18:51:36:904
0.186753,0.474066,9.804555,0.172813,0.429724,9.795706,0.018833,0.002386,-0.002082,136.62,-37.32,144.96,252.0332,-2.4676,-1.0146,1002.8604,55.81399,37.500244,207.794,NaN,,0.0,8.0,,23 / 26,,796,2021-05-11 18:51:36:913
0.186753,0.474066,9.804555,0.172813,0.429724,9.795706,0.018833,0.002386,-0.002082,136.62,-37.32,144.96,252.0332,-2.4676,-1.0146,1002.8604,55.81399,37.500244,207.794,NaN,,0.0,8.0,,23 / 26,,806,2021-05-11 18:51:36:923
0.217879,0.459701,9.72315,0.173939,0.433866,9.795504,0.012113,-5.7E-5,-0.010634,136.2,-36.84,145.2,251.9723,-2.5115,-1.0107,1002.8604,55.81399,37.500244,207.794,NaN,,0.0,8.0,,23 / 26,,817,2021-05-11 18:51:36:934
0.150839,0.509981,9.699207,0.174527,0.43637,9.795382,0.00234,0.013382,-0.012467,136.08,-36.72,145.08,251.9723,-2.5115,-1.0107,1002.8604,55.81399,37.500244,207.794,NaN,,0.0,8.0,,23 / 26,,826,2021-05-11 18:51:36:943
0.150839,0.509981,9.699207,0.174527,0.43637,9.795382,0.00234,0.013382,-0.012467,136.08,-36.72,145.08,251.9723,-2.5115,-1.0107,1002.8601,55.81399,37.500244,207.794,NaN,,0.0,8.0,,23 / 26,,836,2021-05-11 18:51:36:953
0.143657,0.478855,9.672871,0.172725,0.441276,9.795194,-0.009878,0.010327,-0.005747,135.84,-36.96,144.96,251.9723,-2.5115,-1.0107,1002.8601,55.81399,37.500244,207.794,NaN,,0.0,8.0,,23 / 26,,846,2021-05-11 18:51:36:963
0.143657,0.478855,9.672871,0.172725,0.441276,9.795194,-0.009878,0.010327,-0.005747,135.84,-36.96,144.96,251.9723,-2.5115,-1.0107,1002.8601,55.81399,37.500244,207.794,NaN,,0.0,8.0,,23 / 26,,856,2021-05-11 18:51:36:973
0.167599,0.481249,9.715967,0.169318,0.445066,9.795082,-0.020262,0.015214,-0.004525,135.84,-37.26,144.78,251.9059,-2.579,-1.0102,1002.8601,55.81399,37.500244,207.794,NaN,,0.0,8.0,,23 / 26,,866,2021-05-11 18:51:36:983
0.234639,0.442941,9.850046,0.169318,0.445066,9.795082,-0.033701,0.021934,-0.013077,135.84,-37.26,144.78,251.9059,-2.579,-1.0102,1002.8601,55.81399,37.500244,207.794,NaN,,0.0,8.0,,23 / 26,,876,2021-05-11 18:51:36:993
0.234639,0.442941,9.850046,0.168322,0.444897,9.795107,-0.033701,0.021934,-0.013077,135.42,-36.84,144.6,251.9059,-2.579,-1.0102,1002.8601,55.81399,37.500244,207.794,NaN,,0.0,8.0,,23 / 26,,887,2021-05-11 18:51:37:004
0.148445,0.385478,9.900327,0.168095,0.443873,9.795157,-0.01843,0.013382,-0.013688,135.18,-36.72,144.84,251.9059,-2.579,-1.0102,1002.8601,55.81399,37.500244,207.794,NaN,,0.0,8.0,,23 / 26,,896,2021-05-11 18:51:37:013
0.090982,0.402238,9.859624,0.168379,0.442692,9.795206,0.00967,-0.009831,-0.013688,135.72,-36.96,145.2,251.9008,-2.5942,-0.9832,1002.8601,55.81399,37.500244,207.794,NaN,,0.0,8.0,,23 / 26,,906,2021-05-11 18:51:37:023
0.090982,0.402238,9.859624,0.168379,0.442692,9.795206,0.00967,-0.009831,-0.013688,135.72,-36.96,145.2,251.9008,-2.5942,-0.9832,1002.8601,55.81399,37.500244,207.794,NaN,,0.0,8.0,,23 / 26,,917,2021-05-11 18:51:37:034
0.055068,0.421392,9.73991,0.167324,0.442683,9.795224,0.008448,-0.003723,-0.003914,136.5,-36.96,145.32,251.9008,-2.5942,-0.9832,1002.8674,55.81399,37.500244,207.794,NaN,,0.0,8.0,,23 / 26,,926,2021-05-11 18:51:37:043
0.055068,0.421392,9.73991,0.167324,0.442683,9.795224,0.008448,-0.003723,-0.003914,136.5,-36.96,145.32,251.9008,-2.5942,-0.9832,1002.8674,55.81399,37.500244,207.794,NaN,,0.0,8.0,,23 / 26,,936,2021-05-11 18:51:37:053
0.088588,0.457306,9.708784,0.159815,0.441113,9.795421,-0.013543,0.003608,-0.003914,136.26,-36.72,144.3,251.9008,-2.5942,-0.9832,1002.8674,55.81399,37.500244,207.794,NaN,,0.0,8.0,,23 / 26,,947,2021-05-11 18:51:37:064
0.088588,0.457306,9.708784,0.159815,0.441113,9.795421,-0.013543,0.003608,-0.003914,136.26,-36.72,144.3,251.9008,-2.5942,-0.9832,1002.8674,55.81399,37.500244,207.794,NaN,,0.0,8.0,,23 / 26,,956,2021-05-11 18:51:37:073
0.119714,0.462095,9.763853,0.150478,0.437982,9.795709,-0.022706,0.006662,-0.003914,135.84,-36.54,143.82,251.954,-2.5781,-0.9347,1002.8674,55.81399,37.500244,207.794,NaN,,0.0,8.0,,23 / 26,,967,2021-05-11 18:51:37:084
0.079011,0.445335,9.768641,0.150478,0.437982,9.795709,-0.019652,0.004219,-0.003304,135.84,-36.54,143.82,251.954,-2.5781,-0.9347,1002.8674,55.81399,37.500244,207.794,NaN,,0.0,8.0,,23 / 26,,976,2021-05-11 18:51:37:093
0.079011,0.445335,9.768641,0.14255,0.435771,9.795926,-0.019652,0.004219,-0.003304,135.84,-37.32,144.9,251.954,-2.5781,-0.9347,1002.8674,55.81399,37.500244,207.794,NaN,,0.0,8.0,,23 / 26,,986,2021-05-11 18:51:37:103
0.088588,0.442941,9.823709,0.138396,0.435322,9.796005,-0.015375,0.009106,0.004027,135.24,-36.66,145.08,251.954,-2.5781,-0.9347,1002.8674,55.81399,37.500244,207.794,NaN,,0.0,8.0,,23 / 26,,997,2021-05-11 18:51:37:114
0.129291,0.452518,9.816526,0.129851,0.43498,9.796138,-0.01171,0.017658,0.003416,135.6,-36.9,144.9,252.0133,-2.5442,-0.8094,1002.8674,55.81399,37.500244,207.794,NaN,,0.0,8.0,,23 / 26,,1008,2021-05-11 18:51:37:125
0.129291,0.452518,9.816526,0.129851,0.43498,9.796138,-0.01171,0.017658,0.003416,135.6,-36.9,144.9,252.0133,-2.5442,-0.8094,1002.8674,55.81399,37.500244,207.794,NaN,,0.0,8.0,,23 / 26,,1016,2021-05-11 18:51:37:133
0.150839,0.428575,9.794978,0.126899,0.435172,9.796168,-0.01171,0.009716,-0.001471,136.2,-36.36,144.66,252.0133,-2.5442,-0.8094,1002.8674,55.81399,37.500244,207.794,NaN,,0.0,8.0,,23 / 26,,1026,2021-05-11 18:51:37:143
0.150839,0.428575,9.794978,0.126899,0.435172,9.796168,-0.006823,0.006051,-0.004525,136.2,-36.36,144.66,252.0133,-2.5442,-0.8094,1002.8674,55.81399,37.500244,207.794,NaN,,0.0,8.0,,23 / 26,,1036,2021-05-11 18:51:37:153
0.153234,0.440547,9.818921,0.12442,0.434851,9.796214,-0.007434,0.004219,-0.004525,136.38,-36.9,143.94,252.0133,-2.5442,-0.8094,1002.8674,55.81399,37.500244,207.794,NaN,,0.0,8.0,,23 / 26,,1046,2021-05-11 18:51:37:163
0.193936,0.435758,9.737515,0.125029,0.43446,9.796224,-0.010489,0.006051,-0.004525,135.9,-37.14,144.12,252.0643,-2.5415,-0.7277,1002.8674,55.81399,37.500244,207.794,NaN,,0.0,8.0,,23 / 26,,1056,2021-05-11 18:51:37:173
0.193936,0.435758,9.737515,0.125029,0.43446,9.796224,-0.010489,0.006051,-0.004525,135.9,-37.14,144.12,252.0643,-2.5415,-0.7277,1002.8674,55.81399,37.500244,207.794,NaN,,0.0,8.0,,23 / 26,,1066,2021-05-11 18:51:37:183
0.193936,0.435758,9.737515,0.125029,0.43446,9.796224,-0.010489,0.006051,-0.004525,135.9,-37.14,144.12,252.0643,-2.5415,-0.7277,1002.8674,55.81399,37.500244,207.794,NaN,,0.0,8.0,,23 / 26,,1075,2021-05-11 18:51:37:192
0.119714,0.41421,9.754275,0.125781,0.433489,9.796257,-0.028204,0.025599,-0.009412,135.6,-36.84,144.06,252.0643,-2.5415,-0.7277,1002.8674,55.81399,37.500244,207.794,NaN,,0.0,8.0,,23 / 26,,1086,2021-05-11 18:51:37:203
0.131685,0.371113,9.888355,0.125781,0.433489,9.796257,-0.028204,0.028042,-0.004525,135.6,-36.84,144.06,252.0643,-2.5415,-0.7277,1002.8674,55.81399,37.500244,207.794,NaN,,0.0,8.0,,23 / 25,,1096,2021-05-11 18:51:37:213
0.131685,0.371113,9.888355,0.122057,0.425044,9.796675,-0.028204,0.028042,-0.004525,135.42,-36.66,145.5,251.9058,-2.5335,-0.7356,1002.8674,55.81399,37.500244,207.794,NaN,,0.0,8.0,,23 / 25,,1106,2021-05-11 18:51:37:223
0.167599,0.36393,9.876384,0.122057,0.425044,9.796675,-0.015986,0.016436,-0.003304,135.42,-36.66,145.5,251.9058,-2.5335,-0.7356,1002.8674,55.81399,37.500244,207.794,NaN,,0.0,8.0,,23 / 25,,1116,2021-05-11 18:51:37:233
0.203513,0.378295,9.847652,0.123764,0.420185,9.796863,0.008448,-5.7E-5,-0.008801,135.72,-36.72,145.38,251.9058,-2.5335,-0.7356,1002.8674,55.81399,37.500244,207.794,NaN,,0.0,8.0,,23 / 25,,1126,2021-05-11 18:51:37:243
0.203513,0.378295,9.847652,0.123764,0.420185,9.796863,0.008448,-5.7E-5,-0.008801,135.72,-36.72,145.38,251.9058,-2.5335,-0.7356,1002.865,55.81399,37.500244,207.794,NaN,,0.0,8.0,,23 / 25,,1136,2021-05-11 18:51:37:253
0.21309,0.402238,9.718362,0.131957,0.418682,9.79682,0.003561,5.53E-4,-0.020408,136.2,-36.9,144.42,252.149,-2.4557,-0.7238,1002.865,55.81399,37.500244,207.794,NaN,,0.0,8.0,,23 / 25,,1145,2021-05-11 18:51:37:262
0.21309,0.402238,9.718362,0.131957,0.418682,9.79682,0.003561,5.53E-4,-0.020408,136.2,-36.9,144.42,252.149,-2.4557,-0.7238,1002.865,55.81399,37.500244,207.794,NaN,,0.0,8.0,,23 / 25,,1156,2021-05-11 18:51:37:273
0.114925,0.442941,9.653716,0.139356,0.415788,9.79684,-0.013543,0.004219,-0.017964,136.26,-36.78,144.0,252.149,-2.4557,-0.7238,1002.865,55.81399,37.500244,207.794,NaN,,0.0,8.0,,23 / 25,,1167,2021-05-11 18:51:37:284
0.081405,0.428575,9.742304,0.141288,0.414392,9.796872,-0.023317,0.007884,-0.010634,135.96,-36.78,144.12,252.149,-2.4557,-0.7238,1002.865,55.81399,37.500244,207.794,NaN,,0.0,8.0,,23 / 25,,1176,2021-05-11 18:51:37:293
0.081405,0.428575,9.742304,0.141288,0.414392,9.796872,-0.023317,0.007884,-0.010634,135.96,-36.78,144.12,252.149,-2.4557,-0.7238,1002.865,55.81399,37.500244,207.794,NaN,,0.0,8.0,,23 / 25,,1186,2021-05-11 18:51:37:303
0.057463,0.41421,9.763853,0.140157,0.411097,9.797028,-0.016597,0.001164,-0.010023,136.14,-36.3,144.36,252.5337,-2.4218,-0.8262,1002.865,55.81399,37.500244,207.794,NaN,,0.0,8.0,,23 / 25,,1196,2021-05-11 18:51:37:313
0.057463,0.41421,9.763853,0.140157,0.411097,9.797028,-0.016597,0.001164,-0.010023,136.14,-36.3,144.36,252.5337,-2.4218,-0.8262,1002.865,55.81399,37.500244,207.794,NaN,,0.0,8.0,,23 / 25,,1206,2021-05-11 18:51:37:323
0.086194,0.373507,9.823709,0.137418,0.409061,9.797152,-0.015986,-0.009831,-0.00758,136.14,-36.3,144.54,252.5337,-2.4218,-0.8262,1002.865,55.81399,37.500244,207.794,NaN,,0.0,8.0,,23 / 25,,1216,2021-05-11 18:51:37:333
0.071828,0.387873,9.866806,0.135794,0.406987,9.79726,-0.023317,-0.00189,-0.011856,136.32,-36.96,144.36,252.5337,-2.4218,-0.8262,1002.865,55.81399,37.500244,207.794,NaN,,0.0,8.0,,23 / 25,,1226,2021-05-11 18:51:37:343
0.071828,0.387873,9.866806,0.135794,0.406987,9.79726,-0.023317,-0.00189,-0.011856,136.32,-36.96,144.36,252.5337,-2.4218,-0.8262,1002.865,55.81399,37.500244,207.794,NaN,,0.0,8.0,,23 / 25,,1236,2021-05-11 18:51:37:353
0.112531,0.354353,9.941029,0.129534,0.401337,9.797578,-0.014154,0.001775,-0.006358,136.5,-36.84,144.36,252.3226,-2.3785,-0.7941,1002.865,55.81399,37.500244,207.794,NaN,,0.0,8.0,,23 / 25,,1246,2021-05-11 18:51:37:363
0.112531,0.354353,9.941029,0.129534,0.401337,9.797578,-0.014154,0.001775,-0.006358,136.5,-36.84,144.36,252.3226,-2.3785,-0.7941,1002.865,55.81399,37.500244,207.794,NaN,,0.0,8.0,,23 / 25,,1256,2021-05-11 18:51:37:373
0.131685,0.351958,9.933846,0.124287,0.39577,9.797873,-0.009878,0.004219,-0.006969,136.68,-36.06,144.66,252.3226,-2.3785,-0.7941,1002.865,55.81399,37.500244,207.794,NaN,,0.0,8.0,,23 / 25,,1266,2021-05-11 18:51:37:383
0.081405,0.356747,9.833286,0.120816,0.392911,9.798031,-0.001936,0.011549,-0.006358,136.38,-36.24,144.72,252.6577,-2.3129,-0.7268,1002.865,55.81399,37.500244,207.794,NaN,,0.0,8.0,,23 / 25,,1276,2021-05-11 18:51:37:393
0.081405,0.356747,9.833286,0.120816,0.392911,9.798031,-0.001936,0.011549,-0.006358,136.38,-36.24,144.72,252.6577,-2.3129,-0.7268,1002.865,55.81399,37.500244,207.794,NaN,,0.0,8.0,,23 / 25,,1286,2021-05-11 18:51:37:403
0.110137,0.433364,9.759064,0.115912,0.388728,9.798257,-0.003769,-0.001279,-0.00758,136.5,-36.72,144.36,252.6577,-2.3129,-0.7268,1002.865,55.81399,37.500244,207.794,NaN,,0.0,8.0,,23 / 25,,1296,2021-05-11 18:51:37:413
0.110137,0.433364,9.759064,0.115912,0.388728,9.798257,-0.003769,-0.001279,-0.00758,136.5,-36.72,144.36,252.6577,-2.3129,-0.7268,1002.865,55.81399,37.500244,207.794,NaN,,0.0,8.0,,23 / 25,,1306,2021-05-11 18:51:37:423
0.184359,0.41421,9.766247,0.114282,0.387418,9.798327,-0.009267,-5.7E-5,-0.006358,136.74,-37.26,144.9,252.6577,-2.3129,-0.7268,1002.865,55.81399,37.500244,207.794,NaN,,0.0,8.0,,23 / 25,,1317,2021-05-11 18:51:37:434
0.184359,0.41421,9.766247,0.114282,0.387418,9.798327,-0.009267,-5.7E-5,-0.006358,136.74,-37.26,144.9,252.6577,-2.3129,-0.7268,1002.865,55.81399,37.500244,207.794,NaN,,0.0,8.0,,23 / 25,,1326,2021-05-11 18:51:37:443
0.191542,0.378295,9.718362,0.114794,0.386883,9.798343,-0.008045,-0.012886,-0.010634,136.62,-36.84,145.26,252.4606,-2.2641,-0.6682,1002.8625,55.81399,37.500244,207.794,NaN,,0.0,8.0,,23 / 25,,1336,2021-05-11 18:51:37:453
0.117319,0.383084,9.847652,0.120757,0.385998,9.798306,-0.007434,-0.00861,-0.019797,136.32,-36.78,144.6,252.4606,-2.2641,-0.6682,1002.8625,55.81399,37.500244,207.794,NaN,,0.0,8.0,,23 / 25,,1346,2021-05-11 18:51:37:463
0.117319,0.383084,9.847652,0.120757,0.385998,9.798306,-0.007434,-0.00861,-0.019797,136.32,-36.78,144.6,252.4606,-2.2641,-0.6682,1002.8625,55.81399,37.500244,207.794,NaN,,0.0,8.0,,23 / 25,,1356,2021-05-11 18:51:37:473
0.01676,0.399844,9.689631,0.120982,0.386657,9.798278,-0.003769,0.003608,-0.00819,135.48,-36.9,143.88,252.4606,-2.2641,-0.6682,1002.8625,55.81399,37.500244,207.794,NaN,,0.0,8.0,,23 / 25,,1366,2021-05-11 18:51:37:483
0.031126,0.332804,9.682447,0.118035,0.385923,9.798343,-0.037367,0.028042,-0.004525,135.3,-37.02,144.3,252.2217,-2.2596,-0.7074,1002.8625,55.81399,37.500244,207.794,NaN,,0.0,8.0,,23 / 25,,1376,2021-05-11 18:51:37:493
0.031126,0.332804,9.682447,0.118035,0.385923,9.798343,-0.037367,0.028042,-0.004525,135.3,-37.02,144.3,252.2217,-2.2596,-0.7074,1002.8625,55.81399,37.500244,207.794,NaN,,0.0,8.0,,23 / 25,,1386,2021-05-11 18:51:37:503
-0.062251,0.275342,9.912297,0.105351,0.377323,9.798822,-0.044697,0.032929,-0.003914,135.48,-37.02,144.78,252.2217,-2.2596,-0.7074,1002.8625,55.81399,37.500244,207.794,NaN,,0.0,8.0,,23 / 25,,1396,2021-05-11 18:51:37:513
-0.062251,0.275342,9.912297,0.105351,0.377323,9.798822,-0.044697,0.032929,-0.003914,135.48,-37.02,144.78,252.2217,-2.2596,-0.7074,1002.8625,55.81399,37.500244,207.794,NaN,,0.0,8.0,,23 / 25,,1406,2021-05-11 18:51:37:523
0.055068,0.349564,9.90272,0.092273,0.367636,9.799322,-0.020873,-0.001279,3.62E-4,136.08,-36.66,145.08,252.4144,-2.2051,-0.616,1002.8625,55.81399,37.500244,207.794,NaN,,0.0,8.0,,23 / 25,,1415,2021-05-11 18:51:37:532
0.165205,0.399844,9.816526,0.092273,0.367636,9.799322,-0.009267,-0.013496,-0.005747,136.08,-36.66,145.08,252.4144,-2.2051,-0.616,1002.8625,55.81399,37.500244,207.794,NaN,,0.0,8.0,,23 / 25,,1426,2021-05-11 18:51:37:543
0.165205,0.399844,9.816526,0.089351,0.365081,9.799445,-0.009267,-0.013496,-0.005747,136.5,-36.3,145.38,252.4144,-2.2051,-0.616,1002.8721,55.81399,37.500244,207.794,NaN,,0.0,8.0,,23 / 25,,1436,2021-05-11 18:51:37:553
0.158022,0.354353,9.80695,0.09246,0.363372,9.799479,-0.015986,-0.010442,-0.002082,136.2,-36.66,145.26,252.5169,-2.1335,-0.5224,1002.8721,55.81399,37.500244,207.794,NaN,,0.0,8.0,,23 / 25,,1446,2021-05-11 18:51:37:563
0.158022,0.354353,9.80695,0.09246,0.363372,9.799479,-0.014765,-0.00189,0.001583,136.2,-36.66,145.26,252.5169,-2.1335,-0.5224,1002.8721,55.81399,37.500244,207.794,NaN,,0.0,8.0,,23 / 25,,1456,2021-05-11 18:51:37:573
0.107742,0.28013,9.960183,0.093836,0.361329,9.799541,-0.012932,-6.68E-4,3.62E-4,136.02,-36.66,145.38,252.5169,-2.1335,-0.5224,1002.8721,55.81399,37.500244,207.794,NaN,,0.0,8.0,,23 / 25,,1466,2021-05-11 18:51:37:583
0.107742,0.28013,9.960183,0.093836,0.361329,9.799541,-0.012932,-6.68E-4,3.62E-4,136.02,-36.66,145.38,252.5169,-2.1335,-0.5224,1002.8721,55.81399,37.500244,207.794,NaN,,0.0,8.0,,23 / 25,,1476,2021-05-11 18:51:37:593
0.124502,0.241822,10.015251,0.097113,0.355124,9.799737,0.006005,-0.00189,0.005249,136.32,-36.48,145.2,252.5169,-2.1335,-0.5224,1002.8721,55.81399,37.500244,207.794,NaN,,0.0,8.0,,23 / 25,,1487,2021-05-11 18:51:37:604
0.165205,0.277736,9.941029,0.098741,0.352137,9.799829,0.029829,-5.7E-5,0.007692,136.14,-36.36,145.26,252.9464,-2.0753,-0.5678,1002.8721,55.81399,37.500244,207.794,NaN,,0.0,8.0,,23 / 25,,1497,2021-05-11 18:51:37:614
0.165205,0.277736,9.941029,0.098741,0.352137,9.799829,0.029829,-5.7E-5,0.007692,136.14,-36.36,145.26,252.9464,-2.0753,-0.5678,1002.8721,55.81399,37.500244,207.794,NaN,,0.0,8.0,,23 / 25,,1506,2021-05-11 18:51:37:623
0.249005,0.368718,9.687236,0.105674,0.347695,9.799914,0.018222,-0.002501,-0.003914,135.9,-36.48,145.92,252.9464,-2.0753,-0.5678,1002.8721,55.81399,37.500244,207.794,NaN,,0.0,8.0,,23 / 25,,1516,2021-05-11 18:51:37:633
0.172388,0.438152,9.699207,0.110578,0.345292,9.799946,-0.015986,0.010938,-0.019186,135.84,-36.9,146.1,252.9464,-2.0753,-0.5678,1002.8721,55.81399,37.500244,207.794,NaN,,0.0,8.0,,23 / 25,,1526,2021-05-11 18:51:37:643
0.172388,0.438152,9.699207,0.110578,0.345292,9.799946,-0.015986,0.010938,-0.019186,135.84,-36.9,146.1,252.9464,-2.0753,-0.5678,1002.8726,55.81399,37.500244,207.794,NaN,,0.0,8.0,,23 / 25,,1536,2021-05-11 18:51:37:653
0.038308,0.361536,9.759064,0.115824,0.341441,9.80002,-0.030036,0.020101,-0.005136,136.02,-37.14,144.9,252.5877,-2.0178,-0.6465,1002.8726,55.81399,37.500244,207.794,NaN,,0.0,8.0,,23 / 25,,1546,2021-05-11 18:51:37:663
0.038308,0.361536,9.759064,0.115824,0.341441,9.80002,-0.030036,0.020101,-0.005136,136.02,-37.14,144.9,252.5877,-2.0178,-0.6465,1002.8726,55.81399,37.500244,207.794,NaN,,0.0,8.0,,23 / 25,,1556,2021-05-11 18:51:37:673
0.045491,0.311256,9.828498,0.113961,0.338312,9.80015,-0.014154,0.015214,0.002805,136.32,-36.9,145.02,252.5877,-2.0178,-0.6465,1002.8726,55.81399,37.500244,207.794,NaN,,0.0,8.0,,23 / 25,,1565,2021-05-11 18:51:37:682
0.150839,0.311256,9.816526,0.113961,0.338312,9.80015,-0.006212,0.011549,0.004027,136.32,-36.9,145.02,252.5877,-2.0178,-0.6465,1002.8726,55.81399,37.500244,207.794,NaN,,0.0,8.0,,23 / 25,,1576,2021-05-11 18:51:37:693
0.150839,0.311256,9.816526,0.110925,0.336018,9.800263,-0.006212,0.011549,0.004027,136.5,-36.72,145.86,252.727,-1.977,-0.6662,1002.8726,55.81399,37.500244,207.794,NaN,,0.0,8.0,,23 / 25,,1586,2021-05-11 18:51:37:703
0.160416,0.258582,9.859624,0.111322,0.334566,9.800309,-0.009267,0.00483,-2.49E-4,136.56,-36.96,145.98,252.727,-1.977,-0.6662,1002.8726,55.81399,37.500244,207.794,NaN,,0.0,8.0,,23 / 25,,1596,2021-05-11 18:51:37:713
0.160416,0.258582,9.859624,0.111322,0.334566,9.800309,-0.007434,0.00483,-8.6E-4,136.56,-36.96,145.98,252.727,-1.977,-0.6662,1002.8726,55.81399,37.500244,207.794,NaN,,0.0,8.0,,23 / 25,,1606,2021-05-11 18:51:37:723
0.150839,0.282524,9.941029,0.114227,0.328277,9.800488,0.00234,0.001164,-0.003304,136.26,-37.32,145.44,252.727,-1.977,-0.6662,1002.8726,55.81399,37.500244,207.794,NaN,,0.0,8.0,,23 / 25,,1616,2021-05-11 18:51:37:733
0.059857,0.277736,9.835681,0.115645,0.325335,9.80057,0.010281,-0.002501,-0.001471,135.84,-37.26,145.02,252.6925,-1.9011,-0.676,1002.8726,55.81399,37.500244,207.794,NaN,,0.0,8.0,,23 / 25,,1627,2021-05-11 18:51:37:744
0.059857,0.277736,9.835681,0.115645,0.325335,9.80057,0.010281,-0.002501,-0.001471,135.84,-37.26,145.02,252.6925,-1.9011,-0.676,1002.8726,55.81399,37.500244,207.794,NaN,,0.0,8.0,,23 / 25,,1636,2021-05-11 18:51:37:753
0.043097,0.301679,9.759064,0.115685,0.322023,9.800678,0.010892,-0.013496,0.00647,136.02,-37.14,144.48,252.6925,-1.9011,-0.676,1002.8726,55.81399,37.500244,207.794,NaN,,0.0,8.0,,23 / 25,,1646,2021-05-11 18:51:37:763
0.043097,0.301679,9.759064,0.115685,0.322023,9.800678,0.010892,-0.013496,0.00647,136.02,-37.14,144.48,252.6925,-1.9011,-0.676,1002.8726,55.81399,37.500244,207.794,NaN,,0.0,8.0,,23 / 25,,1656,2021-05-11 18:51:37:773
0.076617,0.368718,9.72315,0.112589,0.320542,9.800763,0.003561,0.002997,0.011968,135.42,-36.9,144.84,252.6925,-1.9011,-0.676,1002.8726,55.81399,37.500244,207.794,NaN,,0.0,8.0,,23 / 25,,1666,2021-05-11 18:51:37:783
0.117319,0.349564,9.77343,0.112589,0.320542,9.800763,-0.01171,0.007273,0.007692,135.42,-36.9,144.84,252.6925,-1.9011,-0.676,1002.8726,55.81399,37.500244,207.794,NaN,,0.0,8.0,,23 / 25,,1676,2021-05-11 18:51:37:793
0.117319,0.349564,9.77343,0.107926,0.319136,9.800861,-0.01171,0.007273,0.007692,136.2,-36.78,144.84,252.7262,-1.8731,-0.6582,1002.8726,55.81399,37.500244,207.794,NaN,,0.0,8.0,,23 / 25,,1686,2021-05-11 18:51:37:803
0.124502,0.328016,9.852441,0.106242,0.318696,9.800895,-0.010489,0.009716,0.007692,136.68,-36.96,144.9,252.7262,-1.8731,-0.6582,1002.8726,55.81399,37.500244,207.794,NaN,,0.0,8.0,,23 / 25,,1696,2021-05-11 18:51:37:813
0.124502,0.328016,9.852441,0.106242,0.318696,9.800895,-0.010489,0.009716,0.007692,136.68,-36.96,144.9,252.7262,-1.8731,-0.6582,1002.8726,55.81399,37.500244,207.794,NaN,,0.0,8.0,,23 / 25,,1707,2021-05-11 18:51:37:824
0.136474,0.31365,9.905115,0.106143,0.318247,9.80091,0.003561,0.004219,0.001583,136.68,-37.08,144.84,252.7262,-1.8731,-0.6582,1002.8726,55.81399,37.500244,207.794,NaN,,0.0,8.0,,23 / 25,,1716,2021-05-11 18:51:37:833
0.136474,0.31365,9.905115,0.106143,0.318247,9.80091,0.003561,0.004219,0.001583,136.68,-37.08,144.84,252.7262,-1.8731,-0.6582,1002.8726,55.81399,37.500244,207.794,NaN,,0.0,8.0,,23 / 25,,1727,2021-05-11 18:51:37:844
0.131685,0.31365,9.804555,0.107071,0.319249,9.800867,0.012724,-6.68E-4,0.004638,135.96,-36.78,144.78,252.7445,-1.8656,-0.6259,1002.8596,55.81399,37.500244,207.794,NaN,,0.0,8.0,,23 / 25,,1736,2021-05-11 18:51:37:853
0.165205,0.308861,9.72315,0.110441,0.320029,9.800804,-0.008045,0.013992,0.004638,135.48,-36.9,144.96,252.7445,-1.8656,-0.6259,1002.8596,55.81399,37.500244,207.794,NaN,,0.0,8.0,,23 / 25,,1746,2021-05-11 18:51:37:863
0.165205,0.308861,9.72315,0.110441,0.320029,9.800804,-0.008045,0.013992,0.004638,135.48,-36.9,144.96,252.7445,-1.8656,-0.6259,1002.8596,55.81399,37.500244,207.794,NaN,,0.0,8.0,,23 / 25,,1756,2021-05-11 18:51:37:873
0.112531,0.292102,9.720756,0.110855,0.318422,9.800852,-0.017208,0.015825,0.005249,135.48,-37.32,145.02,252.7445,-1.8656,-0.6259,1002.8596,55.81399,37.500244,207.794,NaN,,0.0,8.0,,23 / 25,,1766,2021-05-11 18:51:37:883
0.112531,0.292102,9.720756,0.110855,0.318422,9.800852,-0.017208,0.015825,0.005249,135.48,-37.32,145.02,252.7445,-1.8656,-0.6259,1002.8596,55.81399,37.500244,207.794,NaN,,0.0,8.0,,23 / 25,,1776,2021-05-11 18:51:37:893
0.143657,0.29689,9.771035,0.112193,0.315042,9.800946,-0.015375,0.009716,0.002805,136.98,-36.78,144.9,252.8617,-1.8607,-0.648,1002.8596,55.81399,37.500244,207.794,NaN,,0.0,8.0,,23 / 25,,1786,2021-05-11 18:51:37:903
0.136474,0.258582,9.787795,0.113371,0.313373,9.800986,-0.017819,0.013992,0.001583,137.16,-36.36,145.2,252.8617,-1.8607,-0.648,1002.8596,55.81399,37.500244,207.794,NaN,,0.0,8.0,,23 / 25,,1796,2021-05-11 18:51:37:913
0.136474,0.258582,9.787795,0.113371,0.313373,9.800986,-0.017819,0.013992,0.001583,137.16,-36.36,145.2,252.8617,-1.8607,-0.648,1002.8596,55.81399,37.500244,207.794,NaN,,0.0,8.0,,23 / 25,,1806,2021-05-11 18:51:37:923
0.110137,0.26337,9.895537,0.114923,0.307825,9.801144,-0.013543,0.013382,0.008914,135.96,-36.18,145.2,253.1557,-1.8312,-0.6627,1002.8596,55.81399,37.500244,207.794,NaN,,0.0,8.0,,23 / 25,,1816,2021-05-11 18:51:37:933
0.110137,0.306467,9.869201,0.114923,0.307825,9.801144,0.018833,-0.00189,0.007692,135.96,-36.18,145.2,253.1557,-1.8312,-0.6627,1002.8591,55.81399,37.500244,207.794,NaN,,0.0,8.0,,23 / 25,,1826,2021-05-11 18:51:37:943
0.201119,0.306467,9.869201,0.114923,0.307825,9.801144,0.018833,-0.00189,0.007692,135.96,-36.18,145.2,253.1557,-1.8312,-0.6627,1002.8591,55.81399,37.500244,207.794,NaN,,0.0,8.0,,23 / 25,,1838,2021-05-11 18:51:37:955
0.134079,0.342381,9.804555,0.120714,0.303834,9.801199,0.018833,-0.007999,-2.49E-4,135.96,-36.48,145.44,253.1557,-1.8312,-0.6627,1002.8591,55.81399,37.500244,207.794,NaN,,0.0,8.0,,23 / 25,,1846,2021-05-11 18:51:37:963
0.112531,0.299284,9.761458,0.120714,0.303834,9.801199,5.07E-4,-5.7E-5,0.00647,135.96,-36.48,145.44,253.1557,-1.8312,-0.6627,1002.8591,55.81399,37.500244,207.794,NaN,,0.0,8.0,,23 / 25,,1856,2021-05-11 18:51:37:973
0.146051,0.356747,9.797373,0.125755,0.30472,9.801108,-0.006823,0.016436,0.005249,136.56,-37.02,145.56,252.9127,-1.7754,-0.7056,1002.8591,55.81399,37.500244,207.794,NaN,,0.0,8.0,,23 / 25,,1866,2021-05-11 18:51:37:983
0.146051,0.356747,9.797373,0.125755,0.30472,9.801108,-0.006823,0.016436,0.005249,136.56,-37.02,145.56,252.9127,-1.7754,-0.7056,1002.8591,55.81399,37.500244,207.794,NaN,,0.0,8.0,,23 / 25,,1876,2021-05-11 18:51:37:993
0.102954,0.332804,9.809344,0.126083,0.303992,9.801126,-0.007434,0.017658,-8.6E-4,135.9,-37.14,145.32,252.9127,-1.7754,-0.7056,1002.8591,55.81399,37.500244,207.794,NaN,,0.0,8.0,,23 / 25,,1886,2021-05-11 18:51:38:003
0.045491,0.337593,9.80695,0.126083,0.303992,9.801126,-0.002547,0.008495,-0.003304,135.54,-36.24,144.9,252.9127,-1.7754,-0.737,1002.8591,55.81399,37.500244,207.794,NaN,,0.0,8.0,,23 / 25,,1896,2021-05-11 18:51:38:013
0.076617,0.328016,9.79019,0.124502,0.304863,9.80112,0.004172,0.003608,0.001583,135.54,-36.24,144.9,253.1855,-1.7764,-0.737,1002.8591,55.81399,37.500244,207.794,NaN,,0.0,8.0,,23 / 25,,1906,2021-05-11 18:51:38:023
0.076617,0.328016,9.79019,0.123186,0.305958,9.801102,0.007837,-0.00861,9.72E-4,135.42,-36.48,144.9,253.1855,-1.7764,-0.737,1002.8591,55.81399,37.500244,207.794,NaN,,0.0,8.0,,23 / 25,,1916,2021-05-11 18:51:38:033
0.146051,0.328016,9.797373,0.123186,0.305958,9.801102,0.01639,0.003608,0.00647,135.42,-36.48,144.9,253.1855,-1.7764,-0.737,1002.8591,55.81399,37.500244,207.794,NaN,,0.0,8.0,,23 / 25,,1926,2021-05-11 18:51:38:043
0.146051,0.328016,9.797373,0.120813,0.310295,9.800996,-0.001936,0.015214,-8.6E-4,135.78,-37.32,145.14,253.1855,-1.7764,-0.737,1002.8752,55.81399,37.500244,207.794,NaN,,0.0,8.0,,23 / 25,,1936,2021-05-11 18:51:38:053
0.107742,0.294496,9.866806,0.117675,0.311381,9.800999,0.005394,0.013382,-8.6E-4,135.96,-37.38,145.5,252.7552,-1.8132,-0.7062,1002.8752,55.81399,37.500244,207.794,NaN,,0.0,8.0,,23 / 25,,1946,2021-05-11 18:51:38:063
0.112531,0.311256,9.826104,0.117675,0.311381,9.800999,0.006616,0.007884,-0.001471,135.96,-37.38,145.5,252.7552,-1.8132,-0.7062,1002.8752,55.81399,37.500244,207.794,NaN,,0.0,8.0,,23 / 25,,1957,2021-05-11 18:51:38:074
0.119714,0.351958,9.826104,0.11578,0.312741,9.800978,0.00967,0.003608,-0.005136,136.44,-36.6,145.32,252.7552,-1.8132,-0.7062,1002.8752,55.81399,37.500244,207.794,NaN,,0.0,8.0,,23 / 25,,1967,2021-05-11 18:51:38:084
0.102954,0.339987,9.850046,0.11578,0.312741,9.800978,0.021887,0.003608,-0.002082,136.44,-36.6,145.32,252.7552,-1.8132,-0.7062,1002.8752,55.81399,37.500244,207.794,NaN,,0.0,8.0,,23 / 25,,1976,2021-05-11 18:51:38:093
0.102954,0.339987,9.850046,0.11578,0.312741,9.800978,0.021887,0.003608,-0.002082,136.44,-36.6,145.32,252.7552,-1.8132,-0.7062,1002.8752,55.81399,37.500244,207.794,NaN,,0.0,8.0,,23 / 25,,1986,2021-05-11 18:51:38:103
0.117319,0.368718,9.783007,0.114655,0.316815,9.800861,0.017611,5.53E-4,-0.005136,136.56,-36.84,145.74,252.8709,-1.8275,-0.6768,1002.8752,55.81399,37.500244,207.794,NaN,,0.0,8.0,,23 / 25,,1996,2021-05-11 18:51:38:113
0.112531,0.36393,9.725544,0.114566,0.322915,9.800662,0.015779,-0.003723,-0.003914,136.14,-36.96,145.68,252.8709,-1.8275,-0.6768,1002.8752,55.81399,37.500244,207.794,NaN,,0.0,8.0,,23 / 25,,2006,2021-05-11 18:51:38:123
0.112531,0.36393,9.725544,0.114566,0.322915,9.800662,0.010892,-5.7E-5,0.002805,136.14,-36.96,145.68,252.8709,-1.8275,-0.6768,1002.8752,55.81399,37.500244,207.794,NaN,,0.0,8.0,,23 / 25,,2016,2021-05-11 18:51:38:133
0.177176,0.29689,9.775824,0.114566,0.322915,9.800662,0.001729,0.010938,0.003416,135.96,-36.96,145.2,252.7085,-1.887,-0.6697,1002.8718,55.81399,37.500244,207.794,NaN,,0.0,8.0,,23 / 25,,2026,2021-05-11 18:51:38:143
0.191542,0.260976,9.80695,0.115628,0.326628,9.800528,-0.002547,0.021934,-0.001471,135.96,-36.96,145.2,252.7085,-1.887,-0.6697,1002.8718,55.81399,37.500244,207.794,NaN,,0.0,8.0,,23 / 25,,2036,2021-05-11 18:51:38:153
0.146051,0.294496,9.816526,0.11717,0.324819,9.800569,5.07E-4,0.018879,-0.00758,136.08,-36.6,145.38,252.7085,-1.887,-0.6697,1002.8718,55.81399,37.500244,207.794,NaN,,0.0,8.0,,23 / 25,,2046,2021-05-11 18:51:38:163
0.146051,0.294496,9.816526,0.11717,0.324819,9.800569,0.017,0.010327,-0.006358,136.08,-36.6,145.38,252.7085,-1.887,-0.6697,1002.8718,55.81399,37.500244,207.794,NaN,,0.0,8.0,,23 / 25,,2056,2021-05-11 18:51:38:173
0.074223,0.392661,9.720756,0.119161,0.326113,9.800502,0.01639,0.003608,-0.009412,135.84,-36.36,145.86,253.0676,-1.8981,-0.685,1002.8718,55.81399,37.500244,207.794,NaN,,0.0,8.0,,23 / 25,,2066,2021-05-11 18:51:38:183
0.076617,0.445335,9.627379,0.119161,0.326113,9.800502,0.001729,0.013382,-0.009412,135.84,-36.36,145.86,253.0676,-1.8981,-0.685,1002.8718,55.81399,37.500244,207.794,NaN,,0.0,8.0,,23 / 25,,2077,2021-05-11 18:51:38:194
0.057463,0.387873,9.620196,0.118993,0.328935,9.80041,-0.025149,0.02621,-0.011856,135.84,-36.66,146.16,253.0676,-1.8981,-0.685,1002.8718,55.81399,37.500244,207.794,NaN,,0.0,8.0,,23 / 25,,2086,2021-05-11 18:51:38:203
-0.045491,0.344776,9.768641,0.113992,0.331798,9.800372,-0.040421,0.024988,-0.011245,136.38,-36.6,145.5,253.0676,-1.8981,-0.685,1002.8718,55.81399,37.500244,207.794,NaN,,0.0,8.0,,22 / 26,,2096,2021-05-11 18:51:38:213
-0.045491,0.344776,9.768641,0.113992,0.331798,9.800372,-0.034923,0.013992,-0.006358,136.38,-36.6,145.5,253.0676,-1.8981,-0.685,1002.8718,55.81399,37.500244,207.794,NaN,,0.0,8.0,,22 / 26,,2105,2021-05-11 18:51:38:222
-0.021548,0.354353,9.847652,0.113992,0.331798,9.800372,-0.034923,0.013992,-0.006358,136.38,-36.6,145.5,253.0676,-1.8981,-0.685,1002.8718,55.81399,37.500244,207.794,NaN,,0.0,8.0,,22 / 26,,2116,2021-05-11 18:51:38:233
0.081405,0.366324,9.854836,0.104085,0.331544,9.800491,-0.011099,-0.009831,-0.00819,136.26,-36.9,145.26,252.6585,-1.9389,-0.6664,1002.8745,55.81399,37.500244,207.794,NaN,,0.0,8.0,,22 / 26,,2126,2021-05-11 18:51:38:243
0.141262,0.373507,9.852441,0.104085,0.331544,9.800491,-0.004991,-0.011664,-0.00819,136.26,-36.9,145.26,252.6585,-1.9389,-0.6664,1002.8745,55.81399,37.500244,207.794,NaN,,0.0,8.0,,22 / 26,,2136,2021-05-11 18:51:38:253
0.114925,0.354353,9.828498,0.098662,0.334893,9.800434,-0.008656,-0.004944,-0.00819,135.96,-36.96,145.5,252.6585,-1.9389,-0.6664,1002.8745,55.81399,37.500244,207.794,NaN,,0.0,8.0,,22 / 26,,2146,2021-05-11 18:51:38:263
0.114925,0.354353,9.828498,0.098662,0.334893,9.800434,-0.010489,0.004219,-0.00819,135.96,-36.96,145.5,252.6585,-1.9389,-0.6664,1002.8745,55.81399,37.500244,207.794,NaN,,0.0,8.0,,22 / 26,,2155,2021-05-11 18:51:38:272
0.071828,0.29689,9.881172,0.095758,0.337596,9.800369,-0.009267,0.00483,-0.002082,135.66,-36.42,144.96,253.0599,-1.957,-0.5768,1002.8745,55.81399,37.500244,207.794,NaN,,0.0,8.0,,22 / 26,,2166,2021-05-11 18:51:38:283
0.126897,0.294496,9.96976,0.095758,0.337596,9.800369,-0.010489,0.002386,-0.003914,135.66,-36.42,144.96,253.0599,-1.957,-0.5768,1002.8745,55.81399,37.500244,207.794,NaN,,0.0,8.0,,22 / 26,,2176,2021-05-11 18:51:38:293
0.071828,0.272947,9.950606,0.094089,0.337061,9.800404,0.004172,0.006051,-0.00819,135.36,-36.78,145.92,253.0599,-1.957,-0.5768,1002.8745,55.81399,37.500244,207.794,NaN,,0.0,8.0,,22 / 26,,2186,2021-05-11 18:51:38:303
0.071828,0.272947,9.950606,0.092627,0.336929,9.800423,0.021887,-0.001279,-0.008801,136.56,-36.78,146.1,252.7736,-1.9697,-0.5501,1002.8745,55.81399,37.500244,207.794,NaN,,0.0,8.0,,22 / 26,,2196,2021-05-11 18:51:38:313
0.0838,0.301679,9.797373,0.092627,0.336929,9.800423,0.026163,-0.006166,-0.010634,136.56,-36.78,146.1,252.7736,-1.9697,-0.5501,1002.8745,55.81399,37.500244,207.794,NaN,,0.0,8.0,,22 / 26,,2206,2021-05-11 18:51:38:323
0.129291,0.383084,9.687236,0.092627,0.336929,9.800423,0.010281,0.006662,-0.009412,136.56,-36.78,146.1,252.7736,-1.9697,-0.5501,1002.8745,55.81399,37.500244,207.794,NaN,,0.0,8.0,,22 / 26,,2216,2021-05-11 18:51:38:333
0.102954,0.395055,9.670476,0.091759,0.338127,9.800389,-0.004991,0.01949,-0.011245,137.04,-36.54,145.56,252.7736,-1.9697,-0.5501,1002.8755,55.81399,37.500244,207.794,NaN,,0.0,8.0,,22 / 26,,2227,2021-05-11 18:51:38:344
0.102954,0.395055,9.670476,0.091759,0.338127,9.800389,-0.024538,0.028653,-0.00758,137.04,-36.54,145.56,252.7736,-1.9697,-0.5501,1002.8755,55.81399,37.500244,207.794,NaN,,0.0,8.0,,22 / 26,,2235,2021-05-11 18:51:38:352
0.047885,0.385478,9.672871,0.088658,0.337774,9.80043,-0.02576,0.023766,-0.005136,136.5,-36.42,145.5,253.1661,-1.9739,-0.5183,1002.8755,55.81399,37.500244,207.794,NaN,,0.0,8.0,,22 / 26,,2246,2021-05-11 18:51:38:363
0.071828,0.339987,9.735122,0.088658,0.337774,9.80043,-0.026371,0.010938,-0.009412,136.5,-36.42,145.5,253.1661,-1.9739,-0.5183,1002.8755,55.81399,37.500244,207.794,NaN,,0.0,8.0,,22 / 26,,2255,2021-05-11 18:51:38:372
0.090982,0.311256,9.804555,0.083984,0.336546,9.800514,-0.026371,0.00544,-0.008801,136.26,-36.48,145.14,253.1661,-1.9739,-0.5183,1002.8755,55.81399,37.500244,207.794,NaN,,0.0,8.0,,22 / 26,,2266,2021-05-11 18:51:38:383
0.064645,0.272947,9.888355,0.082711,0.33393,9.800614,-0.024538,0.010327,-0.010023,136.5,-36.9,145.2,252.8108,-1.9667,-0.491,1002.8755,55.81399,37.500244,207.794,NaN,,0.0,8.0,,22 / 26,,2277,2021-05-11 18:51:38:394
0.064645,0.272947,9.888355,0.082711,0.33393,9.800614,-0.01843,0.01216,-0.00819,136.5,-36.9,145.2,252.8108,-1.9667,-0.491,1002.8755,55.81399,37.500244,207.794,NaN,,0.0,8.0,,22 / 26,,2286,2021-05-11 18:51:38:403
0.052674,0.287313,9.864412,0.082711,0.33393,9.800614,-0.002547,0.001775,-0.00819,136.5,-36.9,145.2,252.8108,-1.9667,-0.491,1002.8755,55.81399,37.500244,207.794,NaN,,0.0,8.0,,22 / 26,,2296,2021-05-11 18:51:38:413
0.011971,0.306467,9.794978,0.080372,0.32916,9.800795,-7.15E-4,-0.011664,-0.004525,136.68,-37.08,145.08,252.8108,-1.9667,-0.491,1002.8755,55.81399,37.500244,207.794,NaN,,0.0,8.0,,22 / 26,,2306,2021-05-11 18:51:38:423
0.011971,0.306467,9.794978,0.080372,0.32916,9.800795,5.07E-4,-0.004944,-8.6E-4,136.62,-36.66,145.08,252.8599,-1.9235,-0.4698,1002.8755,55.81399,37.500244,207.794,NaN,,0.0,8.0,,22 / 26,,2315,2021-05-11 18:51:38:432
0.026337,0.339987,9.885961,0.07863,0.327073,9.800879,0.00295,-5.7E-5,-2.49E-4,136.62,-36.66,145.08,252.8599,-1.9235,-0.4698,1002.8755,55.81399,37.500244,207.794,NaN,,0.0,8.0,,22 / 26,,2325,2021-05-11 18:51:38:442
0.007183,0.351958,9.768641,0.07863,0.327073,9.800879,-0.003158,-0.006777,0.003416,136.62,-36.66,145.08,252.8599,-1.9235,-0.4698,1002.876,55.81399,37.500244,207.794,NaN,,0.0,8.0,,22 / 26,,2336,2021-05-11 18:51:38:453
0.079011,0.349564,9.696813,0.073781,0.326169,9.800946,-0.015375,-0.00922,-2.49E-4,136.2,-36.54,145.38,252.8599,-1.9235,-0.4698,1002.876,55.81399,37.500244,207.794,NaN,,0.0,8.0,,22 / 26,,2346,2021-05-11 18:51:38:463
0.0838,0.378295,9.802161,0.073781,0.326169,9.800946,-0.025149,0.00483,-0.001471,136.2,-36.54,145.38,252.8599,-1.9235,-0.4698,1002.876,55.81399,37.500244,207.794,NaN,,0.0,8.0,,22 / 26,,2356,2021-05-11 18:51:38:473
0.031126,0.318439,9.826104,0.070445,0.325473,9.800994,-0.028204,0.012771,-0.002693,136.32,-36.9,145.2,252.7705,-1.906,-0.4313,1002.876,55.81399,37.500244,207.794,NaN,,0.0,8.0,,22 / 26,,2366,2021-05-11 18:51:38:483
0.031126,0.318439,9.826104,0.065311,0.323061,9.801109,-0.030036,0.022545,-2.49E-4,136.98,-36.42,145.08,252.7705,-1.906,-0.4313,1002.876,55.81399,37.500244,207.794,NaN,,0.0,8.0,,22 / 26,,2376,2021-05-11 18:51:38:493
0.064645,0.316044,9.799767,0.065311,0.323061,9.801109,-0.033701,0.024377,0.003416,136.98,-36.42,145.08,252.7705,-1.906,-0.4313,1002.876,55.81399,37.500244,207.794,NaN,,0.0,8.0,,22 / 26,,2387,2021-05-11 18:51:38:504
0.095771,0.349564,9.830893,0.058571,0.319604,9.801266,-0.038588,0.04026,0.00647,136.5,-36.0,145.26,253.3093,-1.8878,-0.3818,1002.876,55.81399,37.500244,207.794,NaN,,0.0,8.0,,22 / 26,,2396,2021-05-11 18:51:38:513
0.076617,0.299284,9.845258,0.058571,0.319604,9.801266,-0.037977,0.037205,0.004638,136.5,-36.0,145.26,253.3093,-1.8878,-0.3818,1002.876,55.81399,37.500244,207.794,NaN,,0.0,8.0,,22 / 26,,2406,2021-05-11 18:51:38:523
0.076617,0.299284,9.845258,0.058571,0.319604,9.801266,-0.037977,0.037205,0.004638,136.5,-36.0,145.26,253.3093,-1.8878,-0.3818,1002.876,55.81399,37.500244,207.794,NaN,,0.0,8.0,,22 / 26,,2416,2021-05-11 18:51:38:533
0.05028,0.301679,9.91948,0.053775,0.315935,9.801413,0.001118,-0.003112,9.72E-4,136.56,-36.6,145.38,253.3093,-1.8878,-0.3818,1002.8796,55.81399,37.500244,207.794,NaN,,0.0,8.0,,22 / 26,,2426,2021-05-11 18:51:38:543
0.040703,0.253793,9.941029,0.053775,0.315935,9.801413,0.001118,-0.003112,9.72E-4,136.56,-36.6,145.38,253.3093,-1.8878,-0.3818,1002.8796,55.81399,37.500244,207.794,NaN,,0.0,8.0,,22 / 26,,2436,2021-05-11 18:51:38:553
0.0838,0.275342,9.91948,0.054541,0.315474,9.801423,0.001729,-0.007388,0.005859,136.38,-37.32,145.14,252.8692,-1.8435,-0.3188,1002.8796,55.81399,37.500244,207.794,NaN,,0.0,8.0,,22 / 26,,2446,2021-05-11 18:51:38:563
0.122108,0.275342,9.933846,0.056151,0.313299,9.801483,-0.008045,0.009106,0.005859,135.9,-37.08,145.14,252.8692,-1.8435,-0.3188,1002.8796,55.81399,37.500244,207.794,NaN,,0.0,8.0,,22 / 26,,2456,2021-05-11 18:51:38:573
0.122108,0.275342,9.933846,0.056151,0.313299,9.801483,-0.004991,0.020101,0.002194,135.9,-37.08,145.14,252.8692,-1.8435,-0.3188,1002.8796,55.81399,37.500244,207.794,NaN,,0.0,8.0,,22 / 26,,2465,2021-05-11 18:51:38:582
0.081405,0.282524,9.912297,0.056151,0.313299,9.801483,-1.04E-4,0.014603,-0.006969,135.9,-37.08,145.14,252.8692,-1.8435,-0.3188,1002.8796,55.81399,37.500244,207.794,NaN,,0.0,8.0,,22 / 26,,2476,2021-05-11 18:51:38:593
0.009577,0.289707,9.864412,0.056427,0.30956,9.8016,0.007227,0.007884,-0.006969,136.02,-36.0,144.96,253.2663,-1.8308,-0.3282,1002.8796,55.81399,37.500244,207.794,NaN,,0.0,8.0,,22 / 26,,2485,2021-05-11 18:51:38:602
0.009577,0.320833,9.751882,0.056427,0.30956,9.8016,0.019444,-0.005555,-0.002693,136.02,-36.0,144.96,253.2663,-1.8308,-0.3282,1002.8796,55.81399,37.500244,207.794,NaN,,0.0,8.0,,22 / 26,,2496,2021-05-11 18:51:38:613
0.069434,0.36393,9.63935,0.055996,0.309067,9.801619,0.014557,5.53E-4,0.002194,136.38,-36.42,145.02,253.2663,-1.8308,-0.3282,1002.8796,55.81399,37.500244,207.794,NaN,,0.0,8.0,,22 / 26,,2506,2021-05-11 18:51:38:623
0.069434,0.36393,9.63935,0.055486,0.311342,9.80155,-0.001936,0.006662,-0.002693,136.74,-37.08,145.56,253.0084,-1.806,-0.3273,1002.8796,55.81399,37.500244,207.794,NaN,,0.0,8.0,,22 / 26,,2516,2021-05-11 18:51:38:633
0.038308,0.356747,9.61062,0.055486,0.311342,9.80155,-0.019041,0.015214,-0.003304,136.74,-37.08,145.56,253.0084,-1.806,-0.3273,1002.8767,55.81399,37.500244,207.794,NaN,,0.0,8.0,,22 / 26,,2527,2021-05-11 18:51:38:644
0.038308,0.34717,9.672871,0.055486,0.311342,9.80155,-0.031258,0.018269,-0.001471,136.74,-37.08,145.56,253.0084,-1.806,-0.3273,1002.8767,55.81399,37.500244,207.794,NaN,,0.0,8.0,,22 / 26,,2536,2021-05-11 18:51:38:653
0.019154,0.323227,9.797373,0.052505,0.310939,9.801579,-0.038588,0.022545,-0.004525,136.74,-36.9,145.2,253.0084,-1.806,-0.3273,1002.8767,55.81399,37.500244,207.794,NaN,,0.0,8.0,,22 / 26,,2546,2021-05-11 18:51:38:663
0.019154,0.323227,9.797373,0.052505,0.310939,9.801579,-0.034923,0.016436,-8.6E-4,136.74,-36.9,145.2,253.0084,-1.806,-0.3273,1002.8767,55.81399,37.500244,207.794,NaN,,0.0,8.0,,22 / 26,,2556,2021-05-11 18:51:38:673
0.023943,0.294496,9.871595,0.047816,0.307902,9.801699,-0.023928,0.004219,-8.6E-4,136.86,-36.72,144.48,253.0301,-1.817,-0.3069,1002.8767,55.81399,37.500244,207.794,NaN,,0.0,8.0,,22 / 26,,2566,2021-05-11 18:51:38:683
0.079011,0.318439,9.917087,0.045777,0.306169,9.801763,-0.009267,-0.001279,-0.001471,136.14,-36.6,144.6,253.0301,-1.817,-0.3069,1002.8767,55.81399,37.500244,207.794,NaN,,0.0,8.0,,22 / 26,,2576,2021-05-11 18:51:38:693
0.081405,0.31365,9.826104,0.045777,0.306169,9.801763,-0.001936,-0.003723,-0.008801,136.14,-36.6,144.6,253.0301,-1.817,-0.3069,1002.8767,55.81399,37.500244,207.794,NaN,,0.0,8.0,,22 / 26,,2586,2021-05-11 18:51:38:703
0.081405,0.294496,9.811738,0.047075,0.306736,9.801739,-0.002547,-0.004944,-0.008801,136.08,-36.78,144.84,252.9335,-1.7924,-0.2752,1002.8767,55.81399,37.500244,207.794,NaN,,0.0,8.0,,22 / 26,,2597,2021-05-11 18:51:38:714
0.059857,0.294496,9.811738,0.047075,0.306736,9.801739,-0.012932,-0.004333,-0.006358,136.08,-36.78,144.84,252.9335,-1.7924,-0.2752,1002.8767,55.81399,37.500244,207.794,NaN,,0.0,8.0,,22 / 26,,2606,2021-05-11 18:51:38:723
0.035914,0.308861,9.804555,0.049822,0.306927,9.801719,-0.022706,0.00483,-0.004525,136.62,-36.66,144.96,252.9335,-1.7924,-0.2752,1002.8767,55.81399,37.500244,207.794,NaN,,0.0,8.0,,22 / 26,,2616,2021-05-11 18:51:38:733
0.007183,0.282524,9.833286,0.049822,0.306927,9.801719,-0.022706,0.00483,-0.004525,136.62,-36.66,144.96,252.9335,-1.7924,-0.2752,1002.8767,55.81399,37.500244,207.794,NaN,,0.0,8.0,,22 / 26,,2626,2021-05-11 18:51:38:743
0.007183,0.282524,9.833286,0.049857,0.303996,9.80181,-0.020262,0.004219,0.001583,136.62,-36.66,144.96,252.9335,-1.7924,-0.2752,1002.8772,55.81399,37.500244,207.794,NaN,,0.0,8.0,,22 / 26,,2637,2021-05-11 18:51:38:754
0.0,0.289707,9.857229,0.048568,0.302124,9.801874,-0.013543,0.001164,0.00647,136.5,-36.72,145.08,253.0617,-1.7764,-0.2914,1002.8772,55.81399,37.500244,207.794,NaN,,0.0,8.0,,22 / 26,,2646,2021-05-11 18:51:38:763
0.069434,0.335198,9.93624,0.048568,0.302124,9.801874,-0.006823,-0.00189,0.018688,136.5,-36.72,145.08,253.0617,-1.7764,-0.2914,1002.8772,55.81399,37.500244,207.794,NaN,,0.0,8.0,,22 / 26,,2657,2021-05-11 18:51:38:774
0.047885,0.294496,9.873989,0.045377,0.298985,9.801987,-0.007434,-5.7E-5,-2.49E-4,136.5,-36.84,144.72,253.0617,-1.7764,-0.2914,1002.8772,55.81399,37.500244,207.794,NaN,,0.0,8.0,,22 / 26,,2666,2021-05-11 18:51:38:783
0.026337,0.249005,9.881172,0.044203,0.297397,9.80204,-0.006212,-0.007388,-8.6E-4,136.5,-37.38,145.08,253.0987,-1.7471,-0.2652,1002.8772,55.81399,37.500244,207.794,NaN,,0.0,8.0,,22 / 26,,2677,2021-05-11 18:51:38:794
0.026337,0.249005,9.881172,0.044203,0.297397,9.80204,-0.008045,-0.004944,-8.6E-4,136.5,-37.38,145.08,253.0987,-1.7471,-0.2652,1002.8772,55.81399,37.500244,207.794,NaN,,0.0,8.0,,22 / 26,,2686,2021-05-11 18:51:38:803
-0.007183,0.244216,9.885961,0.042968,0.293158,9.802174,-0.009878,-0.003723,-0.001471,136.14,-36.78,145.56,253.0987,-1.7471,-0.2652,1002.8772,55.81399,37.500244,207.794,NaN,,0.0,8.0,,22 / 26,,2696,2021-05-11 18:51:38:813
0.011971,0.239427,9.876384,0.042968,0.293158,9.802174,-0.006212,-0.007999,9.72E-4,136.14,-36.78,145.56,253.0987,-1.7471,-0.2652,1002.8772,55.81399,37.500244,207.794,NaN,,0.0,8.0,,22 / 26,,2706,2021-05-11 18:51:38:823
0.014366,0.272947,9.869201,0.04175,0.289865,9.802277,-0.006212,-0.007999,9.72E-4,136.62,-36.6,145.68,253.0987,-1.7471,-0.2652,1002.8772,55.81399,37.500244,207.794,NaN,,0.0,8.0,,22 / 26,,2716,2021-05-11 18:51:38:833
0.026337,0.284919,9.80695,0.040492,0.285744,9.802403,0.009059,-0.016551,0.007081,136.8,-35.82,145.5,253.5308,-1.6938,-0.244,1002.8821,55.81399,37.500244,207.794,NaN,,0.0,8.0,,22 / 26,,2727,2021-05-11 18:51:38:844
0.026337,0.284919,9.80695,0.040492,0.285744,9.802403,0.014557,-0.015329,0.004027,136.8,-35.82,145.5,253.5308,-1.6938,-0.244,1002.8821,55.81399,37.500244,207.794,NaN,,0.0,8.0,,22 / 26,,2736,2021-05-11 18:51:38:853
0.026337,0.304073,9.718362,0.040228,0.285429,9.802413,0.007837,-0.012886,0.008914,137.1,-36.0,145.2,253.5308,-1.6938,-0.244,1002.8821,55.81399,37.500244,207.794,NaN,,0.0,8.0,,22 / 26,,2746,2021-05-11 18:51:38:863
0.088588,0.284919,9.713573,0.040228,0.285429,9.802413,-0.012932,-5.7E-5,0.010746,137.1,-36.0,145.2,253.5308,-1.6938,-0.244,1002.8821,55.81399,37.500244,207.794,NaN,,0.0,8.0,,22 / 26,,2756,2021-05-11 18:51:38:873
0.160416,0.275342,9.754275,0.039626,0.284261,9.802449,-0.022706,0.004219,0.00647,136.8,-36.3,145.26,253.5308,-1.6938,-0.244,1002.8821,55.81399,37.500244,207.794,NaN,,0.0,8.0,,22 / 26,,2766,2021-05-11 18:51:38:883
0.160416,0.275342,9.754275,0.039626,0.284261,9.802449,-0.022706,0.004219,0.00647,136.8,-36.3,145.26,253.5308,-1.6938,-0.244,1002.8821,55.81399,37.500244,207.794,NaN,,0.0,8.0,,22 / 26,,2776,2021-05-11 18:51:38:893
0.117319,0.284919,9.835681,0.041078,0.279654,9.802576,-0.013543,-0.007388,-0.00758,136.44,-37.2,145.56,253.0643,-1.661,-0.2316,1002.8821,55.81399,37.500244,207.794,NaN,,0.0,8.0,,22 / 26,,2786,2021-05-11 18:51:38:903
0.045491,0.289707,9.720756,0.041078,0.279654,9.802576,0.004172,-0.018383,-0.005747,136.44,-37.2,145.56,253.0643,-1.661,-0.2316,1002.8821,55.81399,37.500244,207.794,NaN,,0.0,8.0,,22 / 26,,2796,2021-05-11 18:51:38:913
0.03352,0.375901,9.61062,0.048265,0.27869,9.80257,0.004172,-0.025103,-0.001471,136.8,-37.26,144.9,253.0643,-1.661,-0.2316,1002.8821,55.81399,37.500244,207.794,NaN,,0.0,8.0,,22 / 26,,2806,2021-05-11 18:51:38:923
0.03352,0.375901,9.61062,0.048265,0.27869,9.80257,-0.014154,-0.01594,0.004638,136.8,-37.26,144.9,253.0643,-1.661,-0.2316,1002.8821,55.81399,37.500244,207.794,NaN,,0.0,8.0,,22 / 26,,2815,2021-05-11 18:51:38:932
0.064645,0.344776,9.543579,0.054732,0.282365,9.802431,-0.043475,0.001164,0.004027,136.92,-36.72,144.84,253.2084,-1.6285,-0.2821,1002.8757,55.81399,37.500244,207.794,NaN,,0.0,8.0,,22 / 26,,2826,2021-05-11 18:51:38:943
0.06704,0.258582,9.646533,0.054732,0.282365,9.802431,-0.073408,0.009716,3.62E-4,136.92,-36.72,144.84,253.2084,-1.6285,-0.2821,1002.8757,55.81399,37.500244,207.794,NaN,,0.0,8.0,,22 / 26,,2836,2021-05-11 18:51:38:953
0.01676,0.239427,9.921875,0.055728,0.279776,9.8025,-0.088068,0.020712,-0.002082,136.74,-36.36,144.84,253.2084,-1.6285,-0.2821,1002.8757,55.81399,37.500244,207.794,NaN,,0.0,8.0,,22 / 26,,2846,2021-05-11 18:51:38:963
0.01676,0.239427,9.921875,0.055728,0.279776,9.8025,-0.056303,0.002997,-0.005747,136.74,-36.36,144.84,253.2084,-1.6285,-0.2821,1002.8757,55.81399,37.500244,207.794,NaN,,0.0,8.0,,22 / 26,,2856,2021-05-11 18:51:38:973
-0.014366,0.253793,10.1206,0.053177,0.269413,9.802805,-0.01843,-0.013496,-0.003914,137.04,-36.18,144.18,253.5861,-1.6348,-0.3257,1002.8757,55.81399,37.500244,207.794,NaN,,0.0,8.0,,22 / 26,,2866,2021-05-11 18:51:38:983
0.028731,0.265765,9.96976,0.053177,0.269413,9.802805,0.005394,-0.031822,-0.002082,137.04,-36.18,144.18,253.5861,-1.6348,-0.3257,1002.8757,55.81399,37.500244,207.794,NaN,,0.0,8.0,,22 / 26,,2876,2021-05-11 18:51:38:993
0.095771,0.275342,9.816526,0.053022,0.267167,9.802867,0.007227,-0.02999,0.002805,136.56,-36.24,144.42,253.5861,-1.6348,-0.3257,1002.8757,55.81399,37.500244,207.794,NaN,,0.0,8.0,,22 / 26,,2886,2021-05-11 18:51:39:003
0.098165,0.253793,9.809344,0.053022,0.267167,9.802867,-0.004991,-0.015329,0.005859,136.56,-36.24,144.42,253.5861,-1.6348,-0.3257,1002.8757,55.81399,37.500244,207.794,NaN,,0.0,8.0,,22 / 26,,2895,2021-05-11 18:51:39:012
0.047885,0.225062,9.864412,0.057398,0.269773,9.802771,-0.017819,-0.006777,0.011357,136.44,-36.0,144.66,253.5371,-1.5611,-0.3099,1002.8757,55.81399,37.500244,207.794,NaN,,0.0,8.0,,22 / 26,,2906,2021-05-11 18:51:39:023
0.047885,0.225062,9.864412,0.057398,0.269773,9.802771,-0.017819,-0.006777,0.011357,136.44,-36.0,144.66,253.5371,-1.5611,-0.3099,1002.8757,55.81399,37.500244,207.794,NaN,,0.0,8.0,,22 / 26,,2916,2021-05-11 18:51:39:033
0.064645,0.201119,9.895537,0.058899,0.265875,9.802868,-0.017208,-0.005555,0.007692,136.56,-35.7,144.96,253.5371,-1.5611,-0.3099,1002.8757,55.81399,37.500244,207.794,NaN,,0.0,8.0,,22 / 26,,2927,2021-05-11 18:51:39:044
0.03352,0.21309,9.909904,0.059424,0.25957,9.803035,-0.012932,-0.004333,0.005859,136.38,-35.82,145.38,253.5336,-1.5536,-0.3442,1002.8792,55.81399,37.500244,207.794,NaN,,0.0,8.0,,22 / 26,,2936,2021-05-11 18:51:39:053
-0.014366,0.239427,9.828498,0.059424,0.25957,9.803035,0.00234,-0.007999,0.002805,136.38,-35.82,145.38,253.5336,-1.5536,-0.3442,1002.8792,55.81399,37.500244,207.794,NaN,,0.0,8.0,,22 / 26,,2946,2021-05-11 18:51:39:063
-0.014366,0.239427,9.828498,0.059424,0.25957,9.803035,0.006616,-0.00922,0.003416,136.38,-35.82,145.38,253.5336,-1.5536,-0.3442,1002.8792,55.81399,37.500244,207.794,NaN,,0.0,8.0,,22 / 26,,2956,2021-05-11 18:51:39:073
0.0,0.320833,9.833286,0.0571,0.256868,9.803119,0.010281,-0.006777,0.004638,136.26,-36.06,145.08,253.5336,-1.5536,-0.3442,1002.8792,55.81399,37.500244,207.794,NaN,,0.0,8.0,,22 / 26,,2966,2021-05-11 18:51:39:083
0.007183,0.284919,9.660899,0.052173,0.259311,9.803082,0.012724,-0.004944,0.009525,136.08,-36.42,144.6,253.5888,-1.5009,-0.3337,1002.8792,55.81399,37.500244,207.794,NaN,,0.0,8.0,,22 / 26,,2976,2021-05-11 18:51:39:093
0.007183,0.284919,9.660899,0.052173,0.259311,9.803082,0.004172,-0.004944,0.012579,136.08,-36.42,144.6,253.5888,-1.5009,-0.3337,1002.8792,55.81399,37.500244,207.794,NaN,,0.0,8.0,,22 / 26,,2985,2021-05-11 18:51:39:102
0.028731,0.277736,9.701602,0.052173,0.259311,9.803082,5.07E-4,-0.006777,0.016244,136.26,-36.3,144.6,253.5888,-1.5009,-0.3337,1002.8792,55.81399,37.500244,207.794,NaN,,0.0,8.0,,22 / 26,,2996,2021-05-11 18:51:39:113
0.093377,0.217879,9.80695,0.047996,0.261667,9.803041,-0.001936,-0.002501,0.016244,136.26,-36.3,144.6,253.5888,-1.5009,-0.3337,1002.8792,55.81399,37.500244,207.794,NaN,,0.0,8.0,,22 / 26,,3005,2021-05-11 18:51:39:122
0.150839,0.225062,9.818921,0.047996,0.261667,9.803041,-0.007434,0.00483,0.010746,136.44,-36.18,144.72,253.5888,-1.5009,-0.3337,1002.8792,55.81399,37.500244,207.794,NaN,,0.0,8.0,,22 / 26,,3016,2021-05-11 18:51:39:133
0.141262,0.198725,9.869201,0.047429,0.260625,9.803072,-0.008045,0.004219,0.008303,136.44,-36.18,144.72,253.5888,-1.5009,-0.3337,1002.8792,55.81399,37.500244,207.794,NaN,,0.0,8.0,,22 / 26,,3026,2021-05-11 18:51:39:143
0.141262,0.198725,9.869201,0.047429,0.260625,9.803072,-0.008045,0.004219,0.008303,136.44,-36.18,144.72,253.5888,-1.5009,-0.3337,1002.8792,55.81399,37.500244,207.794,NaN,,0.0,8.0,,22 / 26,,3036,2021-05-11 18:51:39:153
0.143657,0.193936,9.885961,0.049189,0.258435,9.803121,-0.006212,0.008495,0.007692,136.38,-36.24,145.08,253.5851,-1.5229,-0.2772,1002.8748,55.81399,37.500244,207.794,NaN,,0.0,8.0,,22 / 26,,3046,2021-05-11 18:51:39:163
0.043097,0.22985,9.845258,0.058605,0.252322,9.803228,0.015779,-0.00922,0.003416,137.04,-36.12,144.6,253.5851,-1.5229,-0.2772,1002.8748,55.81399,37.500244,207.794,NaN,,0.0,8.0,,22 / 26,,3057,2021-05-11 18:51:39:174
0.05028,0.260976,9.799767,0.058605,0.252322,9.803228,0.026774,-0.01594,0.007692,137.04,-36.12,144.6,253.5851,-1.5229,-0.2772,1002.8748,55.81399,37.500244,207.794,NaN,,0.0,8.0,,22 / 26,,3066,2021-05-11 18:51:39:183
0.05028,0.260976,9.799767,0.058605,0.252322,9.803228,0.029829,-0.016551,0.009525,137.04,-36.12,144.6,253.5851,-1.5229,-0.2772,1002.8748,55.81399,37.500244,207.794,NaN,,0.0,8.0,,21 / 25,,3076,2021-05-11 18:51:39:193
0.057463,0.287313,9.699207,0.065524,0.252376,9.803183,0.020055,-0.012886,0.015022,136.74,-35.64,145.08,253.7262,-1.4744,-0.3425,1002.8748,55.81399,37.500244,207.794,NaN,,0.0,8.0,,21 / 25,,3085,2021-05-11 18:51:39:202
0.079011,0.270553,9.648928,0.069857,0.254903,9.803088,-0.003769,5.53E-4,0.01319,136.62,-35.82,144.9,253.7262,-1.4744,-0.3425,1002.8748,55.81399,37.500244,207.794,NaN,,0.0,8.0,,21 / 25,,3096,2021-05-11 18:51:39:213
0.079011,0.270553,9.742304,0.069857,0.254903,9.803088,-0.019041,0.007884,0.010135,136.62,-35.82,144.9,253.7262,-1.4744,-0.3425,1002.8748,55.81399,37.500244,207.794,NaN,,0.0,8.0,,21 / 25,,3106,2021-05-11 18:51:39:223
0.0838,0.265765,9.842864,0.069804,0.252938,9.803139,-0.01843,0.001775,0.00647,136.32,-36.12,144.18,253.5875,-1.4894,-0.4083,1002.8748,55.81399,37.500244,207.794,NaN,,0.0,8.0,,21 / 25,,3116,2021-05-11 18:51:39:233
0.10056,0.249005,9.859624,0.069804,0.252938,9.803139,-0.004991,0.002997,0.005249,136.32,-36.12,144.18,253.5875,-1.4894,-0.4083,1002.8762,55.81399,37.500244,207.794,NaN,,0.0,8.0,,21 / 25,,3126,2021-05-11 18:51:39:243
0.10056,0.249005,9.859624,0.069804,0.252938,9.803139,-0.004991,0.002997,0.005249,136.32,-36.12,144.18,253.5875,-1.4894,-0.4083,1002.8762,55.81399,37.500244,207.794,NaN,,0.0,8.0,,21 / 25,,3136,2021-05-11 18:51:39:253
0.081405,0.258582,9.857229,0.07071,0.251973,9.803158,0.004783,-0.00189,0.007692,136.38,-35.82,143.58,253.5875,-1.4894,-0.4083,1002.8762,55.81399,37.500244,207.794,NaN,,0.0,8.0,,21 / 25,,3146,2021-05-11 18:51:39:263
0.076617,0.251399,9.826104,0.073038,0.254013,9.803088,0.007837,0.00483,0.010135,136.2,-36.0,144.6,253.5919,-1.4723,-0.4133,1002.8762,55.81399,37.500244,207.794,NaN,,0.0,8.0,,21 / 25,,3156,2021-05-11 18:51:39:273
0.06704,0.232245,9.847652,0.073038,0.254013,9.803088,0.00295,0.011549,0.004027,136.2,-36.0,144.6,253.5919,-1.4723,-0.4133,1002.8762,55.81399,37.500244,207.794,NaN,,0.0,8.0,,21 / 25,,3166,2021-05-11 18:51:39:283
0.043097,0.205908,9.840469,0.071725,0.255185,9.803067,0.011503,0.018269,0.005249,136.32,-36.72,145.26,253.5919,-1.4723,-0.4133,1002.8762,55.81399,37.500244,207.794,NaN,,0.0,8.0,,21 / 25,,3176,2021-05-11 18:51:39:293
0.043097,0.205908,9.840469,0.071725,0.255185,9.803067,0.012724,0.015214,0.008303,136.32,-36.72,145.26,253.5919,-1.4723,-0.4133,1002.8762,55.81399,37.500244,207.794,NaN,,0.0,8.0,,21 / 25,,3186,2021-05-11 18:51:39:303
0.076617,0.227456,9.838076,0.071725,0.255185,9.803067,0.014557,0.007884,0.007692,136.32,-36.72,145.26,253.5919,-1.4723,-0.4133,1002.8762,55.81399,37.500244,207.794,NaN,,0.0,8.0,,21 / 25,,3196,2021-05-11 18:51:39:313
0.06704,0.256187,9.799767,0.068142,0.255609,9.803082,0.015168,0.017047,0.008303,137.04,-36.84,143.82,253.3094,-1.4911,-0.4192,1002.8762,55.81399,37.500244,207.794,NaN,,0.0,8.0,,21 / 25,,3206,2021-05-11 18:51:39:323
0.06704,0.256187,9.799767,0.066478,0.256383,9.803073,0.010892,0.015214,0.010746,137.28,-37.08,143.64,253.3094,-1.4911,-0.4192,1002.8762,55.81399,37.500244,207.794,NaN,,0.0,8.0,,21 / 25,,3216,2021-05-11 18:51:39:333
0.028731,0.268159,9.744699,0.066478,0.256383,9.803073,0.008448,0.00544,0.01319,137.28,-37.08,143.64,253.3094,-1.4911,-0.4192,1002.875,55.81399,37.500244,207.794,NaN,,0.0,8.0,,21 / 25,,3226,2021-05-11 18:51:39:343
0.081405,0.308861,9.75667,0.064113,0.257368,9.803062,0.011503,0.002997,0.012579,137.16,-36.48,144.12,253.6994,-1.4981,-0.3885,1002.875,55.81399,37.500244,207.794,NaN,,0.0,8.0,,21 / 25,,3236,2021-05-11 18:51:39:353
0.146051,0.284919,9.715967,0.064113,0.257368,9.803062,0.004172,0.008495,0.007081,137.16,-36.48,144.12,253.6994,-1.4981,-0.3885,1002.875,55.81399,37.500244,207.794,NaN,,0.0,8.0,,21 / 25,,3246,2021-05-11 18:51:39:363
0.146051,0.284919,9.715967,0.064113,0.257368,9.803062,0.004172,0.008495,0.007081,137.16,-36.48,144.12,253.6994,-1.4981,-0.3885,1002.875,55.81399,37.500244,207.794,NaN,,0.0,8.0,,21 / 25,,3256,2021-05-11 18:51:39:373
0.098165,0.232245,9.687236,0.065533,0.259784,9.802989,-0.008045,0.010327,3.62E-4,136.44,-35.76,144.3,253.6994,-1.4981,-0.3885,1002.875,55.81399,37.500244,207.794,NaN,,0.0,8.0,,21 / 25,,3266,2021-05-11 18:51:39:383
0.088588,0.198725,9.754275,0.065533,0.259784,9.802989,-0.009267,0.00544,0.002805,136.44,-35.76,144.3,253.6994,-1.4981,-0.3885,1002.875,55.81399,37.500244,207.794,NaN,,0.0,8.0,,21 / 25,,3276,2021-05-11 18:51:39:393
0.117319,0.210696,9.75667,0.067725,0.25781,9.803027,-0.008656,0.007884,-2.49E-4,136.2,-36.24,145.44,253.5564,-1.518,-0.383,1002.875,55.81399,37.500244,207.794,NaN,,0.0,8.0,,21 / 25,,3286,2021-05-11 18:51:39:403
0.095771,0.241822,9.778218,0.070277,0.253564,9.80312,-0.014154,0.01216,-8.6E-4,136.44,-35.76,145.02,253.5564,-1.518,-0.383,1002.875,55.81399,37.500244,207.794,NaN,,0.0,8.0,,21 / 25,,3296,2021-05-11 18:51:39:413
0.095771,0.241822,9.778218,0.070277,0.253564,9.80312,-0.012321,0.013382,-2.49E-4,136.44,-35.76,145.02,253.5564,-1.518,-0.383,1002.875,55.81399,37.500244,207.794,NaN,,0.0,8.0,,21 / 25,,3306,2021-05-11 18:51:39:423
0.062251,0.225062,9.768641,0.070277,0.253564,9.80312,-0.015986,0.013382,0.003416,136.44,-35.76,145.02,253.5564,-1.518,-0.383,1002.875,55.81399,37.500244,207.794,NaN,,0.0,8.0,,21 / 25,,3316,2021-05-11 18:51:39:433
0.076617,0.225062,9.864412,0.071032,0.249121,9.803228,-0.017819,0.013992,0.002194,136.2,-35.7,144.24,253.5944,-1.4816,-0.4107,1002.8804,55.81399,37.500244,207.794,NaN,,0.0,8.0,,21 / 25,,3326,2021-05-11 18:51:39:443
0.081405,0.220273,9.881172,0.07035,0.244185,9.803357,-0.010489,0.017047,0.002805,136.38,-36.24,143.7,253.5944,-1.4816,-0.4107,1002.8804,55.81399,37.500244,207.794,NaN,,0.0,8.0,,21 / 25,,3336,2021-05-11 18:51:39:453
0.081405,0.220273,9.881172,0.07035,0.244185,9.803357,-0.001326,0.009106,3.62E-4,136.38,-36.24,143.7,253.5944,-1.4816,-0.4107,1002.8804,55.81399,37.500244,207.794,NaN,,0.0,8.0,,21 / 25,,3346,2021-05-11 18:51:39:463
0.107742,0.29689,9.842864,0.07035,0.244185,9.803357,0.00295,-6.68E-4,-0.002693,136.38,-36.24,143.7,253.5944,-1.4816,-0.4107,1002.8804,55.81399,37.500244,207.794,NaN,,0.0,8.0,,21 / 25,,3356,2021-05-11 18:51:39:473
0.071828,0.323227,9.785401,0.070885,0.24232,9.8034,0.006005,0.001775,-0.003914,135.96,-36.3,144.0,253.6481,-1.4268,-0.4112,1002.8804,55.81399,37.500244,207.794,NaN,,0.0,8.0,,21 / 25,,3366,2021-05-11 18:51:39:483
0.05028,0.306467,9.73991,0.070885,0.24232,9.8034,-1.04E-4,0.008495,-0.003914,135.96,-36.3,144.0,253.6481,-1.4268,-0.4112,1002.8804,55.81399,37.500244,207.794,NaN,,0.0,8.0,,21 / 25,,3376,2021-05-11 18:51:39:493
0.021548,0.287313,9.826104,0.071993,0.245781,9.803305,-0.019041,0.018879,-0.001471,135.96,-36.06,144.48,253.6481,-1.4268,-0.4112,1002.8804,55.81399,37.500244,207.794,NaN,,0.0,8.0,,21 / 25,,3386,2021-05-11 18:51:39:503
0.021548,0.287313,9.826104,0.06857,0.247978,9.803274,-0.014154,0.020101,3.62E-4,136.38,-36.42,144.0,253.636,-1.4361,-0.4208,1002.8804,55.81399,37.500244,207.794,NaN,,0.0,8.0,,21 / 25,,3396,2021-05-11 18:51:39:513
0.023943,0.203513,9.938635,0.06857,0.247978,9.803274,-0.014154,0.020101,3.62E-4,136.38,-36.42,144.0,253.636,-1.4361,-0.4208,1002.8804,55.81399,37.500244,207.794,NaN,,0.0,8.0,,21 / 25,,3406,2021-05-11 18:51:39:523
0.045491,0.220273,9.964972,0.062765,0.248833,9.803291,0.023109,0.004219,-0.002082,136.38,-36.72,144.72,253.636,-1.4361,-0.4208,1002.8804,55.81399,37.500244,207.794,NaN,,0.0,8.0,,21 / 25,,3416,2021-05-11 18:51:39:533
0.064645,0.222668,9.921875,0.062765,0.248833,9.803291,0.023109,0.004219,-0.002082,136.38,-36.72,144.72,253.636,-1.4361,-0.4208,1002.8804,55.81399,37.500244,207.794,NaN,,0.0,8.0,,21 / 25,,3426,2021-05-11 18:51:39:543
0.081405,0.277736,9.794978,0.062765,0.248833,9.803291,0.036548,-0.003112,-0.003304,136.38,-36.72,144.72,253.636,-1.4361,-0.4208,1002.8872,55.81399,37.500244,207.794,NaN,,0.0,8.0,,21 / 25,,3436,2021-05-11 18:51:39:553
0.143657,0.299284,9.699207,0.060381,0.252983,9.803201,0.030439,0.001164,-0.002693,136.86,-36.36,144.6,253.7386,-1.454,-0.3668,1002.8872,55.81399,37.500244,207.794,NaN,,0.0,8.0,,21 / 25,,3446,2021-05-11 18:51:39:563
0.143657,0.299284,9.699207,0.060381,0.252983,9.803201,0.010281,0.007273,-0.005747,136.86,-36.36,144.6,253.7386,-1.454,-0.3668,1002.8872,55.81399,37.500244,207.794,NaN,,0.0,8.0,,21 / 25,,3456,2021-05-11 18:51:39:573
0.105348,0.299284,9.687236,0.060638,0.257263,9.803087,-0.006212,0.018269,-0.004525,137.28,-36.36,144.66,253.7386,-1.454,-0.3668,1002.8872,55.81399,37.500244,207.794,NaN,,0.0,8.0,,21 / 25,,3466,2021-05-11 18:51:39:583
0.040703,0.268159,9.842864,0.060335,0.256388,9.803112,-0.021484,0.018879,-0.010634,137.16,-35.94,145.02,253.6942,-1.5032,-0.3544,1002.8872,55.81399,37.500244,207.794,NaN,,0.0,8.0,,21 / 25,,3476,2021-05-11 18:51:39:593
0.009577,0.208302,9.90272,0.060335,0.256388,9.803112,-0.020262,0.023155,-0.011245,137.16,-35.94,145.02,253.6942,-1.5032,-0.3544,1002.8872,55.81399,37.500244,207.794,NaN,,0.0,8.0,,21 / 25,,3486,2021-05-11 18:51:39:603
0.009577,0.208302,9.90272,0.060335,0.256388,9.803112,-0.006212,0.014603,-0.009412,137.16,-35.94,145.02,253.6942,-1.5032,-0.3544,1002.8872,55.81399,37.500244,207.794,NaN,,0.0,8.0,,21 / 25,,3496,2021-05-11 18:51:39:613
0.035914,0.21309,9.852441,0.056484,0.253861,9.803202,0.001118,0.00483,-0.010634,136.86,-35.22,144.18,253.6942,-1.5032,-0.3544,1002.8872,55.81399,37.500244,207.794,NaN,,0.0,8.0,,21 / 25,,3506,2021-05-11 18:51:39:623
0.055068,0.24661,9.845258,0.056484,0.253861,9.803202,0.00234,0.003608,-0.014299,136.86,-35.22,144.18,253.6942,-1.5032,-0.3544,1002.8872,55.81399,37.500244,207.794,NaN,,0.0,8.0,,21 / 25,,3516,2021-05-11 18:51:39:633
0.076617,0.26337,9.794978,0.054403,0.252484,9.803248,0.012724,-0.001279,-0.01491,136.5,-35.28,143.64,254.1203,-1.4834,-0.3301,1002.8879,55.81399,37.500244,207.794,NaN,,0.0,8.0,,21 / 25,,3526,2021-05-11 18:51:39:643
0.059857,0.31365,9.708784,0.054898,0.253893,9.803209,0.014557,0.001164,-0.010634,136.56,-35.82,144.12,254.1203,-1.4834,-0.3301,1002.8879,55.81399,37.500244,207.794,NaN,,0.0,8.0,,21 / 25,,3536,2021-05-11 18:51:39:653
0.007183,0.339987,9.732727,0.054898,0.253893,9.803209,0.007837,0.002386,-0.00819,136.56,-35.82,144.12,254.1203,-1.4834,-0.3301,1002.8879,55.81399,37.500244,207.794,NaN,,0.0,8.0,,21 / 25,,3546,2021-05-11 18:51:39:663
0.007183,0.339987,9.732727,0.054898,0.253893,9.803209,0.003561,0.00544,-0.002693,136.56,-35.82,144.12,254.1203,-1.4834,-0.3301,1002.8879,55.81399,37.500244,207.794,NaN,,0.0,8.0,,21 / 25,,3557,2021-05-11 18:51:39:674
0.01676,0.301679,9.751882,0.054199,0.258452,9.803094,-0.002547,0.002386,-0.005136,136.62,-36.24,144.3,253.7346,-1.4835,-0.3209,1002.8879,55.81399,37.500244,207.794,NaN,,0.0,8.0,,21 / 25,,3566,2021-05-11 18:51:39:683
0.004789,0.270553,9.780613,0.054199,0.258452,9.803094,-0.009267,0.013992,-0.00758,136.62,-36.24,144.3,253.7346,-1.4835,-0.3209,1002.8879,55.81399,37.500244,207.794,NaN,,0.0,8.0,,21 / 25,,3576,2021-05-11 18:51:39:693
-0.028731,0.244216,9.818921,0.051199,0.262596,9.802999,-0.022095,0.020101,-0.00819,136.14,-36.48,144.18,253.7346,-1.4835,-0.3209,1002.8879,55.81399,37.500244,207.794,NaN,,0.0,8.0,,21 / 25,,3586,2021-05-11 18:51:39:703
-0.014366,0.205908,9.862018,0.04368,0.260585,9.80309,-0.025149,0.016436,-0.010634,136.5,-36.24,144.54,253.6809,-1.5344,-0.2992,1002.8879,55.81399,37.500244,207.794,NaN,,0.0,8.0,,21 / 25,,3596,2021-05-11 18:51:39:713
-0.014366,0.205908,9.862018,0.04368,0.260585,9.80309,-0.024538,0.008495,-0.005747,136.5,-36.24,144.54,253.6809,-1.5344,-0.2992,1002.8879,55.81399,37.500244,207.794,NaN,,0.0,8.0,,21 / 25,,3606,2021-05-11 18:51:39:723
0.069434,0.294496,9.888355,0.04368,0.260585,9.80309,-0.01843,0.006662,-0.011245,136.5,-36.24,144.54,253.6809,-1.5344,-0.2992,1002.8879,55.81399,37.500244,207.794,NaN,,0.0,8.0,,21 / 25,,3616,2021-05-11 18:51:39:733
0.114925,0.282524,9.847652,0.037698,0.257063,9.803208,-0.008656,-6.68E-4,-0.010634,136.8,-35.94,144.66,253.6809,-1.5344,-0.2992,1002.896,55.81399,37.500244,207.794,NaN,,0.0,8.0,,21 / 25,,3626,2021-05-11 18:51:39:743
0.079011,0.256187,9.890749,0.03886,0.256994,9.803205,-0.003769,-0.007388,-0.012467,136.68,-36.24,144.12,253.7477,-1.5021,-0.2203,1002.896,55.81399,37.500244,207.794,NaN,,0.0,8.0,,21 / 25,,3636,2021-05-11 18:51:39:753
0.102954,0.234639,9.91948,0.03886,0.256994,9.803205,5.07E-4,-0.007999,-0.006969,136.68,-36.24,144.12,253.7477,-1.5021,-0.2203,1002.896,55.81399,37.500244,207.794,NaN,,0.0,8.0,,21 / 25,,3646,2021-05-11 18:51:39:763
0.102954,0.234639,9.91948,0.03886,0.256994,9.803205,0.008448,-0.002501,-0.005747,136.74,-36.24,143.94,253.7477,-1.5021,-0.2203,1002.896,55.81399,37.500244,207.794,NaN,,0.0,8.0,,21 / 25,,3655,2021-05-11 18:51:39:772
0.090982,0.215485,9.93624,0.043224,0.257223,9.803181,0.00967,0.007884,-0.00819,136.5,-36.0,143.94,253.7477,-1.5021,-0.2203,1002.896,55.81399,37.500244,207.794,NaN,,0.0,8.0,,21 / 25,,3666,2021-05-11 18:51:39:783
0.004789,0.201119,9.809344,0.043224,0.257223,9.803181,0.012113,0.00544,-0.011856,136.5,-36.0,143.94,253.7477,-1.5021,-0.2203,1002.896,55.81399,37.500244,207.794,NaN,,0.0,8.0,,21 / 25,,3676,2021-05-11 18:51:39:793
-0.002394,0.22985,9.818921,0.046285,0.256061,9.803198,0.005394,-0.00189,-0.016743,135.96,-35.94,144.48,253.6242,-1.4962,-0.2705,1002.896,55.81399,37.500244,207.794,NaN,,0.0,8.0,,21 / 25,,3686,2021-05-11 18:51:39:803
-0.004789,0.292102,9.840469,0.047484,0.253639,9.803254,0.007227,0.00483,-0.01491,135.96,-35.94,144.48,253.6242,-1.4962,-0.2705,1002.896,55.81399,37.500244,207.794,NaN,,0.0,8.0,,21 / 25,,3696,2021-05-11 18:51:39:813
-0.004789,0.292102,9.840469,0.047484,0.253639,9.803254,0.007227,0.00483,-0.01491,135.96,-35.94,144.48,253.6242,-1.4962,-0.2705,1002.896,55.81399,37.500244,207.794,NaN,,0.0,8.0,,21 / 25,,3706,2021-05-11 18:51:39:823
-0.002394,0.275342,9.792584,0.046285,0.253465,9.803265,0.010892,0.009716,-0.012467,136.32,-35.82,144.06,253.6242,-1.4962,-0.2705,1002.896,55.81399,37.500244,207.794,NaN,,0.0,8.0,,21 / 25,,3716,2021-05-11 18:51:39:833
-0.002394,0.34717,9.644139,0.041952,0.25621,9.803213,0.013335,5.53E-4,-0.011856,137.16,-36.3,144.12,253.7526,-1.481,-0.2705,1002.896,55.81399,37.500244,207.794,NaN,,0.0,8.0,,21 / 25,,3726,2021-05-11 18:51:39:843
0.03352,0.323227,9.617802,0.041952,0.25621,9.803213,0.006616,-0.006166,-0.00819,137.16,-36.3,144.12,253.7526,-1.481,-0.2705,1002.896,55.81399,37.500244,207.794,NaN,,0.0,8.0,,21 / 25,,3736,2021-05-11 18:51:39:853
0.035914,0.323227,9.672871,0.039837,0.261592,9.80308,-0.005602,5.53E-4,-0.003914,136.68,-36.3,145.14,253.7526,-1.481,-0.2705,1002.896,55.81399,37.500244,207.794,NaN,,0.0,8.0,,21 / 25,,3746,2021-05-11 18:51:39:863
0.035914,0.323227,9.672871,0.039837,0.261592,9.80308,-0.019652,0.00544,-0.005136,136.68,-36.3,145.14,253.7526,-1.481,-0.2705,1002.896,55.81399,37.500244,207.794,NaN,,0.0,8.0,,21 / 25,,3757,2021-05-11 18:51:39:874
0.059857,0.24661,9.759064,0.03792,0.26305,9.803048,-0.031258,0.009106,-0.003304,136.62,-36.24,144.48,253.7182,-1.5285,-0.2328,1002.896,55.81399,37.500244,207.794,NaN,,0.0,8.0,,21 / 25,,3766,2021-05-11 18:51:39:883
0.040703,0.227456,9.905115,0.03792,0.26305,9.803048,-0.03248,0.008495,-0.006358,136.62,-36.24,144.48,253.7182,-1.5285,-0.2328,1002.896,55.81399,37.500244,207.794,NaN,,0.0,8.0,,21 / 25,,3776,2021-05-11 18:51:39:893
0.002394,0.181965,9.950606,0.036779,0.258929,9.803163,-0.016597,-0.00189,-0.006358,137.04,-36.6,143.88,253.7182,-1.5285,-0.2328,1002.896,55.81399,37.500244,207.794,NaN,,0.0,8.0,,21 / 25,,3786,2021-05-11 18:51:39:903
0.002394,0.181965,9.950606,0.036779,0.258929,9.803163,-0.006212,-0.00922,-0.008801,137.04,-36.6,143.88,253.7182,-1.5285,-0.2328,1002.896,55.81399,37.500244,207.794,NaN,,0.0,8.0,,21 / 25,,3796,2021-05-11 18:51:39:913
0.004789,0.189148,9.926663,0.037039,0.256797,9.803217,0.005394,-0.013496,-0.005747,136.62,-36.6,144.42,253.7182,-1.5285,-0.2328,1002.896,55.81399,37.500244,207.794,NaN,,0.0,8.0,,21 / 25,,3805,2021-05-11 18:51:39:922
-0.038308,0.21309,9.864412,0.037039,0.256797,9.803217,0.005394,-0.013496,-0.005747,136.62,-36.6,144.42,253.7182,-1.5285,-0.2328,1002.896,55.81399,37.500244,207.794,NaN,,0.0,8.0,,21 / 25,,3815,2021-05-11 18:51:39:932
-0.047885,0.237033,9.833286,0.036711,0.253326,9.803309,0.006616,-0.013496,3.62E-4,136.92,-36.48,144.18,253.7504,-1.5005,-0.2165,1002.8911,55.81399,37.500244,207.794,NaN,,0.0,8.0,,21 / 25,,3826,2021-05-11 18:51:39:943
-0.047885,0.237033,9.833286,0.036711,0.253326,9.803309,5.07E-4,-0.009831,0.001583,136.92,-36.48,144.18,253.7504,-1.5005,-0.2165,1002.8911,55.81399,37.500244,207.794,NaN,,0.0,8.0,,21 / 25,,3835,2021-05-11 18:51:39:952
-0.01676,0.260976,9.845258,0.033339,0.251216,9.803375,0.001118,-0.00922,0.004027,136.8,-36.12,144.18,253.7504,-1.5005,-0.2165,1002.8911,55.81399,37.500244,207.794,NaN,,0.0,8.0,,21 / 25,,3846,2021-05-11 18:51:39:963
0.011971,0.26337,9.845258,0.033339,0.251216,9.803375,0.005394,-0.00922,0.00647,136.8,-36.12,144.18,253.7504,-1.5005,-0.2165,1002.8911,55.81399,37.500244,207.794,NaN,,0.0,8.0,,21 / 25,,3855,2021-05-11 18:51:39:972
0.064645,0.292102,9.802161,0.028759,0.250272,9.803414,0.006005,-0.006777,-0.002693,136.62,-35.7,144.48,253.8023,-1.4624,-0.1681,1002.8911,55.81399,37.500244,207.794,NaN,,0.0,8.0,,21 / 25,,3866,2021-05-11 18:51:39:983
0.059857,0.323227,9.778218,0.028759,0.250272,9.803414,0.006005,-0.005555,-0.003304,136.62,-35.7,144.48,253.8023,-1.4624,-0.1681,1002.8911,55.81399,37.500244,207.794,NaN,,0.0,8.0,,21 / 25,,3876,2021-05-11 18:51:39:993
0.059857,0.323227,9.778218,0.027091,0.252305,9.803367,0.007837,-0.00189,-0.003304,136.26,-36.0,144.0,253.8023,-1.4624,-0.1681,1002.8911,55.81399,37.500244,207.794,NaN,,0.0,8.0,,21 / 25,,3886,2021-05-11 18:51:40:003
-0.01676,0.294496,9.744699,0.025727,0.256278,9.803267,-0.001326,0.003608,-0.003914,136.56,-36.36,144.9,253.7835,-1.4743,-0.1583,1002.8911,55.81399,37.500244,207.794,NaN,,0.0,8.0,,21 / 25,,3896,2021-05-11 18:51:40:013
-0.004789,0.265765,9.737515,0.025727,0.256278,9.803267,-0.008656,0.007273,0.001583,136.56,-36.36,144.9,253.7835,-1.4743,-0.1583,1002.8911,55.81399,37.500244,207.794,NaN,,0.0,8.0,,21 / 25,,3906,2021-05-11 18:51:40:023
-0.009577,0.24661,9.816526,0.025727,0.256278,9.803267,-0.010489,0.006662,0.003416,136.56,-36.36,144.9,253.7835,-1.4743,-0.1583,1002.8911,55.81399,37.500244,207.794,NaN,,0.0,8.0,,21 / 25,,3916,2021-05-11 18:51:40:033
0.014366,0.227456,9.859624,0.02153,0.257909,9.803234,-0.007434,0.007273,0.002805,136.26,-36.06,144.3,253.7835,-1.4743,-0.1583,1002.8911,55.81399,37.500244,207.794,NaN,,0.0,8.0,,21 / 25,,3926,2021-05-11 18:51:40:043
0.014366,0.227456,9.859624,0.01778,0.258109,9.803237,-0.00438,0.006662,0.007081,135.9,-36.12,143.46,253.6693,-1.507,-0.1258,1002.8862,55.81399,37.500244,207.794,NaN,,0.0,8.0,,21 / 25,,3936,2021-05-11 18:51:40:053
0.043097,0.22985,9.897932,0.01778,0.258109,9.803237,5.07E-4,0.009106,0.004027,135.9,-36.12,143.46,253.6693,-1.507,-0.1258,1002.8862,55.81399,37.500244,207.794,NaN,,0.0,8.0,,21 / 25,,3946,2021-05-11 18:51:40:063
0.076617,0.258582,9.866806,0.016632,0.257893,9.803245,0.005394,0.011549,0.003416,136.68,-35.94,144.48,253.6693,-1.507,-0.1258,1002.8862,55.81399,37.500244,207.794,NaN,,0.0,8.0,,21 / 25,,3956,2021-05-11 18:51:40:073
0.090982,0.258582,9.828498,0.016632,0.257893,9.803245,0.007837,0.01216,-0.004525,136.68,-35.94,144.48,253.6693,-1.507,-0.1258,1002.8862,55.81399,37.500244,207.794,NaN,,0.0,8.0,,21 / 25,,3966,2021-05-11 18:51:40:083
0.090982,0.258582,9.828498,0.016632,0.257893,9.803245,0.009059,0.012771,-0.008801,136.68,-35.94,144.48,253.6693,-1.507,-0.1258,1002.8862,55.81399,37.500244,207.794,NaN,,0.0,8.0,,21 / 25,,3976,2021-05-11 18:51:40:093
0.038308,0.306467,9.759064,0.018235,0.259088,9.80321,0.00295,0.009716,-0.010023,136.74,-35.82,144.66,253.7706,-1.5069,-0.0972,1002.8862,55.81399,37.500244,207.794,NaN,,0.0,8.0,,21 / 25,,3986,2021-05-11 18:51:40:103
-0.026337,0.292102,9.73991,0.020325,0.261584,9.80314,-0.003769,0.010938,-0.006969,136.8,-35.7,144.42,253.7706,-1.5069,-0.0972,1002.8862,55.81399,37.500244,207.794,NaN,,0.0,8.0,,21 / 25,,3996,2021-05-11 18:51:40:113
-0.009577,0.29689,9.809344,0.020325,0.261584,9.80314,-0.004991,0.009716,-0.003304,136.8,-35.7,144.42,253.7706,-1.5069,-0.0972,1002.8862,55.81399,37.500244,207.794,NaN,,0.0,8.0,,21 / 25,,4006,2021-05-11 18:51:40:123
-0.045491,0.260976,9.830893,0.020325,0.261584,9.80314,-1.04E-4,0.020712,0.002194,136.56,-35.76,144.66,253.7429,-1.5285,-0.1188,1002.8862,55.81399,37.500244,207.794,NaN,,0.0,8.0,,21 / 25,,4016,2021-05-11 18:51:40:133
-0.045491,0.260976,9.830893,0.018357,0.263873,9.803082,-1.04E-4,0.020712,0.002194,136.56,-35.76,144.66,253.7429,-1.5285,-0.1188,1002.8862,55.81399,37.500244,207.794,NaN,,0.0,8.0,,21 / 25,,4026,2021-05-11 18:51:40:143
-0.014366,0.239427,9.862018,0.018357,0.263873,9.803082,0.006005,0.010938,0.005859,136.56,-35.76,144.66,253.7429,-1.5285,-0.1188,1002.8862,55.81399,37.500244,207.794,NaN,,0.0,8.0,,21 / 25,,4036,2021-05-11 18:51:40:153
0.047885,0.256187,9.900327,0.013501,0.266022,9.803032,0.020055,0.00544,0.001583,136.44,-35.82,144.84,253.7429,-1.5285,-0.1188,1002.8862,55.81399,37.500244,207.794,NaN,,0.0,8.0,,21 / 25,,4046,2021-05-11 18:51:40:163
0.102954,0.268159,9.835681,0.013477,0.26983,9.802928,0.027996,-0.003723,3.62E-4,137.34,-35.64,144.3,253.7407,-1.5544,-0.0789,1002.8862,55.81399,37.500244,207.794,NaN,,0.0,8.0,,21 / 25,,4057,2021-05-11 18:51:40:174
0.102954,0.268159,9.835681,0.013477,0.26983,9.802928,0.029218,-0.004944,-0.00819,137.34,-35.64,144.3,253.7407,-1.5544,-0.0789,1002.8862,55.81399,37.500244,207.794,NaN,,0.0,8.0,,21 / 25,,4066,2021-05-11 18:51:40:183
0.0838,0.301679,9.754275,0.013477,0.26983,9.802928,0.026163,-0.004333,-0.016743,137.34,-35.64,144.3,253.7407,-1.5544,-0.0789,1002.8862,55.81399,37.500244,207.794,NaN,,0.0,8.0,,21 / 25,,4076,2021-05-11 18:51:40:193
0.019154,0.306467,9.694419,0.01812,0.274558,9.802789,0.015168,0.002997,-0.014299,137.7,-35.94,143.7,253.7407,-1.5544,-0.0789,1002.8862,55.81399,37.500244,207.794,NaN,,0.0,8.0,,21 / 25,,4085,2021-05-11 18:51:40:202
-0.038308,0.311256,9.735122,0.01812,0.274558,9.802789,0.008448,0.008495,-0.00819,137.7,-35.94,143.7,253.7407,-1.5544,-0.0789,1002.8862,55.81399,37.500244,207.5036,NaN,,0.0,8.0,,23 / 25,,4097,2021-05-11 18:51:40:214
-0.031126,0.332804,9.766247,0.021533,0.277696,9.802694,0.007837,0.009106,-0.001471,137.04,-35.34,143.94,254.0708,-1.6043,-0.1059,1002.8862,55.81399,37.500244,207.5036,NaN,,0.0,8.0,,23 / 25,,4106,2021-05-11 18:51:40:223
-0.031126,0.332804,9.766247,0.019081,0.281352,9.802595,0.006005,0.015214,0.001583,136.62,-35.16,144.96,254.0708,-1.6043,-0.1059,1002.8862,55.81399,37.500244,207.5036,NaN,,0.0,8.0,,23 / 25,,4116,2021-05-11 18:51:40:233
-0.028731,0.289707,9.730332,0.019081,0.281352,9.802595,0.00295,0.011549,0.002194,136.62,-35.16,144.96,254.0708,-1.6043,-0.1059,1002.8752,55.81399,37.500244,207.5036,NaN,,0.0,8.0,,23 / 25,,4126,2021-05-11 18:51:40:243
-0.028731,0.277736,9.780613,0.013759,0.28473,9.802506,-0.001936,0.010938,9.72E-4,136.56,-35.76,145.08,253.6329,-1.644,-0.1115,1002.8752,55.81399,37.500244,207.5036,NaN,,0.0,8.0,,23 / 25,,4136,2021-05-11 18:51:40:253
0.028731,0.270553,9.847652,0.013759,0.28473,9.802506,-0.005602,0.025599,-8.6E-4,136.56,-35.76,145.08,253.6329,-1.644,-0.1115,1002.8752,55.81399,37.500244,207.5036,NaN,,0.0,8.0,,23 / 25,,4146,2021-05-11 18:51:40:263
0.028731,0.270553,9.847652,0.013759,0.28473,9.802506,-0.005602,0.025599,-8.6E-4,136.56,-35.76,145.08,253.6329,-1.644,-0.1115,1002.8752,55.81399,37.500244,207.5036,NaN,,0.0,8.0,,23 / 25,,4156,2021-05-11 18:51:40:273
-0.004789,0.260976,9.847652,0.008074,0.28496,9.802505,5.07E-4,0.01949,-0.004525,136.32,-35.64,144.78,253.6329,-1.644,-0.1115,1002.8752,55.81399,37.500244,207.5036,NaN,,0.0,8.0,,23 / 25,,4167,2021-05-11 18:51:40:284
0.004789,0.244216,9.814133,0.004182,0.28462,9.802518,0.011503,0.002997,-0.005747,136.14,-35.82,144.72,253.5187,-1.6651,-0.0472,1002.8752,55.81399,37.500244,207.5036,NaN,,0.0,8.0,,23 / 25,,4176,2021-05-11 18:51:40:293
-0.011971,0.292102,9.854836,0.004182,0.28462,9.802518,0.015779,-0.004333,-0.00819,136.14,-35.82,144.72,253.5187,-1.6651,-0.0472,1002.8752,55.81399,37.500244,207.5036,NaN,,0.0,8.0,,23 / 25,,4186,2021-05-11 18:51:40:303
-0.007183,0.311256,9.811738,0.00387,0.286047,9.802477,0.020055,-5.7E-5,-0.006969,136.74,-36.0,144.42,253.5187,-1.6651,-0.0472,1002.8752,55.81399,37.500244,207.5036,NaN,,0.0,8.0,,23 / 25,,4196,2021-05-11 18:51:40:313
-0.007183,0.311256,9.811738,0.00387,0.286047,9.802477,0.012724,0.00483,-0.005136,136.74,-36.0,144.42,253.5187,-1.6651,-0.0472,1002.8752,55.81399,37.500244,207.5036,NaN,,0.0,8.0,,23 / 25,,4206,2021-05-11 18:51:40:323
-0.004789,0.292102,9.70639,0.00387,0.286047,9.802477,0.009059,-6.68E-4,-0.005136,136.74,-36.0,144.42,253.5187,-1.6651,-0.0472,1002.8752,55.81399,37.500244,207.5036,NaN,,0.0,8.0,,23 / 25,,4216,2021-05-11 18:51:40:333
-0.026337,0.323227,9.713573,0.001996,0.288257,9.802412,-1.04E-4,-0.002501,-0.006969,136.98,-36.18,144.36,253.6455,-1.6715,-0.0226,1002.8711,55.81399,37.500244,207.5036,NaN,,0.0,8.0,,23 / 25,,4226,2021-05-11 18:51:40:343
-0.026337,0.323227,9.713573,0.00108,0.289633,9.802372,-0.012932,0.006662,-0.005136,137.1,-36.36,145.2,253.6455,-1.6715,-0.0226,1002.8711,55.81399,37.500244,207.5036,NaN,,0.0,8.0,,23 / 25,,4235,2021-05-11 18:51:40:352
0.004789,0.306467,9.754275,0.00108,0.289633,9.802372,-0.016597,0.009106,3.62E-4,137.1,-36.36,145.2,253.6455,-1.6715,-0.0226,1002.8711,55.81399,37.500244,207.5036,NaN,,0.0,8.0,,23 / 25,,4246,2021-05-11 18:51:40:363
0.064645,0.26337,9.766247,2.51E-4,0.288462,9.802406,-0.01171,-5.7E-5,-0.00758,136.56,-36.48,145.62,253.6076,-1.6924,-0.0063,1002.8711,55.81399,37.500244,207.5036,NaN,,0.0,8.0,,23 / 25,,4256,2021-05-11 18:51:40:373
0.0838,0.26337,9.826104,2.51E-4,0.288462,9.802406,-7.15E-4,-0.012886,-0.013688,136.56,-36.48,145.62,253.6076,-1.6924,-0.0063,1002.8711,55.81399,37.500244,207.5036,NaN,,0.0,8.0,,23 / 25,,4266,2021-05-11 18:51:40:383
0.040703,0.29689,9.845258,2.51E-4,0.288462,9.802406,0.014557,-0.020216,-0.017353,136.56,-36.48,145.62,253.6076,-1.6924,-0.0063,1002.8711,55.81399,37.500244,207.5036,NaN,,0.0,8.0,,23 / 25,,4276,2021-05-11 18:51:40:393
0.040703,0.29689,9.845258,0.005954,0.28741,9.802436,0.023109,-0.00861,-0.013688,136.32,-36.36,144.96,253.6076,-1.6924,-0.0063,1002.8711,55.81399,37.500244,207.5036,NaN,,0.0,8.0,,23 / 25,,4285,2021-05-11 18:51:40:402
-0.081405,0.342381,9.720756,0.009759,0.292324,9.802287,0.015779,-0.001279,-0.00758,137.22,-35.82,144.36,253.634,-1.6794,-0.0348,1002.8711,55.81399,37.500244,207.5036,NaN,,0.0,8.0,,23 / 25,,4296,2021-05-11 18:51:40:413
-0.088588,0.361536,9.596253,0.009759,0.292324,9.802287,-0.002547,0.007884,9.72E-4,137.22,-35.82,144.36,253.634,-1.6794,-0.0348,1002.8711,55.81399,37.500244,207.5036,NaN,,0.0,8.0,,23 / 25,,4306,2021-05-11 18:51:40:423
-0.074223,0.320833,9.63935,0.0038,0.296121,9.802178,-0.035534,0.021934,3.62E-4,136.62,-35.88,144.18,253.634,-1.6794,-0.0348,1002.8711,55.81399,37.500244,207.5036,NaN,,0.0,8.0,,23 / 25,,4317,2021-05-11 18:51:40:434
-0.074223,0.26337,9.845258,0.0038,0.296121,9.802178,-0.052027,0.024988,-0.003914,136.62,-35.88,144.18,253.634,-1.6794,-0.0348,1002.8711,55.81399,37.500244,207.5036,NaN,,0.0,8.0,,23 / 25,,4326,2021-05-11 18:51:40:443
-0.074223,0.26337,9.845258,0.0038,0.296121,9.802178,-0.043475,0.015825,-0.00758,136.62,-35.88,144.18,253.634,-1.6794,-0.0348,1002.8711,55.81399,37.500244,207.5036,NaN,,0.0,8.0,,23 / 25,,4336,2021-05-11 18:51:40:453
-0.079011,0.251399,10.0368,-0.007196,0.290579,9.802341,-0.020873,-6.68E-4,-0.010634,136.56,-36.36,144.6,253.5773,-1.7304,-0.0222,1002.8711,55.81399,37.500244,207.5036,NaN,,0.0,8.0,,23 / 25,,4346,2021-05-11 18:51:40:463
-0.076617,0.289707,9.996098,-0.014861,0.286042,9.802466,0.00295,-0.014107,-0.008801,136.62,-36.36,144.36,253.5773,-1.7304,-0.0222,1002.8711,55.81399,37.500244,207.5036,NaN,,0.0,8.0,,23 / 25,,4356,2021-05-11 18:51:40:473
-0.045491,0.289707,9.93624,-0.014861,0.286042,9.802466,0.011503,-0.018383,-2.49E-4,136.62,-36.36,144.36,253.5773,-1.7304,-0.0222,1002.8711,55.81399,37.500244,207.5036,NaN,,0.0,8.0,,23 / 25,,4367,2021-05-11 18:51:40:484
-0.045491,0.289707,9.93624,-0.014861,0.286042,9.802466,0.008448,-0.006777,9.72E-4,136.62,-36.36,144.36,253.5773,-1.7304,-0.0222,1002.8711,55.81399,37.500244,207.5036,NaN,,0.0,8.0,,23 / 25,,4376,2021-05-11 18:51:40:493
0.002394,0.316044,9.857229,-0.018248,0.287758,9.802411,0.001729,-0.004944,0.007081,136.26,-36.18,144.36,253.5661,-1.6715,0.0869,1002.8711,55.81399,37.500244,207.5036,NaN,,0.0,8.0,,23 / 25,,4386,2021-05-11 18:51:40:503
0.043097,0.268159,9.857229,-0.018248,0.287758,9.802411,-7.15E-4,0.003608,0.005859,136.26,-36.18,144.36,253.5661,-1.6715,0.0869,1002.8711,55.81399,37.500244,207.5036,NaN,,0.0,8.0,,23 / 25,,4396,2021-05-11 18:51:40:513
0.047885,0.237033,9.909904,-0.020049,0.289031,9.80237,0.003561,0.002386,-0.001471,136.2,-36.54,144.48,253.5661,-1.6715,0.0869,1002.8711,55.81399,37.500244,207.5036,NaN,,0.0,8.0,,23 / 25,,4406,2021-05-11 18:51:40:523
0.028731,0.225062,9.948212,-0.01897,0.287348,9.802422,0.012113,5.53E-4,-0.006358,136.44,-36.78,144.36,253.173,-1.6889,0.1172,1002.8711,55.81399,37.500244,207.5036,NaN,,0.0,8.0,,23 / 25,,4416,2021-05-11 18:51:40:533
-0.055068,0.241822,9.890749,-0.01897,0.287348,9.802422,0.024331,-5.7E-5,-0.006969,136.44,-36.78,144.36,253.173,-1.6889,0.1172,1002.8752,55.81399,37.500244,207.5036,NaN,,0.0,8.0,,23 / 25,,4426,2021-05-11 18:51:40:543
-0.055068,0.241822,9.890749,-0.01897,0.287348,9.802422,0.024331,-5.7E-5,-0.006969,136.32,-36.24,144.54,253.173,-1.6889,0.1172,1002.8752,55.81399,37.500244,207.5036,NaN,,0.0,8.0,,23 / 25,,4436,2021-05-11 18:51:40:553
-0.076617,0.292102,9.804555,-0.016951,0.286325,9.802455,0.027385,-0.003112,-0.010634,136.32,-36.24,144.54,253.173,-1.6889,0.1172,1002.8752,55.81399,37.500244,207.5036,NaN,,0.0,8.0,,23 / 25,,4446,2021-05-11 18:51:40:563
-0.069434,0.335198,9.715967,-0.016951,0.286325,9.802455,0.024942,0.002386,-0.004525,136.32,-36.24,144.54,253.173,-1.6889,0.1172,1002.8752,55.81399,37.500244,207.5036,NaN,,0.0,8.0,,23 / 25,,4455,2021-05-11 18:51:40:572
-0.059857,0.342381,9.692024,-0.018563,0.287438,9.80242,0.010892,0.007884,-8.6E-4,136.68,-35.4,144.66,254.0557,-1.6731,0.0991,1002.8752,55.81399,37.500244,207.5036,NaN,,0.0,8.0,,23 / 25,,4466,2021-05-11 18:51:40:583
-0.059857,0.342381,9.692024,-0.018563,0.287438,9.80242,5.07E-4,0.01216,0.001583,136.68,-35.4,144.66,254.0557,-1.6731,0.0991,1002.8752,55.81399,37.500244,207.5036,NaN,,0.0,8.0,,23 / 25,,4476,2021-05-11 18:51:40:593
-0.035914,0.308861,9.749487,-0.024217,0.288838,9.802365,-0.00438,0.017658,-8.6E-4,137.1,-36.0,145.08,254.0557,-1.6731,0.0991,1002.8752,55.81399,37.500244,207.5036,NaN,,0.0,8.0,,23 / 25,,4486,2021-05-11 18:51:40:603
-0.047885,0.29689,9.840469,-0.024217,0.288838,9.802365,-0.010489,0.022545,-2.49E-4,137.1,-36.0,145.08,254.0557,-1.6731,0.0991,1002.8752,55.81399,37.500244,207.5036,NaN,,0.0,8.0,,23 / 25,,4496,2021-05-11 18:51:40:613
-0.047885,0.29689,9.840469,-0.030728,0.288877,9.802346,-0.004991,0.017047,-2.49E-4,136.2,-36.78,144.96,253.1708,-1.6878,0.1416,1002.8752,55.81399,37.500244,207.5036,NaN,,0.0,8.0,,23 / 25,,4506,2021-05-11 18:51:40:623
-0.045491,0.270553,9.835681,-0.030728,0.288877,9.802346,0.001729,0.006662,0.004638,136.2,-36.78,144.96,253.1708,-1.6878,0.1416,1002.8752,55.81399,37.500244,207.5036,NaN,,0.0,8.0,,23 / 25,,4516,2021-05-11 18:51:40:633
-0.009577,0.311256,9.847652,-0.034919,0.288901,9.802332,0.00295,-6.68E-4,0.00647,136.74,-36.36,144.48,253.1708,-1.6878,0.1416,1002.8752,55.81399,37.500244,207.5036,NaN,,0.0,8.0,,23 / 25,,4526,2021-05-11 18:51:40:643
0.03352,0.311256,9.792584,-0.036307,0.290443,9.80228,0.006616,-0.004944,0.007692,137.28,-36.48,144.6,253.6888,-1.6882,0.2041,1002.873,55.81399,37.500244,207.5036,NaN,,0.0,8.0,,23 / 25,,4536,2021-05-11 18:51:40:653
0.05028,0.318439,9.75667,-0.036307,0.290443,9.80228,0.00295,-0.001279,0.005859,137.28,-36.48,144.6,253.6888,-1.6882,0.2041,1002.873,55.81399,37.500244,207.5036,NaN,,0.0,8.0,,23 / 25,,4547,2021-05-11 18:51:40:664
0.05028,0.318439,9.75667,-0.032341,0.291462,9.802264,-0.00438,-5.7E-5,0.002194,136.68,-36.84,145.14,253.6888,-1.6882,0.2041,1002.873,55.81399,37.500244,207.5036,NaN,,0.0,8.0,,23 / 25,,4557,2021-05-11 18:51:40:674
0.0,0.328016,9.759064,-0.032341,0.291462,9.802264,-0.009267,0.002386,3.62E-4,136.68,-36.84,145.14,253.6888,-1.6882,0.2041,1002.873,55.81399,37.500244,207.5036,NaN,,0.0,8.0,,23 / 25,,4566,2021-05-11 18:51:40:683
0.0,0.328016,9.759064,-0.032341,0.291462,9.802264,-0.020262,0.004219,-0.005136,136.68,-36.84,145.14,253.6888,-1.6882,0.2041,1002.873,55.81399,37.500244,207.5036,NaN,,0.0,8.0,,23 / 25,,4576,2021-05-11 18:51:40:693
-0.062251,0.31365,9.845258,-0.02839,0.291874,9.802264,-0.019041,0.001775,-0.003914,136.32,-36.36,144.72,253.5565,-1.7031,0.189,1002.873,55.81399,37.500244,207.5036,NaN,,0.0,8.0,,23 / 25,,4586,2021-05-11 18:51:40:703
-0.06704,0.332804,9.883567,-0.027709,0.291966,9.802264,-0.010489,-0.00189,-8.6E-4,136.68,-36.18,144.66,253.5565,-1.7031,0.189,1002.873,55.81399,37.500244,207.5036,NaN,,0.0,8.0,,23 / 25,,4597,2021-05-11 18:51:40:714
-0.071828,0.299284,9.871595,-0.027709,0.291966,9.802264,-0.00438,-0.009831,-0.002082,136.68,-36.18,144.66,253.5565,-1.7031,0.189,1002.873,55.81399,37.500244,207.5036,NaN,,0.0,8.0,,23 / 25,,4606,2021-05-11 18:51:40:723
-0.071828,0.299284,9.871595,-0.027709,0.291966,9.802264,-0.001936,-0.00922,-8.6E-4,136.68,-36.18,144.66,253.5565,-1.7031,0.189,1002.873,55.81399,37.500244,207.5036,NaN,,0.0,8.0,,23 / 25,,4615,2021-05-11 18:51:40:732
-0.069434,0.270553,9.909904,-0.027964,0.294441,9.802189,-1.04E-4,-0.004333,0.002194,136.62,-36.48,145.08,253.6585,-1.7061,0.162,1002.873,55.81399,37.500244,207.5036,NaN,,0.0,8.0,,23 / 25,,4627,2021-05-11 18:51:40:744
-0.076617,0.258582,9.964972,-0.028602,0.294892,9.802174,0.006616,-0.003112,0.010135,136.56,-36.3,144.96,253.6585,-1.7061,0.162,1002.873,55.81399,37.500244,207.5036,NaN,,0.0,8.0,,23 / 25,,4636,2021-05-11 18:51:40:753
-0.052674,0.268159,9.914692,-0.028602,0.294892,9.802174,0.007227,-0.002501,0.010746,136.56,-36.3,144.96,253.6585,-1.7061,0.162,1002.873,55.81399,37.500244,207.5036,NaN,,0.0,8.0,,23 / 25,,4646,2021-05-11 18:51:40:763
-0.004789,0.260976,9.926663,-0.031666,0.294634,9.802172,0.012113,-0.004944,0.007692,136.38,-36.24,144.18,253.6585,-1.7061,0.162,1002.873,55.81399,37.500244,207.5036,NaN,,0.0,8.0,,23 / 25,,4656,2021-05-11 18:51:40:773
-0.014366,0.306467,9.931452,-0.033693,0.293348,9.802204,0.01639,-0.009831,0.007692,136.5,-37.08,144.3,253.279,-1.7217,0.1851,1002.873,55.81399,37.500244,207.5036,NaN,,0.0,8.0,,23 / 25,,4666,2021-05-11 18:51:40:783
-0.014366,0.306467,9.931452,-0.033693,0.293348,9.802204,0.01639,-0.009831,0.007692,136.5,-37.08,144.3,253.279,-1.7217,0.1851,1002.873,55.81399,37.500244,207.5036,NaN,,0.0,8.0,,23 / 25,,4676,2021-05-11 18:51:40:793
-0.002394,0.354353,9.850046,-0.033693,0.293348,9.802204,0.026163,-0.010442,0.002805,136.92,-36.84,144.66,253.279,-1.7217,0.1851,1002.873,55.81399,37.500244,207.5036,NaN,,0.0,8.0,,23 / 25,,4685,2021-05-11 18:51:40:802
-0.004789,0.354353,9.735122,-0.032346,0.296272,9.802121,0.024331,-0.011664,0.004027,136.92,-36.84,144.66,253.279,-1.7217,0.1851,1002.873,55.81399,37.500244,207.5036,NaN,,0.0,8.0,,23 / 25,,4696,2021-05-11 18:51:40:813
-0.028731,0.34717,9.658504,-0.030227,0.301499,9.801969,0.010281,-0.010442,0.004027,137.16,-36.06,144.84,253.279,-1.7217,0.1851,1002.873,55.81399,37.500244,207.5036,NaN,,0.0,8.0,,23 / 25,,4706,2021-05-11 18:51:40:823
-0.028731,0.34717,9.658504,-0.030227,0.301499,9.801969,-0.014154,0.004219,0.008303,136.56,-36.18,145.32,253.6095,-1.7618,0.1767,1002.873,55.81399,37.500244,207.5036,NaN,,0.0,8.0,,23 / 25,,4716,2021-05-11 18:51:40:833
-0.057463,0.337593,9.737515,-0.030227,0.301499,9.801969,-0.033091,0.018879,0.00647,136.56,-36.18,145.32,253.6095,-1.7618,0.1767,1002.873,55.81399,37.500244,207.5036,NaN,,0.0,8.0,,23 / 25,,4726,2021-05-11 18:51:40:843
-0.040703,0.28013,9.811738,-0.031969,0.302445,9.801933,-0.034312,0.017047,0.004027,136.62,-36.48,145.08,253.6095,-1.7618,0.1767,1002.8765,55.81399,37.500244,207.5036,NaN,,0.0,8.0,,23 / 25,,4736,2021-05-11 18:51:40:853
-0.004789,0.256187,9.979338,-0.035136,0.298765,9.802035,-0.024538,0.010938,0.002194,137.28,-36.48,143.94,253.6095,-1.7618,0.1767,1002.8765,55.81399,37.500244,207.5036,NaN,,0.0,8.0,,23 / 25,,4746,2021-05-11 18:51:40:863
-0.004789,0.256187,9.979338,-0.035136,0.298765,9.802035,-0.001326,0.002386,3.62E-4,137.28,-36.48,143.94,253.6095,-1.7618,0.1767,1002.8765,55.81399,37.500244,207.5036,NaN,,0.0,8.0,,23 / 25,,4756,2021-05-11 18:51:40:873
0.031126,0.22985,9.98652,-0.032686,0.296632,9.802109,0.013946,-0.009831,-0.006358,137.28,-36.66,144.84,253.2512,-1.7458,0.2054,1002.8765,55.81399,37.500244,207.5036,NaN,,0.0,8.0,,23 / 25,,4767,2021-05-11 18:51:40:884
0.019154,0.232245,9.907509,-0.032686,0.296632,9.802109,0.027996,-0.011053,-0.00758,137.28,-36.66,144.84,253.2512,-1.7458,0.2054,1002.8765,55.81399,37.500244,207.5036,NaN,,0.0,8.0,,23 / 25,,4776,2021-05-11 18:51:40:893
-0.01676,0.28013,9.845258,-0.026787,0.296711,9.802124,0.029829,-0.009831,-0.005747,137.04,-36.9,145.02,253.2512,-1.7458,0.2054,1002.8765,55.81399,37.500244,207.5036,NaN,,0.0,8.0,,23 / 25,,4786,2021-05-11 18:51:40:903
-0.023943,0.29689,9.804555,-0.026787,0.296711,9.802124,0.019444,-0.003723,-0.002693,137.04,-36.9,145.02,253.2512,-1.7458,0.2054,1002.8765,55.81399,37.500244,207.5036,NaN,,0.0,8.0,,23 / 25,,4796,2021-05-11 18:51:40:913
0.004789,0.323227,9.821315,-0.02209,0.296297,9.802148,0.017,-5.7E-5,-0.00758,136.86,-36.84,144.48,253.2584,-1.7338,0.1566,1002.8765,55.81399,37.500244,207.5036,NaN,,0.0,8.0,,23 / 25,,4806,2021-05-11 18:51:40:923
0.004789,0.323227,9.821315,-0.02209,0.296297,9.802148,0.017,-5.7E-5,-0.00758,136.86,-36.84,144.48,253.2584,-1.7338,0.1566,1002.8765,55.81399,37.500244,207.5036,NaN,,0.0,8.0,,23 / 25,,4817,2021-05-11 18:51:40:934
-0.023943,0.356747,9.730332,-0.02209,0.296297,9.802148,0.019444,-0.00861,-0.011856,136.86,-36.84,144.48,253.2584,-1.7338,0.1566,1002.8765,55.81399,37.500244,207.5036,NaN,,0.0,8.0,,23 / 25,,4826,2021-05-11 18:51:40:943
-0.019154,0.373507,9.699207,-0.018492,0.29869,9.802083,0.018222,-0.015329,-0.009412,136.86,-36.78,144.84,253.2584,-1.7338,0.1566,1002.8811,55.81399,37.500244,207.5036,NaN,,0.0,8.0,,23 / 25,,4836,2021-05-11 18:51:40:953
0.002394,0.342381,9.77343,-0.018492,0.29869,9.802083,0.001118,-0.00189,-0.00758,136.86,-36.78,144.84,253.2584,-1.7338,0.1566,1002.8811,55.81399,37.500244,207.5036,NaN,,0.0,8.0,,23 / 25,,4846,2021-05-11 18:51:40:963
0.002394,0.342381,9.77343,-0.014615,0.303427,9.801944,-0.003769,0.011549,-0.005747,136.86,-37.08,144.9,253.2206,-1.7454,0.1081,1002.8811,55.81399,37.500244,207.5036,NaN,,0.0,8.0,,23 / 25,,4855,2021-05-11 18:51:40:972
-0.01676,0.299284,9.804555,-0.014615,0.303427,9.801944,-1.04E-4,0.014603,-0.005136,136.86,-37.08,144.9,253.2206,-1.7454,0.1081,1002.8811,55.81399,37.500244,207.5036,NaN,,0.0,8.0,,23 / 25,,4866,2021-05-11 18:51:40:983
-0.002394,0.308861,9.799767,-0.014983,0.305082,9.801892,5.07E-4,0.010938,-0.008801,137.22,-36.48,144.9,253.2206,-1.7454,0.1081,1002.8811,55.81399,37.500244,207.5036,NaN,,0.0,8.0,,23 / 25,,4876,2021-05-11 18:51:40:993
0.007183,0.311256,9.804555,-0.015676,0.305919,9.801866,0.00295,0.009106,-0.00758,136.44,-36.6,144.42,253.0736,-1.7827,0.0876,1002.8811,55.81399,37.500244,207.5036,NaN,,0.0,8.0,,23 / 25,,4886,2021-05-11 18:51:41:003
-0.031126,0.320833,9.799767,-0.015969,0.308404,9.801786,0.012113,0.003608,-0.00758,136.62,-36.66,144.72,253.0736,-1.7827,0.0876,1002.8811,55.81399,37.500244,207.5036,NaN,,0.0,8.0,,23 / 25,,4896,2021-05-11 18:51:41:013
-0.031126,0.320833,9.799767,-0.015969,0.308404,9.801786,0.010892,-0.002501,-0.013077,136.62,-36.66,144.72,253.0736,-1.7827,0.0876,1002.8811,55.81399,37.500244,207.5036,NaN,,0.0,8.0,,23 / 25,,4906,2021-05-11 18:51:41:023
-0.014366,0.306467,9.835681,-0.01558,0.311743,9.801682,0.017,-0.004944,-0.010023,137.1,-37.02,144.96,253.0736,-1.7827,0.0876,1002.8811,55.81399,37.500244,207.5036,NaN,,0.0,8.0,,23 / 25,,4916,2021-05-11 18:51:41:033
-0.014366,0.306467,9.835681,-0.01558,0.311743,9.801682,0.017,-0.004944,-0.010023,137.1,-37.02,144.96,253.0736,-1.7827,0.0876,1002.8811,55.81399,37.500244,207.5036,NaN,,0.0,8.0,,23 / 25,,4926,2021-05-11 18:51:41:043
0.043097,0.316044,9.890749,-0.01558,0.311743,9.801682,0.022498,-0.011664,-0.014299,137.1,-37.02,144.96,253.0736,-1.7827,0.0876,1002.8811,55.81399,37.500244,207.5036,NaN,,0.0,8.0,,23 / 25,,4937,2021-05-11 18:51:41:054
0.045491,0.28013,9.90272,-0.012241,0.316318,9.801539,0.030439,-0.018994,-0.024073,136.62,-36.54,144.72,253.1421,-1.8217,0.0911,1002.8811,55.81399,37.500244,207.5036,NaN,,0.0,8.0,,23 / 25,,4946,2021-05-11 18:51:41:063
0.043097,0.268159,9.924269,-0.012241,0.316318,9.801539,0.03105,-0.020827,-0.021019,136.62,-36.54,144.72,253.1421,-1.8217,0.0911,1002.8811,55.81399,37.500244,207.5036,NaN,,0.0,8.0,,23 / 25,,4956,2021-05-11 18:51:41:073
0.071828,0.28013,9.931452,-0.005499,0.319809,9.801433,0.026163,-0.00922,-0.022851,135.96,-36.06,144.9,253.1421,-1.8217,0.0911,1002.8811,55.81399,37.500244,207.5036,NaN,,0.0,8.0,,23 / 25,,4966,2021-05-11 18:51:41:083
0.071828,0.28013,9.931452,-0.005499,0.319809,9.801433,0.022498,-0.00861,-0.028349,135.96,-36.06,144.9,253.1421,-1.8217,0.0911,1002.8811,55.81399,37.500244,207.5036,NaN,,0.0,8.0,,23 / 25,,4976,2021-05-11 18:51:41:093
0.055068,0.31365,9.924269,5.41E-4,0.319619,9.80144,0.02372,-0.010442,-0.028349,136.14,-36.66,145.2,252.9606,-1.8688,0.0321,1002.8811,55.81399,37.500244,207.5036,NaN,,0.0,8.0,,23 / 25,,4986,2021-05-11 18:51:41:103
0.026337,0.368718,9.840469,5.41E-4,0.319619,9.80144,0.040213,-0.014107,-0.023462,136.14,-36.66,145.2,252.9606,-1.8688,0.0321,1002.8811,55.81399,37.500244,207.5036,NaN,,0.0,8.0,,23 / 25,,4996,2021-05-11 18:51:41:113
0.081405,0.385478,9.715967,0.007605,0.320937,9.801394,0.046322,-0.017162,-0.018575,136.38,-36.78,145.08,252.9606,-1.8688,0.0321,1002.8811,55.81399,37.500244,207.5036,NaN,,0.0,8.0,,23 / 25,,5006,2021-05-11 18:51:41:123
0.095771,0.373507,9.629773,0.007605,0.320937,9.801394,0.035326,-0.012275,-0.019797,136.38,-36.78,145.08,252.9606,-1.8688,0.0321,1002.8811,55.81399,37.500244,207.5036,NaN,,0.0,8.0,,23 / 25,,5016,2021-05-11 18:51:41:133
0.095771,0.373507,9.629773,0.015673,0.327838,9.801156,0.013335,0.008495,-0.025295,136.38,-36.48,145.2,253.315,-1.8754,-0.0445,1002.8811,55.81399,37.500244,207.5036,NaN,,0.0,8.0,,23 / 25,,5025,2021-05-11 18:51:41:142
0.06704,0.359141,9.574705,0.018956,0.330638,9.801056,0.008448,0.013992,-0.02224,136.08,-36.6,145.2,253.315,-1.8754,-0.0445,1002.8833,55.81399,37.500244,207.5036,NaN,,0.0,8.0,,23 / 25,,5036,2021-05-11 18:51:41:153
0.011971,0.435758,9.598648,0.018956,0.330638,9.801056,-0.015375,0.01216,-0.034458,136.08,-36.6,145.2,253.315,-1.8754,-0.0445,1002.8833,55.81399,37.500244,207.5036,NaN,,0.0,8.0,,23 / 25,,5045,2021-05-11 18:51:41:162
0.011971,0.435758,9.598648,0.022875,0.334236,9.800926,-0.014154,-0.001279,-0.033236,136.44,-36.66,145.02,253.315,-1.8754,-0.0445,1002.8833,55.81399,37.500244,207.5036,NaN,,0.0,8.0,,23 / 25,,5056,2021-05-11 18:51:41:173
0.05028,0.361536,9.684841,0.022875,0.334236,9.800926,-0.014154,-0.001279,-0.037512,136.44,-36.66,145.02,253.315,-1.8754,-0.0445,1002.8833,55.81399,37.500244,207.5036,NaN,,0.0,8.0,,23 / 25,,5066,2021-05-11 18:51:41:183
-0.01676,0.272947,9.768641,0.027079,0.338767,9.800759,-0.014154,-0.001279,-0.037512,136.32,-36.24,145.26,253.2103,-1.9532,-0.1337,1002.8833,55.81399,37.500244,207.5036,NaN,,0.0,8.0,,23 / 25,,5077,2021-05-11 18:51:41:194
-0.129291,0.215485,9.885961,0.028488,0.339611,9.800727,-0.019041,0.001775,-0.038734,136.44,-36.12,145.5,253.2103,-1.9532,-0.1337,1002.8833,55.81399,37.500244,207.5036,NaN,,0.0,8.0,,23 / 25,,5086,2021-05-11 18:51:41:203
-0.074223,0.265765,9.869201,0.024549,0.335068,9.800894,-0.004991,-0.006166,-0.026516,136.44,-36.3,145.2,253.2103,-1.9532,-0.1337,1002.8833,55.81399,37.500244,207.5036,NaN,,0.0,8.0,,23 / 25,,5096,2021-05-11 18:51:41:213
-0.074223,0.265765,9.869201,0.024549,0.335068,9.800894,0.001729,-0.02327,-0.02163,136.44,-36.3,145.2,253.2103,-1.9532,-0.1337,1002.8833,55.81399,37.500244,207.5036,NaN,,0.0,8.0,,24 / 26,,5106,2021-05-11 18:51:41:223
0.031126,0.311256,9.878778,0.024549,0.335068,9.800894,0.00295,-0.021438,-0.022851,136.44,-36.3,145.2,253.2103,-1.9532,-0.1337,1002.8833,55.81399,37.500244,207.5036,NaN,,0.0,8.0,,24 / 26,,5115,2021-05-11 18:51:41:232
0.06704,0.325621,9.804555,0.020586,0.329705,9.801085,0.00295,-0.021438,-0.026516,136.74,-36.84,144.9,252.9347,-1.958,-0.1435,1002.8804,55.81399,37.500244,207.5036,NaN,,0.0,8.0,,24 / 26,,5126,2021-05-11 18:51:41:243
0.026337,0.34717,9.857229,0.020469,0.327367,9.801164,0.006005,-0.017162,-0.027127,136.74,-36.96,144.6,252.9347,-1.958,-0.1435,1002.8804,55.81399,37.500244,207.5036,NaN,,0.0,8.0,,24 / 26,,5136,2021-05-11 18:51:41:253
-0.043097,0.351958,9.816526,0.020469,0.327367,9.801164,0.011503,-0.026325,-0.023462,136.74,-36.96,144.6,252.9347,-1.958,-0.1435,1002.8804,55.81399,37.500244,207.5036,NaN,,0.0,8.0,,24 / 26,,5146,2021-05-11 18:51:41:263
-0.043097,0.351958,9.816526,0.021066,0.32862,9.80112,0.008448,-0.02327,-0.016743,136.74,-36.3,144.96,253.3697,-1.913,-0.1197,1002.8804,55.81399,37.500244,207.5036,NaN,,0.0,8.0,,24 / 26,,5156,2021-05-11 18:51:41:273
-0.043097,0.359141,9.854836,0.021066,0.32862,9.80112,0.006005,-0.012886,-0.009412,136.74,-36.3,144.96,253.3697,-1.913,-0.1197,1002.8804,55.81399,37.500244,207.5036,NaN,,0.0,8.0,,24 / 26,,5166,2021-05-11 18:51:41:283
-0.064645,0.349564,9.80695,0.021066,0.32862,9.80112,0.006005,-0.012886,-0.009412,136.74,-36.3,144.96,253.3697,-1.913,-0.1197,1002.8804,55.81399,37.500244,207.5036,NaN,,0.0,8.0,,24 / 26,,5176,2021-05-11 18:51:41:293
-0.021548,0.332804,9.70639,0.018094,0.330254,9.801071,5.07E-4,-0.004944,-0.005747,136.14,-36.18,145.74,253.3697,-1.913,-0.1197,1002.8804,55.81399,37.500244,207.5036,NaN,,0.0,8.0,,24 / 26,,5186,2021-05-11 18:51:41:303
-0.007183,0.36393,9.823709,0.010957,0.331221,9.801048,-0.017208,0.001164,-0.004525,136.32,-35.76,146.04,253.2289,-1.9299,-0.1058,1002.8804,55.81399,37.500244,207.5036,NaN,,0.0,8.0,,24 / 26,,5196,2021-05-11 18:51:41:313
-0.007183,0.36393,9.823709,0.010957,0.331221,9.801048,-0.022706,0.007273,-0.00819,136.32,-35.76,146.04,253.2289,-1.9299,-0.1058,1002.8804,55.81399,37.500244,207.5036,NaN,,0.0,8.0,,24 / 26,,5206,2021-05-11 18:51:41:323
0.035914,0.36393,9.854836,0.00416,0.330771,9.801069,-0.014154,0.011549,-0.009412,137.04,-35.76,145.5,253.2289,-1.9299,-0.1058,1002.8804,55.81399,37.500244,207.5036,NaN,,0.0,8.0,,24 / 26,,5216,2021-05-11 18:51:41:333
0.031126,0.332804,9.869201,0.00416,0.330771,9.801069,-0.009878,0.009106,-0.015521,137.04,-35.76,145.5,253.2289,-1.9299,-0.1058,1002.8804,55.81399,37.500244,207.5036,NaN,,0.0,8.0,,24 / 26,,5227,2021-05-11 18:51:41:344
0.014366,0.325621,9.888355,0.00416,0.330771,9.801069,-0.012932,0.01216,-0.018575,137.04,-35.76,145.5,253.2289,-1.9299,-0.1058,1002.8804,55.81399,37.500244,207.5036,NaN,,0.0,8.0,,24 / 26,,5236,2021-05-11 18:51:41:353
-0.026337,0.316044,9.866806,0.001153,0.332468,9.801012,-0.020873,0.024988,-0.010634,136.26,-36.72,145.62,252.8672,-1.9329,-0.0243,1002.8804,55.81399,37.500244,207.5036,NaN,,0.0,8.0,,24 / 26,,5247,2021-05-11 18:51:41:364
-0.026337,0.316044,9.866806,-0.004258,0.331123,9.801058,-0.033091,0.043925,-0.002082,135.84,-36.66,145.56,252.8672,-1.9329,-0.0243,1002.8804,55.81399,37.500244,207.5036,NaN,,0.0,8.0,,24 / 26,,5256,2021-05-11 18:51:41:373
-0.05028,0.308861,9.893144,-0.004258,0.331123,9.801058,-0.042254,0.052477,0.010135,135.84,-36.66,145.56,252.8672,-1.9329,-0.0243,1002.8804,55.81399,37.500244,207.5036,NaN,,0.0,8.0,,24 / 26,,5266,2021-05-11 18:51:41:383
-0.021548,0.304073,9.914692,-0.014037,0.324281,9.801276,-0.030036,0.032929,0.011357,136.62,-36.48,145.62,253.3821,-1.935,0.0249,1002.8804,55.81399,37.500244,207.5036,NaN,,0.0,8.0,,24 / 26,,5276,2021-05-11 18:51:41:393
0.035914,0.308861,9.924269,-0.014037,0.324281,9.801276,-0.01843,0.020712,0.002194,136.62,-36.48,145.62,253.3821,-1.935,0.0249,1002.8804,55.81399,37.500244,207.5036,NaN,,0.0,8.0,,24 / 26,,5286,2021-05-11 18:51:41:403
0.035914,0.308861,9.924269,-0.014037,0.324281,9.801276,0.004783,-0.00861,-2.49E-4,136.62,-36.48,145.62,253.3821,-1.935,0.0249,1002.8804,55.81399,37.500244,207.5036,NaN,,0.0,8.0,,24 / 26,,5296,2021-05-11 18:51:41:413
-0.062251,0.268159,9.823709,-0.016201,0.321638,9.801361,0.014557,-0.017162,-0.005136,137.16,-36.54,146.16,253.3821,-1.935,0.0249,1002.8804,55.81399,37.500244,207.5036,NaN,,0.0,8.0,,24 / 26,,5306,2021-05-11 18:51:41:423
-0.019154,0.359141,9.749487,-0.016201,0.321638,9.801361,0.019444,-0.014718,-0.006969,137.16,-36.54,145.8,253.0755,-1.8795,0.0947,1002.8804,55.81399,37.500244,207.5036,NaN,,0.0,8.0,,24 / 26,,5316,2021-05-11 18:51:41:433
-0.105348,0.284919,9.636956,-0.014939,0.322134,9.801346,0.015168,-0.012886,0.008303,136.92,-36.6,145.8,253.0755,-1.8795,0.0947,1002.8848,55.81399,37.500244,207.5036,NaN,,0.0,8.0,,24 / 26,,5327,2021-05-11 18:51:41:444
-0.105348,0.284919,9.636956,-0.018942,0.321431,9.801363,-0.002547,-0.010442,0.007692,136.68,-36.54,145.38,253.0755,-1.8795,0.0947,1002.8848,55.81399,37.500244,207.5036,NaN,,0.0,8.0,,24 / 26,,5336,2021-05-11 18:51:41:453
-0.007183,0.337593,9.684841,-0.018942,0.321431,9.801363,-0.013543,-0.001279,0.009525,136.68,-36.54,145.38,253.0755,-1.8795,0.0947,1002.8848,55.81399,37.500244,207.5036,NaN,,0.0,8.0,,24 / 26,,5346,2021-05-11 18:51:41:463
0.011971,0.344776,9.768641,-0.018942,0.321431,9.801363,-0.013543,-0.001279,0.009525,136.68,-36.54,145.38,253.0755,-1.8795,0.0947,1002.8848,55.81399,37.500244,207.5036,NaN,,0.0,8.0,,24 / 26,,5356,2021-05-11 18:51:41:473
0.011971,0.344776,9.768641,-0.022125,0.318744,9.801443,-0.01843,0.003608,0.002805,137.1,-36.78,145.68,253.0819,-1.8783,0.1107,1002.8848,55.81399,37.500244,207.5036,NaN,,0.0,8.0,,24 / 26,,5365,2021-05-11 18:51:41:482
-0.009577,0.337593,9.79019,-0.022125,0.318744,9.801443,-0.012321,0.002386,0.002805,136.98,-37.68,145.86,253.0819,-1.8783,0.1107,1002.8848,55.81399,37.500244,207.5036,NaN,,0.0,8.0,,24 / 26,,5376,2021-05-11 18:51:41:493
-0.007183,0.354353,9.871595,-0.023899,0.317074,9.801494,-1.04E-4,-0.002501,0.003416,136.98,-37.68,145.86,253.0819,-1.8783,0.1107,1002.8848,55.81399,37.500244,207.5036,NaN,,0.0,8.0,,24 / 26,,5385,2021-05-11 18:51:41:502
-0.007183,0.354353,9.871595,-0.023899,0.317074,9.801494,0.001118,-0.010442,-0.001471,136.98,-37.68,145.86,253.0819,-1.8783,0.1107,1002.8848,55.81399,37.500244,207.5036,NaN,,0.0,8.0,,24 / 26,,5396,2021-05-11 18:51:41:513
-0.023943,0.342381,9.871595,-0.022605,0.319305,9.801425,-1.04E-4,-0.006777,3.62E-4,136.5,-37.44,145.8,253.1158,-1.8528,0.1397,1002.8848,55.81399,37.500244,207.5036,NaN,,0.0,8.0,,24 / 26,,5406,2021-05-11 18:51:41:523
0.0,0.325621,9.93624,-0.022605,0.319305,9.801425,-7.15E-4,-0.002501,0.003416,136.5,-37.44,145.8,253.1158,-1.8528,0.1397,1002.8848,55.81399,37.500244,207.5036,NaN,,0.0,8.0,,24 / 26,,5416,2021-05-11 18:51:41:533
0.007183,0.284919,9.91948,-0.020702,0.321927,9.801343,-7.15E-4,-6.68E-4,0.002805,136.86,-36.78,145.8,253.1158,-1.8528,0.1397,1002.8752,55.81399,37.500244,207.5036,NaN,,0.0,8.0,,24 / 26,,5425,2021-05-11 18:51:41:542
0.007183,0.284919,9.91948,-0.019115,0.32176,9.801352,0.00967,-0.007999,-8.6E-4,136.8,-37.02,145.68,253.0825,-1.8812,0.121,1002.8752,55.81399,37.500244,207.5036,NaN,,0.0,8.0,,24 / 26,,5436,2021-05-11 18:51:41:553
-0.021548,0.311256,9.924269,-0.019115,0.32176,9.801352,0.00967,-0.007999,-8.6E-4,136.8,-37.02,145.68,253.0825,-1.8812,0.121,1002.8752,55.81399,37.500244,207.5036,NaN,,0.0,8.0,,24 / 26,,5446,2021-05-11 18:51:41:563
-0.004789,0.294496,9.888355,-0.016733,0.322974,9.801316,0.014557,-0.007999,0.005249,136.56,-37.44,145.68,253.0825,-1.8812,0.121,1002.8752,55.81399,37.500244,207.5036,NaN,,0.0,8.0,,24 / 26,,5456,2021-05-11 18:51:41:573
0.071828,0.359141,9.869201,-0.016733,0.322974,9.801316,0.015168,5.53E-4,0.005859,136.56,-37.44,145.68,253.0825,-1.8812,0.121,1002.8752,55.81399,37.500244,207.5036,NaN,,0.0,8.0,,24 / 26,,5466,2021-05-11 18:51:41:583
0.071828,0.359141,9.869201,-0.016733,0.322974,9.801316,0.015779,0.012771,-8.6E-4,136.56,-37.44,145.68,253.0825,-1.8812,0.121,1002.8752,55.81399,37.500244,207.5036,NaN,,0.0,8.0,,24 / 26,,5476,2021-05-11 18:51:41:593
0.038308,0.36393,9.761458,-0.013864,0.324809,9.80126,0.014557,0.013992,-0.002693,136.68,-37.74,145.86,252.6879,-1.8873,0.0978,1002.8752,55.81399,37.500244,207.5036,NaN,,0.0,8.0,,24 / 26,,5486,2021-05-11 18:51:41:603
0.014366,0.356747,9.77343,-0.013864,0.324809,9.80126,0.009059,0.003608,-0.002693,136.68,-37.74,145.86,252.6879,-1.8873,0.0978,1002.8752,55.81399,37.500244,207.5036,NaN,,0.0,8.0,,24 / 26,,5496,2021-05-11 18:51:41:613
0.011971,0.339987,9.818921,-0.01071,0.328052,9.801156,0.007227,0.003608,-0.003304,137.04,-37.74,146.04,252.6879,-1.8873,0.0978,1002.8752,55.81399,37.500244,207.5036,NaN,,0.0,8.0,,24 / 26,,5506,2021-05-11 18:51:41:623
0.011971,0.339987,9.818921,-0.007033,0.330838,9.801065,0.007837,0.006051,-0.002082,137.04,-37.5,145.8,253.0289,-1.917,0.0626,1002.8752,55.81399,37.500244,207.5036,NaN,,0.0,8.0,,24 / 26,,5516,2021-05-11 18:51:41:633
-0.011971,0.328016,9.799767,-0.007033,0.330838,9.801065,0.011503,-0.00189,-0.002082,137.04,-37.5,145.8,253.0289,-1.917,0.0626,1002.8701,55.81399,37.500244,207.5036,NaN,,0.0,8.0,,24 / 26,,5526,2021-05-11 18:51:41:643
-0.011971,0.311256,9.72315,-0.007033,0.330838,9.801065,0.008448,-0.004944,-0.002082,137.04,-37.5,145.8,253.0289,-1.917,0.0626,1002.8701,55.81399,37.500244,207.5036,NaN,,0.0,8.0,,24 / 26,,5536,2021-05-11 18:51:41:653
