ACCELEROMETER X (m/s²),ACCELEROMETER Y (m/s²),ACCELEROMETER Z (m/s²),GRAVITY X (m/s²),GRAVITY Y (m/s²),GRAVITY Z (m/s²),GYROSCOPE X (rad/s),GYROSCOPE Y (rad/s),GYROSCOPE Z (rad/s),MAGNETIC FIELD X (μT),MAGNETIC FIELD Y (μT),MAGNETIC FIELD Z (μT),ORIENTATION Z (azimuth °),ORIENTATION X (pitch °),ORIENTATION Y (roll °),ATMOSPHERIC PRESSURE (hPa),LOCATION Latitude : ,LOCATION Longitude : ,LOCATION Altitude ( m),LOCATION Altitude-google ( m),LOCATION Altitude-atmospheric pressure ( m),LOCATION Speed ( m/s),LOCATION Accuracy ( m),LOCATION ORIENTATION (°),Satellites in range,GPS NMEA,Time since start in ms ,YYYY-MO-DD HH-MI-SS_SSS
-0.009577,0.24661,9.895537,0.069683,0.268952,9.802714,-0.034312,0.04026,0.015633,135.72,-36.72,149.34,253.0976,-1.4973,-0.521,1002.8914,55.814,37.500267,207.832,NaN,,0.0,6.0,,20 / 25,,7,2021-05-11 18:52:31:598
0.122108,0.268159,9.991309,0.049074,0.262361,9.803018,-0.02576,0.015825,0.008303,135.54,-36.36,149.4,253.4497,-1.5716,-0.4073,1002.8914,55.814,37.500267,207.832,NaN,,0.0,6.0,,20 / 25,,18,2021-05-11 18:52:31:609
0.122108,0.268159,9.991309,0.049074,0.262361,9.803018,-0.013543,-0.003723,0.002805,135.54,-36.36,149.4,253.4497,-1.5716,-0.4073,1002.8914,55.814,37.500267,207.832,NaN,,0.0,6.0,,20 / 25,,28,2021-05-11 18:52:31:619
0.150839,0.308861,9.941029,0.045386,0.261814,9.803049,0.019444,-0.014718,-0.009412,135.84,-36.42,148.86,253.4497,-1.5716,-0.4073,1002.8914,55.814,37.500267,207.832,NaN,,0.0,6.0,,20 / 25,,38,2021-05-11 18:52:31:629
0.119714,0.337593,9.809344,0.045386,0.261814,9.803049,0.027385,-0.015329,-0.00819,135.84,-36.42,148.86,253.4497,-1.5716,-0.4073,1002.8887,55.814,37.500267,207.832,NaN,,0.0,6.0,,20 / 25,,48,2021-05-11 18:52:31:639
0.023943,0.294496,9.670476,0.050076,0.270288,9.802797,0.018222,-0.003723,-0.005747,136.08,-36.66,148.74,253.1498,-1.5298,-0.2653,1002.8887,55.814,37.500267,207.832,NaN,,0.0,6.0,,20 / 25,,58,2021-05-11 18:52:31:649
0.023943,0.294496,9.670476,0.050076,0.270288,9.802797,0.018222,-0.003723,-0.005747,136.08,-36.66,148.74,253.1498,-1.5298,-0.2653,1002.8887,55.814,37.500267,207.832,NaN,,0.0,6.0,,20 / 25,,68,2021-05-11 18:52:31:659
-0.009577,0.241822,9.703996,0.051562,0.273167,9.80271,-0.004991,-0.006166,3.62E-4,135.72,-36.78,148.74,253.1498,-1.5298,-0.2653,1002.8887,55.814,37.500267,207.832,NaN,,0.0,6.0,,20 / 25,,78,2021-05-11 18:52:31:669
0.031126,0.186753,9.833286,0.049729,0.271125,9.802775,-0.01843,0.015214,0.007692,135.54,-37.08,149.16,253.1498,-1.5298,-0.2653,1002.8887,55.814,37.500267,207.832,NaN,,0.0,6.0,,20 / 25,,89,2021-05-11 18:52:31:680
0.045491,0.189148,9.876384,0.049729,0.271125,9.802775,-0.011099,0.015214,0.005859,135.54,-37.08,149.16,253.1498,-1.5298,-0.2653,1002.8887,55.814,37.500267,207.832,NaN,,0.0,6.0,,20 / 25,,97,2021-05-11 18:52:31:688
0.047885,0.172388,9.900327,0.045487,0.265316,9.802955,5.07E-4,0.007884,0.005859,136.26,-37.32,148.74,253.0866,-1.5843,-0.2907,1002.8887,55.814,37.500267,207.832,NaN,,0.0,6.0,,20 / 25,,108,2021-05-11 18:52:31:699
0.047885,0.172388,9.900327,0.045487,0.265316,9.802955,5.07E-4,0.007884,0.005859,136.26,-37.32,148.74,253.0866,-1.5843,-0.2907,1002.8887,55.814,37.500267,207.832,NaN,,0.0,6.0,,20 / 25,,118,2021-05-11 18:52:31:709
0.047885,0.172388,9.900327,0.045487,0.265316,9.802955,5.07E-4,0.007884,0.005859,136.26,-37.32,148.74,253.0866,-1.5843,-0.2907,1002.8887,55.814,37.500267,207.832,NaN,,0.0,6.0,,20 / 25,,128,2021-05-11 18:52:31:719
0.062251,0.172388,9.900327,0.044506,0.2624,9.803039,0.007837,0.009106,0.004638,136.8,-37.2,148.44,253.0866,-1.5843,-0.2907,1002.8887,55.814,37.500267,207.832,NaN,,0.0,6.0,,20 / 25,,138,2021-05-11 18:52:31:729
0.093377,0.28013,9.658504,0.046873,0.261407,9.803053,0.018833,-0.004944,-0.002082,136.92,-35.82,148.38,253.6617,-1.5333,-0.2601,1002.8887,55.814,37.500267,207.832,NaN,,0.0,6.0,,20 / 25,,148,2021-05-11 18:52:31:739
0.093377,0.28013,9.658504,0.046873,0.261407,9.803053,0.018833,-0.004944,-0.002082,136.92,-35.82,148.38,253.6617,-1.5333,-0.2601,1002.8887,55.814,37.500267,207.832,NaN,,0.0,6.0,,20 / 25,,158,2021-05-11 18:52:31:749
0.093377,0.28013,9.658504,0.046873,0.261407,9.803053,0.018833,-0.004944,-0.002082,136.92,-35.82,148.38,253.6617,-1.5333,-0.2601,1002.8887,55.814,37.500267,207.832,NaN,,0.0,6.0,,20 / 25,,168,2021-05-11 18:52:31:759
0.071828,0.29689,9.694419,0.049056,0.260352,9.803071,-0.012932,0.004219,0.003416,136.62,-35.64,148.74,253.6617,-1.5333,-0.2601,1002.8887,55.814,37.500267,207.832,NaN,,0.0,6.0,,20 / 25,,178,2021-05-11 18:52:31:769
0.071828,0.29689,9.694419,0.049056,0.260352,9.803071,-0.035534,0.017047,0.00647,136.62,-35.64,148.74,253.6617,-1.5333,-0.2601,1002.8887,55.814,37.500267,207.832,NaN,,0.0,6.0,,20 / 25,,188,2021-05-11 18:52:31:779
0.06704,0.284919,9.732727,0.044798,0.254111,9.803255,-0.041643,0.017047,3.62E-4,136.08,-36.18,149.22,253.54,-1.5213,-0.2867,1002.8887,55.814,37.500267,207.832,NaN,,0.0,6.0,,20 / 25,,198,2021-05-11 18:52:31:789
0.062251,0.253793,9.797373,0.044798,0.254111,9.803255,-0.045919,0.018879,0.002194,136.08,-36.18,149.22,253.54,-1.5213,-0.2867,1002.8887,55.814,37.500267,207.832,NaN,,0.0,6.0,,20 / 25,,208,2021-05-11 18:52:31:799
0.055068,0.205908,9.876384,0.042969,0.24911,9.803391,-0.047751,0.016436,0.004638,135.66,-36.84,148.38,253.54,-1.5213,-0.2867,1002.8887,55.814,37.500267,207.832,NaN,,0.0,6.0,,20 / 25,,218,2021-05-11 18:52:31:809
0.076617,0.181965,9.998491,0.042969,0.24911,9.803391,-0.040421,0.012771,0.004027,135.66,-36.84,148.38,253.54,-1.5213,-0.2867,1002.8887,55.814,37.500267,207.832,NaN,,0.0,6.0,,20 / 25,,228,2021-05-11 18:52:31:819
0.105348,0.201119,10.094262,0.042153,0.240235,9.803617,-0.031258,0.004219,-8.6E-4,135.66,-36.36,148.26,253.6283,-1.4556,-0.2511,1002.8887,55.814,37.500267,207.832,NaN,,0.0,6.0,,20 / 25,,238,2021-05-11 18:52:31:829
0.105348,0.201119,10.094262,0.042153,0.240235,9.803617,-0.031258,0.004219,-8.6E-4,135.66,-36.36,148.26,253.6283,-1.4556,-0.2511,1002.8853,55.814,37.500267,207.832,NaN,,0.0,6.0,,20 / 25,,248,2021-05-11 18:52:31:839
0.148445,0.201119,10.060742,0.047222,0.23534,9.803712,0.003561,-0.010442,-0.010634,135.96,-36.9,149.16,253.6283,-1.4556,-0.2511,1002.8853,55.814,37.500267,207.832,NaN,,0.0,6.0,,20 / 25,,258,2021-05-11 18:52:31:849
0.148445,0.258582,9.897932,0.047222,0.23534,9.803712,0.023109,-0.016551,-0.015521,135.96,-36.9,149.16,253.6283,-1.4556,-0.2511,1002.8853,55.814,37.500267,207.832,NaN,,0.0,6.0,,20 / 25,,268,2021-05-11 18:52:31:859
0.093377,0.311256,9.732727,0.057618,0.238148,9.803589,0.033494,-0.020216,-0.016743,136.5,-37.68,149.34,253.0326,-1.3751,-0.276,1002.8853,55.814,37.500267,207.832,NaN,,0.0,6.0,,20 / 25,,277,2021-05-11 18:52:31:868
0.093377,0.311256,9.732727,0.057618,0.238148,9.803589,0.024331,-0.020216,-0.013077,136.5,-37.68,149.34,253.0326,-1.3751,-0.276,1002.8853,55.814,37.500267,207.832,NaN,,0.0,6.0,,20 / 25,,288,2021-05-11 18:52:31:879
0.009577,0.339987,9.63935,0.066153,0.244413,9.803381,0.008448,-0.006166,-0.010023,136.14,-37.2,148.26,253.0326,-1.3751,-0.276,1002.8853,55.814,37.500267,207.832,NaN,,0.0,6.0,,20 / 25,,298,2021-05-11 18:52:31:889
-0.004789,0.294496,9.675264,0.066153,0.244413,9.803381,-0.006823,-0.003112,-0.006969,136.14,-37.2,148.26,253.0326,-1.3751,-0.276,1002.8853,55.814,37.500267,207.832,NaN,,0.0,6.0,,20 / 25,,308,2021-05-11 18:52:31:899
-0.002394,0.282524,9.720756,0.065845,0.247479,9.803307,-0.017208,0.006051,-0.005136,136.44,-36.48,148.56,253.602,-1.4281,-0.3866,1002.8853,55.814,37.500267,207.832,NaN,,0.0,6.0,,20 / 25,,318,2021-05-11 18:52:31:909
0.047885,0.244216,9.72315,0.065845,0.247479,9.803307,-0.013543,0.003608,-0.005747,136.44,-36.48,148.56,253.602,-1.4281,-0.3866,1002.8853,55.814,37.500267,207.832,NaN,,0.0,6.0,,20 / 25,,328,2021-05-11 18:52:31:919
0.047885,0.244216,9.72315,0.062342,0.249131,9.803287,-0.008045,-0.00189,-0.008801,136.62,-36.3,149.04,253.602,-1.4281,-0.3866,1002.8853,55.814,37.500267,207.832,NaN,,0.0,6.0,,20 / 25,,338,2021-05-11 18:52:31:929
0.002394,0.222668,9.771035,0.062342,0.249131,9.803287,-0.008045,0.002386,-0.003914,136.62,-36.3,149.04,253.602,-1.4281,-0.3866,1002.8884,55.814,37.500267,207.832,NaN,,0.0,6.0,,20 / 25,,348,2021-05-11 18:52:31:939
0.03352,0.172388,9.771035,0.058063,0.249341,9.803308,-0.015986,0.010327,0.002805,136.32,-36.72,149.04,253.1917,-1.4557,-0.3644,1002.8884,55.814,37.500267,207.832,NaN,,0.0,6.0,,20 / 25,,359,2021-05-11 18:52:31:950
0.076617,0.181965,9.816526,0.058063,0.249341,9.803308,-0.024538,0.021934,0.003416,136.32,-36.72,149.04,253.1917,-1.4557,-0.3644,1002.8884,55.814,37.500267,207.832,NaN,,0.0,6.0,,20 / 25,,368,2021-05-11 18:52:31:959
0.107742,0.174782,9.905115,0.052377,0.243311,9.803492,-0.017819,0.018879,-0.003304,136.74,-36.78,148.86,253.1917,-1.4557,-0.3644,1002.8884,55.814,37.500267,207.832,NaN,,0.0,6.0,,20 / 25,,378,2021-05-11 18:52:31:969
0.107742,0.174782,9.905115,0.052377,0.243311,9.803492,-0.003158,0.00544,-0.008801,136.74,-36.78,148.86,253.1917,-1.4557,-0.3644,1002.8884,55.814,37.500267,207.832,NaN,,0.0,6.0,,20 / 25,,389,2021-05-11 18:52:31:980
0.095771,0.155628,9.890749,0.051548,0.236894,9.803654,0.007837,-0.010442,-0.010023,137.1,-36.78,148.32,253.3716,-1.4217,-0.3061,1002.8884,55.814,37.500267,207.832,NaN,,0.0,6.0,,20 / 25,,398,2021-05-11 18:52:31:989
0.095771,0.155628,9.890749,0.051548,0.236894,9.803654,0.007837,-0.010442,-0.010023,137.1,-36.78,148.32,253.3716,-1.4217,-0.3061,1002.8884,55.814,37.500267,207.832,NaN,,0.0,6.0,,20 / 25,,408,2021-05-11 18:52:31:999
0.043097,0.181965,9.840469,0.055032,0.232211,9.803746,0.011503,-0.009831,-0.010634,136.92,-36.48,148.44,253.3716,-1.4217,-0.3061,1002.8884,55.814,37.500267,207.832,NaN,,0.0,6.0,,20 / 25,,418,2021-05-11 18:52:32:009
0.040703,0.234639,9.766247,0.055032,0.232211,9.803746,0.010281,-0.006777,-0.006358,136.92,-36.48,148.44,253.3716,-1.4217,-0.3061,1002.8884,55.814,37.500267,207.832,NaN,,0.0,6.0,,20 / 25,,428,2021-05-11 18:52:32:019
0.105348,0.275342,9.675264,0.056422,0.229314,9.803806,-1.04E-4,0.001164,-0.003914,136.5,-36.06,148.92,253.8232,-1.3399,-0.3297,1002.8884,55.814,37.500267,207.832,NaN,,0.0,6.0,,20 / 25,,438,2021-05-11 18:52:32:029
0.105348,0.275342,9.675264,0.056422,0.229314,9.803806,-0.007434,-0.006777,-0.003304,136.5,-36.06,148.92,253.8232,-1.3399,-0.3297,1002.8884,55.814,37.500267,207.832,NaN,,0.0,6.0,,20 / 25,,448,2021-05-11 18:52:32:039
0.107742,0.301679,9.672871,0.059705,0.228282,9.803811,-0.017208,-0.00861,-0.005136,136.68,-36.42,149.22,253.8232,-1.3399,-0.3297,1002.8884,55.814,37.500267,207.832,NaN,,0.0,6.0,,20 / 25,,458,2021-05-11 18:52:32:049
0.055068,0.256187,9.75667,0.059705,0.228282,9.803811,-0.019041,0.001775,-0.005747,136.68,-36.42,149.22,253.8232,-1.3399,-0.3297,1002.8884,55.814,37.500267,207.832,NaN,,0.0,6.0,,20 / 25,,468,2021-05-11 18:52:32:059
0.031126,0.220273,9.797373,0.062639,0.227415,9.803813,-0.017819,0.003608,-0.002082,136.5,-36.18,149.16,253.8232,-1.3339,-0.3489,1002.8884,55.814,37.500267,207.832,NaN,,0.0,6.0,,20 / 25,,477,2021-05-11 18:52:32:068
0.045491,0.232245,9.857229,0.062639,0.227415,9.803813,-0.017208,0.00483,-0.002082,136.5,-36.18,149.16,253.8232,-1.3339,-0.3489,1002.8884,55.814,37.500267,207.832,NaN,,0.0,6.0,,20 / 25,,487,2021-05-11 18:52:32:078
0.045491,0.232245,9.857229,0.062519,0.225397,9.803861,-0.014765,0.003608,-0.002693,135.78,-36.54,149.1,253.8232,-1.3339,-0.3489,1002.8884,55.814,37.500267,207.832,NaN,,0.0,6.0,,20 / 25,,498,2021-05-11 18:52:32:089
0.028731,0.210696,9.909904,0.062519,0.225397,9.803861,-0.003769,-0.002501,-0.002693,135.78,-36.54,149.1,253.8232,-1.3339,-0.3489,1002.8884,55.814,37.500267,207.832,NaN,,0.0,6.0,,20 / 25,,508,2021-05-11 18:52:32:099
0.045491,0.21309,9.950606,0.061883,0.225523,9.803861,0.010892,-0.006777,-0.003914,135.78,-37.5,149.34,253.3317,-1.317,-0.3654,1002.8884,55.814,37.500267,207.832,NaN,,0.0,6.0,,20 / 25,,518,2021-05-11 18:52:32:109
0.021548,0.217879,9.921875,0.061883,0.225523,9.803861,0.012724,-0.006166,-0.006358,135.78,-37.5,149.34,253.3317,-1.317,-0.3654,1002.8884,55.814,37.500267,207.832,NaN,,0.0,6.0,,20 / 25,,528,2021-05-11 18:52:32:119
0.01676,0.232245,9.895537,0.060004,0.226818,9.803843,0.020666,-0.005555,-0.005136,136.02,-37.02,149.7,253.3317,-1.317,-0.3654,1002.8884,55.814,37.500267,207.832,NaN,,0.0,6.0,,20 / 25,,538,2021-05-11 18:52:32:129
0.01676,0.232245,9.895537,0.060004,0.226818,9.803843,0.024331,-0.018383,-0.004525,136.02,-37.02,149.7,253.3317,-1.317,-0.3654,1002.886,55.814,37.500267,207.832,NaN,,0.0,6.0,,20 / 25,,548,2021-05-11 18:52:32:139
-0.011971,0.272947,9.842864,0.060004,0.226818,9.803843,0.024331,-0.018383,-0.004525,136.02,-37.02,149.7,253.3317,-1.317,-0.3654,1002.886,55.814,37.500267,207.832,NaN,,0.0,6.0,,20 / 25,,558,2021-05-11 18:52:32:149
0.059857,0.256187,9.792584,0.057367,0.230205,9.80378,0.020666,0.002386,-0.010023,136.62,-36.24,149.88,253.8216,-1.3253,-0.3507,1002.886,55.814,37.500267,207.832,NaN,,0.0,6.0,,20 / 25,,568,2021-05-11 18:52:32:159
0.059857,0.272947,9.747093,0.051901,0.234683,9.803704,0.010281,0.007273,-0.009412,136.8,-36.72,149.76,253.8216,-1.3253,-0.3507,1002.886,55.814,37.500267,207.832,NaN,,0.0,6.0,,20 / 25,,578,2021-05-11 18:52:32:169
0.026337,0.287313,9.759064,0.051901,0.234683,9.803704,0.005394,0.008495,-0.012467,136.8,-36.72,149.76,253.8216,-1.3253,-0.3507,1002.886,55.814,37.500267,207.832,NaN,,0.0,6.0,,20 / 25,,588,2021-05-11 18:52:32:179
0.026337,0.287313,9.759064,0.051901,0.234683,9.803704,0.00234,0.007273,-0.013688,136.8,-36.72,149.76,253.8216,-1.3253,-0.3507,1002.886,55.814,37.500267,207.832,NaN,,0.0,6.0,,20 / 25,,598,2021-05-11 18:52:32:189
-0.004789,0.29689,9.715967,0.047499,0.238425,9.803637,0.00234,0.007884,-0.008801,135.78,-37.08,149.7,253.2872,-1.3713,-0.3033,1002.886,55.814,37.500275,207.7983,NaN,,0.0,6.0,,19 / 24,,607,2021-05-11 18:52:32:198
0.040703,0.225062,9.692024,0.041827,0.24293,9.803552,-0.003158,0.012771,-2.49E-4,136.08,-36.72,149.34,253.2872,-1.3713,-0.3033,1002.886,55.814,37.500275,207.7983,NaN,,0.0,6.0,,19 / 24,,618,2021-05-11 18:52:32:209
0.05028,0.174782,9.797373,0.041827,0.24293,9.803552,-0.011099,0.017047,0.001583,136.08,-36.72,149.34,253.2872,-1.3713,-0.3033,1002.886,55.814,37.500275,207.7983,NaN,,0.0,6.0,,19 / 24,,628,2021-05-11 18:52:32:219
0.05028,0.174782,9.797373,0.041827,0.24293,9.803552,-0.009267,0.020712,0.004638,136.08,-36.72,149.34,253.2872,-1.3713,-0.3033,1002.886,55.814,37.500275,207.7983,NaN,,0.0,6.0,,19 / 24,,638,2021-05-11 18:52:32:229
0.124502,0.181965,9.91948,0.037798,0.241472,9.803604,0.00234,0.016436,3.62E-4,136.5,-36.84,149.1,253.3836,-1.4195,-0.2445,1002.8909,55.814,37.500275,207.7983,NaN,,0.0,6.0,,19 / 24,,648,2021-05-11 18:52:32:239
0.122108,0.244216,9.857229,0.039339,0.239527,9.803646,0.02372,-6.68E-4,-0.012467,136.02,-36.9,149.04,253.3836,-1.4195,-0.2445,1002.8909,55.814,37.500275,207.7983,NaN,,0.0,6.0,,19 / 24,,658,2021-05-11 18:52:32:249
0.023943,0.304073,9.778218,0.039339,0.239527,9.803646,0.034715,-0.021438,-0.015521,136.02,-36.9,149.04,253.3836,-1.4195,-0.2445,1002.8909,55.814,37.500275,207.7983,NaN,,0.0,6.0,,19 / 24,,668,2021-05-11 18:52:32:259
-0.081405,0.265765,9.749487,0.047306,0.245514,9.803462,0.039602,-0.024492,-0.018575,136.08,-36.78,149.22,253.2925,-1.3996,-0.2299,1002.8909,55.814,37.500275,207.7983,NaN,,0.0,6.0,,19 / 24,,678,2021-05-11 18:52:32:269
-0.081405,0.265765,9.749487,0.047306,0.245514,9.803462,0.032883,-0.006777,-0.004525,136.08,-36.78,149.22,253.2925,-1.3996,-0.2299,1002.8909,55.814,37.500275,207.7983,NaN,,0.0,6.0,,19 / 24,,688,2021-05-11 18:52:32:279
-0.064645,0.325621,9.586677,0.043249,0.251853,9.80332,0.010281,0.016436,-0.001471,136.68,-36.54,148.86,253.2925,-1.3996,-0.2299,1002.8909,55.814,37.500275,207.7983,NaN,,0.0,6.0,,19 / 24,,698,2021-05-11 18:52:32:289
-0.023943,0.325621,9.668081,0.043249,0.251853,9.80332,-0.020262,0.007884,-0.002693,136.68,-36.54,148.86,253.2925,-1.3996,-0.2299,1002.8909,55.814,37.500275,207.7983,NaN,,0.0,6.0,,19 / 24,,708,2021-05-11 18:52:32:299
0.009577,0.339987,9.814133,0.033965,0.25373,9.803308,-0.026371,0.006051,-0.001471,136.86,-36.48,148.62,253.715,-1.4716,-0.2528,1002.8909,55.814,37.500275,207.7983,NaN,,0.0,6.0,,19 / 24,,718,2021-05-11 18:52:32:309
0.009577,0.339987,9.814133,0.033965,0.25373,9.803308,-0.026371,0.008495,0.003416,136.86,-36.48,148.62,253.715,-1.4716,-0.2528,1002.8909,55.814,37.500275,207.7983,NaN,,0.0,6.0,,19 / 24,,728,2021-05-11 18:52:32:319
0.105348,0.311256,9.847652,0.027815,0.25683,9.803247,-0.023928,0.010938,9.72E-4,136.56,-36.54,148.74,253.715,-1.4716,-0.2528,1002.8909,55.814,37.500275,207.7983,NaN,,0.0,6.0,,19 / 24,,738,2021-05-11 18:52:32:329
0.158022,0.22985,9.905115,0.027815,0.25683,9.803247,-0.019041,0.010938,-0.001471,136.56,-36.54,148.74,253.715,-1.4716,-0.2528,1002.8909,55.814,37.500275,207.7983,NaN,,0.0,6.0,,19 / 24,,748,2021-05-11 18:52:32:339
0.158022,0.22985,9.905115,0.027815,0.25683,9.803247,-0.019041,0.010938,-0.001471,136.56,-36.54,148.74,253.715,-1.4716,-0.2528,1002.8909,55.814,37.500275,207.7983,NaN,,0.0,6.0,,19 / 24,,758,2021-05-11 18:52:32:349
0.102954,0.189148,10.051166,0.029801,0.258126,9.803207,-0.00438,-0.006166,-0.010023,136.68,-36.66,148.44,253.3394,-1.5007,-0.1626,1002.8909,55.814,37.500275,207.7983,NaN,,0.0,6.0,,19 / 24,,768,2021-05-11 18:52:32:359
0.064645,0.122108,10.051166,0.036287,0.257379,9.803205,0.020055,-0.001279,-0.011856,136.5,-36.54,148.98,253.3394,-1.5007,-0.1626,1002.8909,55.814,37.500275,207.7983,NaN,,0.0,6.0,,19 / 24,,777,2021-05-11 18:52:32:368
0.079011,0.134079,9.996098,0.036287,0.257379,9.803205,0.035326,-6.68E-4,-0.008801,136.5,-36.54,148.98,253.3394,-1.5007,-0.1626,1002.8909,55.814,37.500275,207.7983,NaN,,0.0,6.0,,19 / 24,,788,2021-05-11 18:52:32:379
0.090982,0.184359,9.926663,0.041926,0.255123,9.803241,0.046933,-0.002501,-0.005136,136.56,-36.3,148.98,253.6956,-1.5039,-0.2121,1002.8909,55.814,37.500275,207.7983,NaN,,0.0,6.0,,19 / 24,,798,2021-05-11 18:52:32:389
0.112531,0.234639,9.787795,0.041926,0.255123,9.803241,0.050598,-0.005555,-0.010023,136.56,-36.3,148.98,253.6956,-1.5039,-0.2121,1002.8909,55.814,37.500275,207.7983,NaN,,0.0,6.0,,19 / 24,,808,2021-05-11 18:52:32:399
0.112531,0.234639,9.787795,0.041926,0.255123,9.803241,0.040213,-0.00861,-0.016132,136.5,-36.6,149.04,253.6956,-1.5039,-0.2121,1002.8909,55.814,37.500275,207.7983,NaN,,0.0,6.0,,19 / 24,,818,2021-05-11 18:52:32:409
0.119714,0.304073,9.711179,0.048214,0.254184,9.803237,0.040213,-0.00861,-0.016132,136.5,-36.6,149.04,253.6956,-1.5039,-0.2121,1002.8909,55.814,37.500275,207.7983,NaN,,0.0,6.0,,19 / 24,,828,2021-05-11 18:52:32:419
0.098165,0.323227,9.603436,0.055376,0.257181,9.803121,0.035937,-0.006777,-0.019797,136.2,-36.54,148.32,253.1999,-1.4852,-0.2818,1002.8909,55.814,37.500275,207.7983,NaN,,0.0,6.0,,19 / 24,,838,2021-05-11 18:52:32:429
0.076617,0.344776,9.560339,0.055376,0.257181,9.803121,0.022498,-0.003112,-0.020408,136.2,-36.54,148.32,253.1999,-1.4852,-0.2818,1002.8901,55.814,37.500275,207.7983,NaN,,0.0,6.0,,19 / 24,,848,2021-05-11 18:52:32:439
0.026337,0.342381,9.553157,0.060457,0.262279,9.802956,0.004172,0.009716,-0.017964,136.26,-36.84,148.2,253.1999,-1.4852,-0.2818,1002.8901,55.814,37.500275,207.7983,NaN,,0.0,6.0,,19 / 24,,858,2021-05-11 18:52:32:449
0.026337,0.342381,9.553157,0.060457,0.262279,9.802956,-0.007434,0.017658,-0.013077,136.26,-36.84,148.2,253.1999,-1.4852,-0.2818,1002.8901,55.814,37.500275,207.7983,NaN,,0.0,6.0,,19 / 24,,868,2021-05-11 18:52:32:459
-0.014366,0.277736,9.644139,0.060457,0.262279,9.802956,-0.017819,0.023766,-0.002693,136.26,-36.84,148.2,253.1999,-1.4852,-0.2818,1002.8901,55.814,37.500275,207.7983,NaN,,0.0,6.0,,19 / 24,,878,2021-05-11 18:52:32:469
0.052674,0.265765,9.715967,0.059203,0.264866,9.802894,-0.019041,0.015214,0.004027,135.72,-37.14,149.04,253.1178,-1.5326,-0.3534,1002.8901,55.814,37.500275,207.7983,NaN,,0.0,6.0,,19 / 24,,889,2021-05-11 18:52:32:480
0.117319,0.210696,9.780613,0.055548,0.265078,9.80291,-0.017819,0.011549,0.002805,136.26,-37.2,148.92,253.1178,-1.5326,-0.3534,1002.8901,55.814,37.500275,207.7983,NaN,,0.0,6.0,,19 / 24,,898,2021-05-11 18:52:32:489
0.117319,0.210696,9.780613,0.055548,0.265078,9.80291,-0.013543,-6.68E-4,-0.004525,136.26,-37.2,148.92,253.1178,-1.5326,-0.3534,1002.8901,55.814,37.500275,207.7983,NaN,,0.0,6.0,,19 / 24,,908,2021-05-11 18:52:32:499
0.086194,0.198725,9.833286,0.057625,0.262334,9.802971,-0.009267,-0.006777,-0.006358,136.56,-37.2,149.1,253.2279,-1.5489,-0.3247,1002.8901,55.814,37.500275,207.7983,NaN,,0.0,6.0,,19 / 24,,918,2021-05-11 18:52:32:509
0.105348,0.169994,9.797373,0.060175,0.259931,9.80302,-0.016597,-0.003112,-0.003304,136.56,-37.2,149.1,253.2279,-1.5489,-0.3247,1002.8901,55.814,37.500275,207.7983,NaN,,0.0,6.0,,19 / 24,,928,2021-05-11 18:52:32:519
0.119714,0.196331,9.893144,0.060175,0.259931,9.80302,-0.01843,0.007273,-0.006358,136.2,-36.84,149.22,253.2279,-1.5489,-0.3247,1002.8901,55.814,37.500275,207.7983,NaN,,0.0,6.0,,19 / 24,,938,2021-05-11 18:52:32:529
0.119714,0.196331,9.893144,0.062689,0.255913,9.80311,-0.01843,0.009716,-0.006358,136.2,-36.84,149.22,253.2279,-1.5489,-0.3247,1002.8894,55.814,37.500275,207.7983,NaN,,0.0,6.0,,19 / 24,,948,2021-05-11 18:52:32:539
0.117319,0.181965,9.893144,0.066494,0.247384,9.803305,0.004783,-0.003112,-0.005136,135.96,-37.26,149.28,253.151,-1.4954,-0.3664,1002.8894,55.814,37.500275,207.7983,NaN,,0.0,6.0,,19 / 24,,958,2021-05-11 18:52:32:549
0.074223,0.21309,9.79019,0.066494,0.247384,9.803305,0.004783,-0.003112,-0.005136,135.96,-37.26,149.28,253.151,-1.4954,-0.3664,1002.8894,55.814,37.500275,207.7983,NaN,,0.0,6.0,,19 / 24,,968,2021-05-11 18:52:32:559
0.031126,0.22985,9.783007,0.072623,0.243037,9.80337,0.008448,-0.024492,-0.008801,136.08,-37.38,149.04,253.151,-1.4954,-0.3664,1002.8894,55.814,37.500275,207.7983,NaN,,0.0,6.0,,19 / 24,,978,2021-05-11 18:52:32:569
0.055068,0.260976,9.742304,0.072623,0.243037,9.80337,0.007227,-0.018383,-0.005136,136.08,-37.38,149.04,253.151,-1.4954,-0.3664,1002.8894,55.814,37.500275,207.7983,NaN,,0.0,6.0,,19 / 24,,988,2021-05-11 18:52:32:579
0.05028,0.275342,9.70639,0.072623,0.243037,9.80337,0.001729,-0.014107,-0.001471,136.5,-36.96,148.92,253.3245,-1.4201,-0.4244,1002.8894,55.814,37.500275,207.7983,NaN,,0.0,6.0,,19 / 24,,998,2021-05-11 18:52:32:589
0.05028,0.275342,9.70639,0.075858,0.240831,9.803399,-0.012321,-0.010442,-0.004525,136.5,-36.96,148.92,253.3245,-1.4201,-0.4244,1002.8894,55.814,37.500275,207.7983,NaN,,0.0,6.0,,19 / 24,,1008,2021-05-11 18:52:32:599
0.090982,0.277736,9.780613,0.076401,0.238506,9.803452,-0.022706,-0.009831,-0.003914,136.14,-36.66,148.92,253.3245,-1.4201,-0.4244,1002.8894,55.814,37.500275,207.7983,NaN,,0.0,6.0,,19 / 24,,1018,2021-05-11 18:52:32:609
0.148445,0.292102,9.816526,0.076401,0.238506,9.803452,-0.013543,-0.009831,-0.003914,136.14,-36.66,148.92,253.3245,-1.4201,-0.4244,1002.8894,55.814,37.500275,207.7983,NaN,,0.0,6.0,,19 / 24,,1028,2021-05-11 18:52:32:619
0.112531,0.256187,9.873989,0.078526,0.237467,9.80346,-0.01171,-0.003112,-0.008801,136.62,-36.24,149.16,253.7318,-1.3936,-0.4465,1002.8894,55.814,37.500275,207.7983,NaN,,0.0,6.0,,19 / 24,,1038,2021-05-11 18:52:32:629
0.112531,0.256187,9.873989,0.078526,0.237467,9.80346,-0.005602,-0.004944,-0.010023,136.62,-36.24,149.16,253.7318,-1.3936,-0.4465,1002.8862,55.814,37.500275,207.7983,NaN,,0.0,6.0,,19 / 24,,1048,2021-05-11 18:52:32:639
0.052674,0.205908,9.90272,0.078526,0.237467,9.80346,-0.005602,-0.004944,-0.010023,136.62,-36.24,149.16,253.7318,-1.3936,-0.4465,1002.8862,55.814,37.500275,207.7983,NaN,,0.0,6.0,,19 / 24,,1058,2021-05-11 18:52:32:649
0.057463,0.205908,9.871595,0.080684,0.238329,9.803422,0.005394,-0.012886,-0.009412,136.74,-35.88,149.58,253.7318,-1.3936,-0.4465,1002.8862,55.814,37.500275,207.7983,NaN,,0.0,6.0,,19 / 24,,1067,2021-05-11 18:52:32:658
0.093377,0.21309,9.869201,0.082305,0.238727,9.803398,0.008448,-0.014718,-0.008801,136.44,-36.54,149.34,253.2203,-1.3926,-0.4715,1002.8862,55.814,37.500275,207.7983,NaN,,0.0,6.0,,19 / 24,,1078,2021-05-11 18:52:32:669
0.057463,0.189148,9.871595,0.082305,0.238727,9.803398,0.010281,-0.00189,-0.006358,136.44,-36.54,149.34,253.2203,-1.3926,-0.4715,1002.8862,55.814,37.500275,207.7983,NaN,,0.0,6.0,,19 / 24,,1088,2021-05-11 18:52:32:679
0.059857,0.220273,9.859624,0.0821,0.237336,9.803434,0.006005,0.002386,-0.010023,136.5,-37.08,148.86,253.2203,-1.3926,-0.4715,1002.8862,55.814,37.500275,207.7983,NaN,,0.0,6.0,,19 / 24,,1098,2021-05-11 18:52:32:689
0.059857,0.220273,9.859624,0.0821,0.237336,9.803434,0.006005,0.002386,-0.010023,136.5,-37.08,148.86,253.2203,-1.3926,-0.4715,1002.8862,55.814,37.500275,207.7983,NaN,,0.0,6.0,,19 / 24,,1108,2021-05-11 18:52:32:699
0.107742,0.251399,9.785401,0.080916,0.236362,9.803468,0.012113,-0.003723,-0.013688,136.26,-37.14,148.86,253.2203,-1.3926,-0.4715,1002.8862,55.814,37.500275,207.7983,NaN,,0.0,6.0,,19 / 24,,1118,2021-05-11 18:52:32:709
0.098165,0.289707,9.821315,0.08109,0.237088,9.803448,0.00967,-0.004333,-0.014299,136.08,-36.96,148.98,253.2315,-1.3811,-0.4729,1002.8862,55.814,37.500275,207.7983,NaN,,0.0,6.0,,19 / 24,,1128,2021-05-11 18:52:32:719
0.057463,0.282524,9.749487,0.08109,0.237088,9.803448,0.006616,0.009716,-0.013077,136.08,-36.96,148.98,253.2315,-1.3811,-0.4729,1002.8862,55.814,37.500275,207.7983,NaN,,0.0,6.0,,19 / 24,,1138,2021-05-11 18:52:32:729
0.057463,0.282524,9.749487,0.08109,0.237088,9.803448,0.005394,0.010327,-0.012467,136.08,-36.96,148.98,253.2315,-1.3811,-0.4729,1002.8862,55.814,37.500275,207.7983,NaN,,0.0,6.0,,19 / 24,,1148,2021-05-11 18:52:32:739
0.023943,0.265765,9.720756,0.078794,0.240583,9.803382,0.004172,0.007273,-0.010634,136.08,-36.6,149.52,253.2315,-1.3811,-0.4729,1002.8909,55.814,37.500275,207.7983,NaN,,0.0,6.0,,19 / 24,,1158,2021-05-11 18:52:32:749
0.0838,0.249005,9.775824,0.075104,0.244183,9.803322,-0.008045,0.013382,-0.009412,136.38,-36.36,149.64,253.5903,-1.4058,-0.4605,1002.8909,55.814,37.500275,207.7983,NaN,,0.0,6.0,,19 / 24,,1168,2021-05-11 18:52:32:759
0.0838,0.249005,9.775824,0.075104,0.244183,9.803322,-0.008045,0.013382,-0.009412,136.38,-36.36,149.64,253.5903,-1.4058,-0.4605,1002.8909,55.814,37.500275,207.7983,NaN,,0.0,6.0,,19 / 24,,1177,2021-05-11 18:52:32:768
0.079011,0.227456,9.828498,0.072822,0.244415,9.803333,-0.014765,0.016436,-0.011245,136.26,-36.12,149.1,253.5903,-1.4058,-0.4605,1002.8909,55.814,37.500275,207.7983,NaN,,0.0,6.0,,19 / 24,,1188,2021-05-11 18:52:32:779
0.045491,0.222668,9.881172,0.067739,0.244736,9.803362,-0.005602,0.020712,-0.005747,136.2,-36.54,148.92,253.5903,-1.4058,-0.4605,1002.8909,55.814,37.500275,207.7983,NaN,,0.0,6.0,,19 / 24,,1199,2021-05-11 18:52:32:790
0.081405,0.26337,9.878778,0.067365,0.245799,9.803338,0.012113,0.00483,-0.008801,136.32,-36.6,148.8,253.2073,-1.43,-0.3959,1002.8909,55.814,37.500275,207.7983,NaN,,0.0,6.0,,19 / 24,,1208,2021-05-11 18:52:32:799
0.081405,0.26337,9.878778,0.067365,0.245799,9.803338,0.014557,0.00544,-0.017353,136.32,-36.6,148.8,253.2073,-1.43,-0.3959,1002.8909,55.814,37.500275,207.7983,NaN,,0.0,6.0,,19 / 24,,1218,2021-05-11 18:52:32:809
0.028731,0.28013,9.778218,0.065909,0.248566,9.803278,0.017,0.007884,-0.019186,135.96,-36.06,149.16,253.2073,-1.43,-0.3959,1002.8909,55.814,37.500275,207.7983,NaN,,0.0,6.0,,19 / 24,,1228,2021-05-11 18:52:32:819
0.007183,0.275342,9.63935,0.065909,0.248566,9.803278,0.011503,-0.004944,-0.011245,135.96,-36.06,149.16,253.2073,-1.43,-0.3959,1002.8909,55.814,37.500275,207.7983,NaN,,0.0,6.0,,19 / 24,,1238,2021-05-11 18:52:32:829
0.007183,0.275342,9.63935,0.063934,0.252333,9.803194,-0.009267,0.001775,-0.013688,136.26,-36.24,148.62,253.5778,-1.4524,-0.3852,1002.8784,55.814,37.500275,207.7983,NaN,,0.0,6.0,,19 / 24,,1248,2021-05-11 18:52:32:839
0.040703,0.282524,9.842864,0.063934,0.252333,9.803194,-0.009267,0.001775,-0.013688,136.26,-36.24,148.62,253.5778,-1.4524,-0.3852,1002.8784,55.814,37.500275,207.7983,NaN,,0.0,6.0,,19 / 24,,1258,2021-05-11 18:52:32:849
0.040703,0.282524,9.842864,0.062207,0.252654,9.803198,-0.015986,0.025599,-0.00819,136.44,-36.9,148.08,253.5778,-1.4524,-0.3852,1002.8784,55.814,37.500275,207.7983,NaN,,0.0,6.0,,19 / 24,,1268,2021-05-11 18:52:32:859
0.043097,0.251399,9.835681,0.053975,0.251419,9.803278,-0.015986,0.036594,-0.013688,136.56,-36.6,147.96,253.5778,-1.4524,-0.3852,1002.8784,55.814,37.500275,207.7983,NaN,,0.0,6.0,,19 / 24,,1279,2021-05-11 18:52:32:870
-0.040703,0.244216,9.862018,0.053975,0.251419,9.803278,-0.001936,0.007884,-0.005747,136.56,-36.6,147.96,253.5778,-1.4524,-0.3852,1002.8784,55.814,37.500275,207.7983,NaN,,0.0,6.0,,19 / 24,,1288,2021-05-11 18:52:32:879
0.031126,0.196331,9.924269,0.046333,0.250967,9.803329,0.009059,0.007273,-0.00819,135.96,-36.24,148.56,253.5835,-1.4691,-0.3155,1002.8784,55.814,37.500275,207.7983,NaN,,0.0,6.0,,19 / 24,,1298,2021-05-11 18:52:32:889
0.105348,0.234639,9.797373,0.046333,0.250967,9.803329,0.017,0.014603,-0.006969,135.96,-36.24,148.56,253.5835,-1.4691,-0.3155,1002.8784,55.814,37.500275,207.7983,NaN,,0.0,6.0,,19 / 24,,1308,2021-05-11 18:52:32:899
0.105348,0.234639,9.797373,0.041116,0.252089,9.803324,0.020666,0.013382,-0.011245,136.38,-37.02,148.44,253.5835,-1.4691,-0.3155,1002.8784,55.814,37.500275,207.7983,NaN,,0.0,6.0,,19 / 24,,1318,2021-05-11 18:52:32:909
0.074223,0.287313,9.715967,0.041116,0.252089,9.803324,0.019444,5.53E-4,-0.011245,136.38,-37.02,148.44,253.5835,-1.4691,-0.3155,1002.8784,55.814,37.500275,207.7983,NaN,,0.0,6.0,,19 / 24,,1328,2021-05-11 18:52:32:919
0.014366,0.349564,9.692024,0.041778,0.255327,9.803237,0.024331,-0.007388,-0.009412,137.22,-36.96,147.9,253.3418,-1.473,-0.2403,1002.8784,55.814,37.500275,207.7983,NaN,,0.0,6.0,,19 / 24,,1338,2021-05-11 18:52:32:929
-0.052674,0.395055,9.665688,0.041778,0.255327,9.803237,0.017611,0.002997,-0.00819,137.22,-36.96,147.9,253.3418,-1.473,-0.2403,1002.8779,55.814,37.500275,207.7983,NaN,,0.0,6.0,,19 / 24,,1348,2021-05-11 18:52:32:939
-0.052674,0.395055,9.665688,0.041778,0.255327,9.803237,0.003561,0.015214,-0.004525,137.22,-36.96,147.9,253.3418,-1.473,-0.2403,1002.8779,55.814,37.500275,207.7983,NaN,,0.0,6.0,,19 / 24,,1358,2021-05-11 18:52:32:949
-0.023943,0.299284,9.644139,0.039377,0.263574,9.803028,-0.023928,0.028042,-0.002693,137.22,-36.24,147.6,253.3418,-1.473,-0.2403,1002.8779,55.814,37.500275,207.7983,NaN,,0.0,6.0,,19 / 24,,1367,2021-05-11 18:52:32:958
0.0,0.29689,9.737515,0.030211,0.26617,9.802991,-0.038588,0.030486,-0.005136,136.86,-36.12,148.08,253.6644,-1.5401,-0.2301,1002.8779,55.814,37.500275,207.7983,NaN,,0.0,6.0,,19 / 24,,1378,2021-05-11 18:52:32:969
0.026337,0.275342,9.91948,0.030211,0.26617,9.802991,-0.033701,0.017047,-0.010023,136.86,-36.12,148.08,253.6644,-1.5401,-0.2301,1002.8779,55.814,37.500275,207.7983,NaN,,0.0,6.0,,19 / 24,,1388,2021-05-11 18:52:32:979
0.090982,0.318439,10.005674,0.022998,0.265299,9.803034,-0.017208,0.001164,-0.012467,136.92,-36.12,148.44,253.6644,-1.5401,-0.2301,1002.8779,55.814,37.500275,207.7983,NaN,,0.0,6.0,,19 / 24,,1398,2021-05-11 18:52:32:989
0.090982,0.318439,10.005674,0.022998,0.265299,9.803034,0.001729,-0.004944,-0.021019,136.92,-36.12,148.44,253.6644,-1.5401,-0.2301,1002.8779,55.814,37.500275,207.7983,NaN,,0.0,6.0,,19 / 24,,1408,2021-05-11 18:52:32:999
0.114925,0.270553,9.941029,0.025267,0.269994,9.8029,0.012724,-0.007388,-0.022851,136.8,-36.54,148.68,253.2888,-1.5502,-0.1344,1002.8779,55.814,37.500275,207.7983,NaN,,0.0,6.0,,19 / 24,,1418,2021-05-11 18:52:33:009
0.05028,0.241822,9.926663,0.025267,0.269994,9.8029,0.02372,-0.006166,-0.023462,136.8,-36.54,148.68,253.2888,-1.5502,-0.1344,1002.8779,55.814,37.500275,207.7983,NaN,,0.0,6.0,,19 / 24,,1428,2021-05-11 18:52:33:019
0.011971,0.215485,9.924269,0.030714,0.275401,9.802733,0.029218,-0.00861,-0.018575,136.56,-36.6,148.98,253.2888,-1.5502,-0.1344,1002.8779,55.814,37.500275,207.7983,NaN,,0.0,6.0,,19 / 24,,1439,2021-05-11 18:52:33:030
-0.026337,0.172388,9.864412,0.030714,0.275401,9.802733,0.032883,-0.005555,-0.018575,136.56,-36.6,148.98,253.2888,-1.5502,-0.1344,1002.8772,55.814,37.500275,207.7983,NaN,,0.0,6.0,,19 / 24,,1448,2021-05-11 18:52:33:039
-0.026337,0.172388,9.864412,0.030714,0.275401,9.802733,0.032883,-0.005555,-0.018575,136.56,-36.6,148.98,253.2888,-1.5502,-0.1344,1002.8772,55.814,37.500275,207.7983,NaN,,0.0,6.0,,19 / 24,,1458,2021-05-11 18:52:33:049
-0.028731,0.21309,9.828498,0.032119,0.278047,9.802655,0.034715,-6.68E-4,-0.017964,136.68,-35.94,148.74,253.5825,-1.6247,-0.1877,1002.8772,55.814,37.500275,207.7983,NaN,,0.0,6.0,,19 / 24,,1468,2021-05-11 18:52:33:059
-0.098165,0.234639,9.802161,0.032119,0.278047,9.802655,0.022498,0.00483,-0.020408,136.68,-35.94,148.74,253.5825,-1.6247,-0.1877,1002.8772,55.814,37.500275,207.7983,NaN,,0.0,6.0,,19 / 24,,1478,2021-05-11 18:52:33:069
-0.057463,0.260976,9.763853,0.027579,0.277325,9.80269,0.017,0.015214,-0.010634,136.74,-36.06,148.38,253.5825,-1.6247,-0.1877,1002.8772,55.814,37.500275,207.7983,NaN,,0.0,6.0,,19 / 24,,1488,2021-05-11 18:52:33:079
-0.019154,0.29689,9.771035,0.017901,0.274847,9.802782,0.013946,0.01949,-0.010634,136.56,-36.54,148.2,253.2213,-1.6205,-0.1612,1002.8772,55.814,37.500275,207.7983,NaN,,0.0,6.0,,19 / 24,,1498,2021-05-11 18:52:33:089
-0.019154,0.29689,9.771035,0.017901,0.274847,9.802782,0.011503,0.015214,-0.016132,136.56,-36.54,148.2,253.2213,-1.6205,-0.1612,1002.8772,55.814,37.500275,207.7983,NaN,,0.0,6.0,,19 / 24,,1508,2021-05-11 18:52:33:099
-0.047885,0.31365,9.759064,0.008619,0.274161,9.802814,0.015779,0.016436,-0.018575,136.02,-36.54,148.44,253.2213,-1.6205,-0.1612,1002.8772,55.814,37.500275,207.7983,NaN,,0.0,6.0,,19 / 24,,1518,2021-05-11 18:52:33:109
-0.088588,0.282524,9.692024,0.008619,0.274161,9.802814,0.018833,5.53E-4,-0.014299,136.02,-36.54,148.44,253.2213,-1.6205,-0.1612,1002.8772,55.814,37.500275,207.7983,NaN,,0.0,6.0,,19 / 24,,1528,2021-05-11 18:52:33:119
-0.06704,0.28013,9.684841,3.69E-4,0.276544,9.802751,0.013335,5.53E-4,-0.00758,136.56,-36.48,148.68,253.6493,-1.602,-0.0504,1002.8772,55.814,37.500275,207.7983,NaN,,0.0,6.0,,19 / 24,,1538,2021-05-11 18:52:33:129
0.040703,0.304073,9.692024,3.69E-4,0.276544,9.802751,0.013335,5.53E-4,-0.00758,136.56,-36.48,148.68,253.6493,-1.602,-0.0504,1002.8838,55.814,37.500275,207.7983,NaN,,0.0,6.0,,19 / 24,,1547,2021-05-11 18:52:33:138
0.040703,0.304073,9.692024,3.69E-4,0.276544,9.802751,0.008448,0.01216,-0.003914,136.56,-36.48,148.68,253.6493,-1.602,-0.0504,1002.8838,55.814,37.500275,207.7983,NaN,,0.0,6.0,,19 / 24,,1558,2021-05-11 18:52:33:149
0.045491,0.301679,9.63935,-0.00678,0.279168,9.802673,-0.001326,0.017047,-0.00758,136.44,-36.42,148.44,253.6493,-1.602,-0.0504,1002.8838,55.814,37.500275,207.7983,NaN,,0.0,6.0,,19 / 24,,1568,2021-05-11 18:52:33:159
0.01676,0.28013,9.732727,-0.010605,0.279272,9.802668,-0.015375,0.013382,-0.010023,136.38,-36.12,148.62,253.5353,-1.6313,0.0396,1002.8838,55.814,37.500275,207.7983,NaN,,0.0,6.0,,19 / 24,,1578,2021-05-11 18:52:33:169
-0.019154,0.282524,9.749487,-0.010605,0.279272,9.802668,-0.016597,0.021934,-0.00819,136.38,-36.12,148.62,253.5353,-1.6313,0.0396,1002.8838,55.814,37.500275,207.7983,NaN,,0.0,6.0,,19 / 24,,1588,2021-05-11 18:52:33:179
-0.019154,0.282524,9.749487,-0.010605,0.279272,9.802668,-0.014765,0.018269,-0.006969,136.38,-36.12,148.62,253.5353,-1.6313,0.0396,1002.8838,55.814,37.500275,207.7983,NaN,,0.0,6.0,,19 / 24,,1598,2021-05-11 18:52:33:189
-0.031126,0.292102,9.727939,-0.013316,0.278372,9.80269,-0.014765,0.013382,-0.011245,136.56,-36.24,148.44,253.5353,-1.6313,0.0396,1002.8838,55.814,37.500275,207.7983,NaN,,0.0,6.0,,19 / 24,,1608,2021-05-11 18:52:33:199
-0.045491,0.287313,9.747093,-0.016035,0.277864,9.8027,-0.015375,5.53E-4,-0.002082,136.62,-36.54,148.08,253.2929,-1.6266,0.0778,1002.8838,55.813995,37.50028,207.8181,NaN,,0.0,6.0,,22 / 26,,1618,2021-05-11 18:52:33:209
-0.014366,0.272947,9.840469,-0.016035,0.277864,9.8027,-0.014765,-0.006166,-0.002082,136.62,-36.54,148.08,253.2929,-1.6266,0.0778,1002.8838,55.813995,37.50028,207.8181,NaN,,0.0,6.0,,22 / 26,,1628,2021-05-11 18:52:33:219
-0.009577,0.24661,9.912297,-0.016304,0.276474,9.802738,-0.008656,-0.004333,0.002194,136.86,-37.14,148.08,253.2929,-1.6266,0.0778,1002.8838,55.813995,37.50028,207.8181,NaN,,0.0,6.0,,22 / 26,,1638,2021-05-11 18:52:33:229
-0.009577,0.24661,9.912297,-0.016304,0.276474,9.802738,0.004172,-0.00189,0.004638,136.86,-37.14,148.08,253.2929,-1.6266,0.0778,1002.8977,55.813995,37.50028,207.8181,NaN,,0.0,6.0,,22 / 26,,1648,2021-05-11 18:52:33:239
0.05028,0.24661,9.897932,-0.016304,0.276474,9.802738,0.00967,-0.012275,0.001583,136.86,-37.14,148.08,253.2929,-1.6266,0.0778,1002.8977,55.813995,37.50028,207.8181,NaN,,0.0,6.0,,22 / 26,,1658,2021-05-11 18:52:33:249
0.040703,0.26337,9.869201,-0.015112,0.27564,9.802764,0.01639,-0.018383,-0.001471,136.92,-36.96,147.78,253.3094,-1.6155,0.0953,1002.8977,55.813995,37.50028,207.8181,NaN,,0.0,6.0,,22 / 26,,1669,2021-05-11 18:52:33:260
0.038308,0.272947,9.842864,-0.008645,0.275967,9.802762,0.017,-0.007388,-0.005747,137.28,-36.66,147.66,253.3094,-1.6155,0.0953,1002.8977,55.813995,37.50028,207.8181,NaN,,0.0,6.0,,22 / 26,,1677,2021-05-11 18:52:33:268
0.004789,0.304073,9.72315,-0.008645,0.275967,9.802762,0.007837,-0.006166,-0.00758,137.28,-36.66,147.66,253.3094,-1.6155,0.0953,1002.8977,55.813995,37.50028,207.8181,NaN,,0.0,6.0,,22 / 26,,1688,2021-05-11 18:52:33:279
0.004789,0.304073,9.72315,-0.003322,0.277564,9.802721,0.001118,-0.007999,-0.003914,136.98,-36.54,147.66,253.2978,-1.6126,0.0505,1002.8977,55.813995,37.50028,207.8181,NaN,,0.0,6.0,,22 / 26,,1698,2021-05-11 18:52:33:289
-0.023943,0.304073,9.684841,-0.003322,0.277564,9.802721,-0.014765,-0.002501,-0.005136,136.98,-36.54,147.66,253.2978,-1.6126,0.0505,1002.8977,55.813995,37.50028,207.8181,NaN,,0.0,6.0,,22 / 26,,1708,2021-05-11 18:52:33:299
0.007183,0.323227,9.732727,1.0E-6,0.278135,9.802705,-0.02576,0.012771,-0.009412,137.04,-36.9,147.9,253.2978,-1.6126,0.0505,1002.8977,55.813995,37.50028,207.8181,NaN,,0.0,6.0,,22 / 26,,1718,2021-05-11 18:52:33:309
-0.040703,0.272947,9.783007,1.0E-6,0.278135,9.802705,-0.028815,0.023155,-0.008801,137.04,-36.9,147.9,253.2978,-1.6126,0.0505,1002.8977,55.813995,37.50028,207.8181,NaN,,0.0,6.0,,22 / 26,,1728,2021-05-11 18:52:33:319
-0.06704,0.24661,9.823709,-0.003625,0.27606,9.802763,-0.028815,0.023155,-0.008801,136.86,-36.9,147.84,253.2691,-1.6252,0.0,1002.8977,55.813995,37.50028,207.8181,NaN,,0.0,6.0,,22 / 26,,1738,2021-05-11 18:52:33:329
-0.06704,0.222668,9.859624,-0.003625,0.27606,9.802763,-0.019652,0.014603,0.003416,136.86,-36.9,147.84,253.2691,-1.6252,0.0,1002.8997,55.813995,37.50028,207.8181,NaN,,0.0,6.0,,22 / 26,,1748,2021-05-11 18:52:33:339
-0.06704,0.222668,9.859624,-0.009581,0.273034,9.802844,-0.011099,0.008495,0.007081,136.68,-36.72,147.66,253.2691,-1.6252,0.0,1002.8997,55.813995,37.50028,207.8181,NaN,,0.0,6.0,,22 / 26,,1759,2021-05-11 18:52:33:350
-0.035914,0.222668,9.924269,-0.009581,0.273034,9.802844,-0.001936,0.011549,0.007081,136.68,-36.72,147.66,253.2691,-1.6252,0.0,1002.8997,55.813995,37.50028,207.8181,NaN,,0.0,6.0,,22 / 26,,1768,2021-05-11 18:52:33:359
0.059857,0.234639,9.895537,-0.009581,0.273034,9.802844,0.006005,0.007884,0.004638,136.68,-36.72,147.66,253.2691,-1.6252,0.0,1002.8997,55.813995,37.50028,207.8181,NaN,,0.0,6.0,,22 / 26,,1778,2021-05-11 18:52:33:369
0.059857,0.234639,9.895537,-0.013843,0.270691,9.802903,0.014557,-0.003723,0.002194,136.8,-36.66,148.26,253.3164,-1.5954,0.056,1002.8997,55.813995,37.50028,207.8181,NaN,,0.0,6.0,,22 / 26,,1789,2021-05-11 18:52:33:380
0.081405,0.277736,9.854836,-0.010909,0.270467,9.802914,0.017,-0.015329,-0.004525,136.62,-36.42,148.08,253.3164,-1.5954,0.056,1002.8997,55.813995,37.50028,207.8181,NaN,,0.0,6.0,,22 / 26,,1798,2021-05-11 18:52:33:389
0.055068,0.323227,9.828498,-0.010909,0.270467,9.802914,0.01639,-0.012886,-0.011856,136.62,-36.42,148.08,253.3164,-1.5954,0.056,1002.8997,55.813995,37.50028,207.8181,NaN,,0.0,6.0,,22 / 26,,1808,2021-05-11 18:52:33:399
-0.019154,0.351958,9.737515,-0.00359,0.272509,9.802862,0.013946,-5.7E-5,-0.011245,136.62,-36.54,147.54,253.3337,-1.5804,0.0638,1002.8997,55.813995,37.50028,207.8181,NaN,,0.0,6.0,,22 / 26,,1818,2021-05-11 18:52:33:409
-0.062251,0.33041,9.646533,-0.00359,0.272509,9.802862,0.004172,0.001775,-2.49E-4,136.62,-36.54,147.54,253.3337,-1.5804,0.0638,1002.8997,55.813995,37.50028,207.8181,NaN,,0.0,6.0,,22 / 26,,1828,2021-05-11 18:52:33:419
-0.062251,0.33041,9.646533,-0.00359,0.272509,9.802862,0.004172,0.001775,-2.49E-4,136.38,-36.48,147.72,253.3337,-1.5804,0.0638,1002.8997,55.813995,37.50028,207.8181,NaN,,0.0,6.0,,22 / 26,,1838,2021-05-11 18:52:33:429
-0.076617,0.316044,9.696813,-0.002161,0.276702,9.802746,-0.005602,0.01216,0.007081,136.38,-36.48,147.72,253.3337,-1.5804,0.0638,1002.8962,55.813995,37.50028,207.8181,NaN,,0.0,6.0,,22 / 26,,1848,2021-05-11 18:52:33:439
-0.052674,0.270553,9.694419,-0.006344,0.279991,9.80265,-0.005602,0.01216,0.007081,136.26,-36.96,148.08,253.1654,-1.6169,0.0126,1002.8962,55.813995,37.50028,207.8181,NaN,,0.0,6.0,,22 / 26,,1858,2021-05-11 18:52:33:449
-0.043097,0.260976,9.75667,-0.006344,0.279991,9.80265,-0.009878,0.007884,0.010746,136.26,-36.96,148.08,253.1654,-1.6169,0.0126,1002.8962,55.813995,37.50028,207.8181,NaN,,0.0,6.0,,22 / 26,,1868,2021-05-11 18:52:33:459
-0.011971,0.222668,9.878778,-0.011822,0.279027,9.802672,-0.022706,0.009716,0.010746,136.38,-37.2,147.6,253.1654,-1.6169,0.0126,1002.8962,55.813995,37.50028,207.8181,NaN,,0.0,6.0,,22 / 26,,1879,2021-05-11 18:52:33:470
-0.011971,0.222668,9.878778,-0.011822,0.279027,9.802672,-0.022706,0.01949,0.010746,136.38,-37.2,147.6,253.1654,-1.6169,0.0126,1002.8962,55.813995,37.50028,207.8181,NaN,,0.0,6.0,,22 / 26,,1888,2021-05-11 18:52:33:479
0.009577,0.198725,9.988914,-0.011822,0.279027,9.802672,-0.015986,0.010938,0.004027,136.38,-37.2,147.6,253.1654,-1.6169,0.0126,1002.8962,55.813995,37.50028,207.8181,NaN,,0.0,6.0,,22 / 26,,1897,2021-05-11 18:52:33:488
0.043097,0.258582,10.027223,-0.016108,0.27359,9.80282,0.00967,0.007273,-0.004525,136.62,-36.96,148.08,253.2863,-1.6304,0.0691,1002.8962,55.813995,37.50028,207.8181,NaN,,0.0,6.0,,22 / 26,,1908,2021-05-11 18:52:33:499
0.059857,0.277736,9.921875,-0.015863,0.270476,9.802906,0.025552,-0.011664,-0.00819,136.8,-36.18,148.38,253.2863,-1.6304,0.0691,1002.8962,55.813995,37.50028,207.8181,NaN,,0.0,6.0,,22 / 26,,1918,2021-05-11 18:52:33:509
0.059857,0.277736,9.921875,-0.015863,0.270476,9.802906,0.025552,-0.011664,-0.00819,136.8,-36.18,148.38,253.2863,-1.6304,0.0691,1002.8962,55.813995,37.50028,207.8181,NaN,,0.0,6.0,,22 / 26,,1928,2021-05-11 18:52:33:519
-0.019154,0.325621,9.850046,-0.012479,0.271481,9.802883,0.031661,-0.02327,-0.006358,136.62,-35.58,148.02,253.2863,-1.6304,0.0691,1002.8962,55.813995,37.50028,207.8181,NaN,,0.0,6.0,,22 / 26,,1938,2021-05-11 18:52:33:529
-0.038308,0.287313,9.720756,-0.00651,0.276894,9.802738,0.024942,-0.012886,0.005249,136.62,-35.46,147.48,254.1107,-1.5863,0.0729,1002.8962,55.813995,37.50028,207.8181,NaN,,0.0,6.0,,22 / 26,,1948,2021-05-11 18:52:33:539
-0.038308,0.287313,9.720756,-0.00651,0.276894,9.802738,0.024942,-0.012886,0.005249,136.62,-35.46,147.48,254.1107,-1.5863,0.0729,1002.8962,55.813995,37.50028,207.8181,NaN,,0.0,6.0,,22 / 26,,1958,2021-05-11 18:52:33:549
0.098165,0.265765,9.684841,-0.005348,0.27886,9.802683,0.008448,-0.001279,0.008914,136.62,-35.88,147.66,254.1107,-1.5863,0.0729,1002.8962,55.813995,37.50028,207.8181,NaN,,0.0,6.0,,22 / 26,,1968,2021-05-11 18:52:33:559
0.076617,0.337593,9.771035,1.98E-4,0.279477,9.802668,-0.001326,0.002997,-8.6E-4,136.5,-36.72,147.72,254.1107,-1.5863,0.0729,1002.8962,55.813995,37.50028,207.8181,NaN,,0.0,6.0,,22 / 26,,1978,2021-05-11 18:52:33:569
0.028731,0.349564,9.72315,1.98E-4,0.279477,9.802668,0.010892,0.003608,-0.006358,136.5,-36.72,147.72,254.1107,-1.5863,0.0729,1002.8962,55.813995,37.50028,207.8181,NaN,,0.0,6.0,,22 / 26,,1988,2021-05-11 18:52:33:579
0.028731,0.349564,9.72315,0.005574,0.283847,9.80254,0.009059,0.001164,-0.002082,136.74,-36.42,147.72,253.6451,-1.6331,-0.0012,1002.8962,55.813995,37.50028,207.8181,NaN,,0.0,6.0,,22 / 26,,1999,2021-05-11 18:52:33:590
-0.002394,0.38069,9.701602,0.005574,0.283847,9.80254,-0.006823,0.017658,0.004638,136.74,-36.42,147.72,253.6451,-1.6331,-0.0012,1002.8962,55.813995,37.50028,207.8181,NaN,,0.0,6.0,,22 / 26,,2008,2021-05-11 18:52:33:599
-0.055068,0.292102,9.718362,0.006424,0.288971,9.802389,-0.023317,0.024377,0.00647,137.16,-36.3,148.08,253.6451,-1.6331,-0.0012,1002.8962,55.813995,37.50028,207.8181,NaN,,0.0,6.0,,22 / 26,,2018,2021-05-11 18:52:33:609
-0.126897,0.268159,9.823709,0.006424,0.288971,9.802389,-0.028815,0.022545,0.005249,137.16,-36.3,148.08,253.6451,-1.6331,-0.0012,1002.8962,55.813995,37.50028,207.8181,NaN,,0.0,6.0,,22 / 26,,2028,2021-05-11 18:52:33:619
-0.059857,0.244216,9.924269,-8.58E-4,0.287402,9.802438,-0.028815,0.022545,0.005249,136.68,-36.6,148.2,253.1946,-1.6886,-0.0375,1002.8962,55.813995,37.50028,207.8181,NaN,,0.0,6.0,,22 / 26,,2038,2021-05-11 18:52:33:629
-0.059857,0.244216,9.924269,-8.58E-4,0.287402,9.802438,-0.015986,-0.003112,0.002805,136.68,-36.6,148.2,253.1946,-1.6886,-0.0375,1002.8955,55.813995,37.50028,207.8181,NaN,,0.0,6.0,,22 / 26,,2048,2021-05-11 18:52:33:639
0.023943,0.316044,9.953,-0.00455,0.285776,9.802485,-1.04E-4,-0.014718,-0.001471,136.56,-36.36,147.78,253.1946,-1.6886,-0.0375,1002.8955,55.813995,37.50028,207.8181,NaN,,0.0,6.0,,22 / 26,,2058,2021-05-11 18:52:33:649
0.071828,0.342381,9.912297,-0.00455,0.285776,9.802485,0.012113,-0.012275,-0.003304,136.56,-36.36,147.78,253.1946,-1.6886,-0.0375,1002.8955,55.813995,37.50028,207.8181,NaN,,0.0,6.0,,22 / 26,,2068,2021-05-11 18:52:33:659
0.011971,0.311256,9.802161,-0.002416,0.290368,9.80235,0.012724,-0.016551,0.002194,136.56,-36.42,147.66,253.6176,-1.6699,0.0266,1002.8955,55.813995,37.50028,207.8181,NaN,,0.0,6.0,,22 / 26,,2078,2021-05-11 18:52:33:669
0.021548,0.28013,9.818921,-0.002416,0.290368,9.80235,0.003561,-0.013496,0.005859,136.56,-36.42,147.66,253.6176,-1.6699,0.0266,1002.8955,55.813995,37.50028,207.8181,NaN,,0.0,6.0,,22 / 26,,2088,2021-05-11 18:52:33:679
0.021548,0.28013,9.818921,0.001372,0.292869,9.802276,5.07E-4,-0.00922,0.008303,136.98,-36.96,147.36,253.6176,-1.6699,0.0266,1002.8955,55.813995,37.50028,207.8181,NaN,,0.0,6.0,,22 / 26,,2098,2021-05-11 18:52:33:689
0.038308,0.282524,9.905115,0.001372,0.292869,9.802276,0.00234,-0.005555,0.007692,136.98,-36.96,147.36,253.6176,-1.6699,0.0266,1002.8955,55.813995,37.50028,207.8181,NaN,,0.0,6.0,,22 / 26,,2109,2021-05-11 18:52:33:700
0.002394,0.241822,9.914692,0.003944,0.292502,9.802286,0.015168,-0.007999,9.72E-4,137.34,-36.84,147.48,253.1933,-1.7114,-0.008,1002.8955,55.813995,37.50028,207.8181,NaN,,0.0,6.0,,22 / 26,,2118,2021-05-11 18:52:33:709
-0.043097,0.227456,9.900327,0.003944,0.292502,9.802286,0.029829,-0.017773,-8.6E-4,137.34,-36.84,147.48,253.1933,-1.7114,-0.008,1002.8955,55.813995,37.50028,207.8181,NaN,,0.0,6.0,,22 / 26,,2128,2021-05-11 18:52:33:719
-0.023943,0.249005,9.866806,0.006457,0.292946,9.802272,0.028607,-0.013496,0.002805,136.8,-36.18,148.14,253.1933,-1.7114,-0.008,1002.8955,55.813995,37.50028,207.8181,NaN,,0.0,6.0,,22 / 26,,2138,2021-05-11 18:52:33:729
-0.023943,0.249005,9.866806,0.006457,0.292946,9.802272,0.027996,0.010327,0.002805,136.8,-36.18,148.14,253.1933,-1.7114,-0.008,1002.9028,55.813995,37.50028,207.8181,NaN,,0.0,6.0,,22 / 26,,2148,2021-05-11 18:52:33:739
0.043097,0.328016,9.761458,0.004365,0.29365,9.802252,0.020666,0.010938,-0.001471,136.74,-36.06,148.14,253.5557,-1.7118,-0.0377,1002.9028,55.813995,37.50028,207.8181,NaN,,0.0,6.0,,22 / 26,,2158,2021-05-11 18:52:33:749
0.028731,0.335198,9.644139,0.004365,0.29365,9.802252,0.003561,0.002997,-0.003304,136.74,-36.06,148.14,253.5557,-1.7118,-0.0377,1002.9028,55.813995,37.50028,207.8181,NaN,,0.0,6.0,,22 / 26,,2168,2021-05-11 18:52:33:759
0.01676,0.308861,9.732727,0.004685,0.294402,9.802229,-0.004991,0.00483,-0.005136,136.68,-35.82,147.72,253.5557,-1.7118,-0.0377,1002.9028,55.813995,37.50028,207.8181,NaN,,0.0,6.0,,22 / 26,,2178,2021-05-11 18:52:33:769
0.01676,0.308861,9.732727,0.004685,0.294402,9.802229,-0.011099,0.024988,-0.003304,136.68,-35.82,147.72,253.5557,-1.7118,-0.0377,1002.9028,55.813995,37.50028,207.8181,NaN,,0.0,6.0,,22 / 26,,2188,2021-05-11 18:52:33:779
-0.007183,0.304073,9.814133,0.004685,0.294402,9.802229,-0.011099,0.024988,-0.003304,136.68,-35.82,147.72,253.5557,-1.7118,-0.0377,1002.9028,55.813995,37.50028,207.8181,NaN,,0.0,6.0,,22 / 26,,2197,2021-05-11 18:52:33:788
-0.045491,0.277736,9.742304,0.003935,0.292937,9.802273,-0.011099,0.034151,-2.49E-4,136.14,-36.3,147.3,253.4577,-1.7118,-0.023,1002.9028,55.813995,37.50028,207.8181,NaN,,0.0,6.0,,22 / 26,,2208,2021-05-11 18:52:33:799
-0.014366,0.270553,9.783007,-9.67E-4,0.29145,9.802319,-0.007434,0.014603,0.001583,136.92,-36.54,147.0,253.4577,-1.7118,-0.023,1002.9028,55.813995,37.50028,207.8181,NaN,,0.0,6.0,,22 / 26,,2218,2021-05-11 18:52:33:809
-0.014366,0.277736,9.799767,-9.67E-4,0.29145,9.802319,-0.001326,0.006662,0.004638,136.92,-36.54,147.0,253.4577,-1.7118,-0.023,1002.9028,55.813995,37.50028,207.8181,NaN,,0.0,6.0,,22 / 26,,2228,2021-05-11 18:52:33:819
-0.014366,0.277736,9.799767,-0.002489,0.291077,9.802329,-0.002547,0.009716,9.72E-4,136.86,-36.18,146.7,253.5896,-1.7031,0.0057,1002.9028,55.813995,37.50028,207.8181,NaN,,0.0,6.0,,22 / 26,,2238,2021-05-11 18:52:33:829
-0.009577,0.256187,9.814133,-0.002489,0.291077,9.802329,0.00234,0.007273,0.004638,136.86,-36.18,146.7,253.5896,-1.7031,0.0057,1002.8931,55.813995,37.50028,207.8181,NaN,,0.0,6.0,,22 / 26,,2248,2021-05-11 18:52:33:839
0.035914,0.294496,9.818921,-0.004318,0.289489,9.802376,0.003561,-0.00189,-2.49E-4,136.02,-35.7,146.94,253.5896,-1.7031,0.0057,1002.8931,55.813995,37.50028,207.8181,NaN,,0.0,6.0,,22 / 26,,2258,2021-05-11 18:52:33:849
0.105348,0.318439,9.794978,-0.004318,0.289489,9.802376,0.003561,-0.00189,-2.49E-4,136.02,-35.7,146.94,253.5896,-1.7031,0.0057,1002.8931,55.813995,37.50028,207.8181,NaN,,0.0,6.0,,22 / 26,,2268,2021-05-11 18:52:33:859
0.105348,0.301679,9.833286,3.83E-4,0.290146,9.802357,0.006005,-0.020216,-0.004525,136.74,-35.82,147.36,253.6071,-1.6916,0.0252,1002.8931,55.813995,37.50028,207.8181,NaN,,0.0,6.0,,22 / 26,,2278,2021-05-11 18:52:33:869
0.105348,0.301679,9.833286,3.83E-4,0.290146,9.802357,0.00295,-0.01594,-0.013688,136.74,-35.82,147.36,253.6071,-1.6916,0.0252,1002.8931,55.813995,37.50028,207.8181,NaN,,0.0,6.0,,22 / 26,,2288,2021-05-11 18:52:33:879
0.002394,0.320833,9.792584,0.009901,0.291475,9.802313,0.004783,-0.014107,-0.017964,137.04,-35.88,147.78,253.6071,-1.6916,0.0252,1002.8931,55.813995,37.50028,207.8181,NaN,,0.0,6.0,,22 / 26,,2297,2021-05-11 18:52:33:888
0.019154,0.306467,9.763853,0.009901,0.291475,9.802313,0.006005,-0.020827,-0.011856,137.04,-35.88,147.78,253.6071,-1.6916,0.0252,1002.8931,55.813995,37.50028,207.8181,NaN,,0.0,6.0,,22 / 26,,2307,2021-05-11 18:52:33:898
-0.043097,0.342381,9.842864,0.017293,0.294495,9.802213,0.00234,-0.012886,-0.011245,137.1,-35.46,147.54,253.9434,-1.7032,-0.0579,1002.8931,55.813995,37.50028,207.8181,NaN,,0.0,6.0,,22 / 26,,2318,2021-05-11 18:52:33:909
-0.043097,0.342381,9.842864,0.017293,0.294495,9.802213,0.004783,0.010327,-0.00819,137.1,-35.46,147.54,253.9434,-1.7032,-0.0579,1002.8931,55.813995,37.50028,207.8181,NaN,,0.0,6.0,,22 / 26,,2328,2021-05-11 18:52:33:919
-0.035914,0.33041,9.802161,0.016082,0.298323,9.802098,0.009059,0.015214,-0.003304,137.16,-36.06,146.94,253.9434,-1.7032,-0.0579,1002.8931,55.813995,37.50028,207.8181,NaN,,0.0,6.0,,22 / 26,,2338,2021-05-11 18:52:33:929
-0.021548,0.344776,9.797373,0.016082,0.298323,9.802098,0.006616,0.007273,0.003416,137.16,-36.06,146.94,253.9434,-1.7032,-0.0579,1002.8972,55.813995,37.50028,207.8181,NaN,,0.0,6.0,,22 / 26,,2348,2021-05-11 18:52:33:939
0.011971,0.349564,9.854836,0.011715,0.303822,9.801935,0.00234,0.007884,-0.005136,137.22,-36.54,147.18,253.1341,-1.7432,-0.094,1002.8972,55.813995,37.50028,207.8181,NaN,,0.0,6.0,,22 / 26,,2358,2021-05-11 18:52:33:949
0.011971,0.349564,9.854836,0.011715,0.303822,9.801935,-7.15E-4,0.010938,-0.004525,137.22,-36.54,147.18,253.1341,-1.7432,-0.094,1002.8972,55.813995,37.50028,207.8181,NaN,,0.0,6.0,,22 / 26,,2368,2021-05-11 18:52:33:959
0.057463,0.34717,9.885961,0.008768,0.308364,9.801797,-7.15E-4,0.013992,-0.010023,137.58,-36.54,146.7,253.1341,-1.7432,-0.094,1002.8972,55.813995,37.50028,207.8181,NaN,,0.0,6.0,,22 / 26,,2378,2021-05-11 18:52:33:969
0.011971,0.318439,9.878778,0.008768,0.308364,9.801797,-7.15E-4,0.013992,-0.010023,137.58,-36.54,146.7,253.1341,-1.7432,-0.094,1002.8972,55.813995,37.50028,207.8181,NaN,,0.0,6.0,,22 / 26,,2388,2021-05-11 18:52:33:979
0.052674,0.272947,9.907509,0.008039,0.312169,9.801677,0.004172,0.002386,-0.008801,137.34,-36.06,146.52,253.4746,-1.8019,-0.0513,1002.8972,55.813995,37.50028,207.8181,NaN,,0.0,6.0,,22 / 26,,2398,2021-05-11 18:52:33:989
0.014366,0.320833,9.941029,0.008039,0.312169,9.801677,0.00967,0.00483,-0.011245,137.34,-36.06,146.52,253.4746,-1.8019,-0.0513,1002.8972,55.813995,37.50028,207.8181,NaN,,0.0,6.0,,22 / 26,,2409,2021-05-11 18:52:34:000
-0.05028,0.287313,9.809344,0.009261,0.31537,9.801574,0.027385,0.007273,-0.015521,137.4,-36.12,147.06,253.4746,-1.8019,-0.0513,1002.8972,55.813995,37.50028,207.8181,NaN,,0.0,6.0,,22 / 26,,2418,2021-05-11 18:52:34:009
-0.05028,0.287313,9.809344,0.009261,0.31537,9.801574,0.038381,-0.00922,-0.016743,137.4,-36.12,147.06,253.4746,-1.8019,-0.0513,1002.8972,55.813995,37.50028,207.8181,NaN,,0.0,6.0,,22 / 26,,2428,2021-05-11 18:52:34:019
-0.081405,0.337593,9.680053,0.009261,0.31537,9.801574,0.037159,-0.010442,-0.016743,137.4,-36.12,147.06,253.4746,-1.8019,-0.0513,1002.8972,55.813995,37.50028,207.8181,NaN,,0.0,6.0,,22 / 26,,2438,2021-05-11 18:52:34:029
-0.088588,0.34717,9.651321,0.0089,0.32259,9.801339,0.024331,0.001164,-0.014299,137.58,-36.24,146.52,253.5472,-1.8429,-0.0541,1002.8928,55.813995,37.50028,207.8181,NaN,,0.0,6.0,,22 / 26,,2448,2021-05-11 18:52:34:039
-0.088588,0.356747,9.577099,0.002959,0.327757,9.801171,0.005394,0.014603,-0.006358,137.4,-35.88,145.86,253.5472,-1.8429,-0.0541,1002.8928,55.813995,37.50028,207.8181,NaN,,0.0,6.0,,22 / 26,,2458,2021-05-11 18:52:34:049
-0.088588,0.356747,9.577099,0.002959,0.327757,9.801171,-0.012321,0.018269,-0.003914,137.4,-35.88,145.86,253.5472,-1.8429,-0.0541,1002.8928,55.813995,37.50028,207.8181,NaN,,0.0,6.0,,22 / 26,,2468,2021-05-11 18:52:34:059
-0.0838,0.34717,9.591465,-0.007994,0.329094,9.801123,-0.022095,0.013382,-0.002693,137.1,-35.88,145.98,253.3875,-1.9153,-0.0173,1002.8928,55.813995,37.50028,207.8181,NaN,,0.0,6.0,,22 / 26,,2478,2021-05-11 18:52:34:069
-0.098165,0.337593,9.718362,-0.007994,0.329094,9.801123,-0.023317,0.017047,0.002194,137.1,-35.88,145.98,253.3875,-1.9153,-0.0173,1002.8928,55.813995,37.50028,207.8181,NaN,,0.0,6.0,,22 / 26,,2488,2021-05-11 18:52:34:079
-0.057463,0.318439,9.747093,-0.018543,0.327415,9.801166,-0.023317,0.012771,-0.001471,136.32,-36.3,146.4,253.3875,-1.9153,-0.0173,1002.8928,55.813995,37.50028,207.8181,NaN,,0.0,6.0,,22 / 26,,2498,2021-05-11 18:52:34:089
-0.057463,0.318439,9.747093,-0.018543,0.327415,9.801166,-0.020262,0.012771,-0.001471,136.32,-36.3,146.4,253.3875,-1.9153,-0.0173,1002.8928,55.813995,37.50028,207.8181,NaN,,0.0,6.0,,22 / 26,,2508,2021-05-11 18:52:34:099
-0.0838,0.304073,9.799767,-0.027834,0.32552,9.801207,-0.015375,0.00483,0.002805,136.68,-36.36,146.46,253.4299,-1.9133,0.1084,1002.8928,55.813995,37.50028,207.8181,NaN,,0.0,6.0,,22 / 26,,2518,2021-05-11 18:52:34:109
-0.074223,0.277736,9.799767,-0.027834,0.32552,9.801207,-0.012932,-0.00189,0.005249,136.68,-36.36,146.46,253.4299,-1.9133,0.1084,1002.8928,55.813995,37.50028,207.8181,NaN,,0.0,6.0,,22 / 26,,2528,2021-05-11 18:52:34:119
-0.047885,0.272947,9.804555,-0.034677,0.322338,9.801291,-0.015375,0.002386,0.00647,137.46,-36.24,146.58,253.4299,-1.9133,0.1084,1002.8928,55.813995,37.50028,207.8181,NaN,,0.0,6.0,,22 / 26,,2538,2021-05-11 18:52:34:129
-0.057463,0.31365,9.835681,-0.034677,0.322338,9.801291,-0.020262,0.002386,0.004638,137.46,-36.24,146.58,253.4299,-1.9133,0.1084,1002.8926,55.813995,37.50028,207.8181,NaN,,0.0,6.0,,22 / 26,,2548,2021-05-11 18:52:34:139
-0.057463,0.31365,9.835681,-0.040245,0.317534,9.801426,-0.012932,-0.00189,0.004638,137.22,-36.72,146.4,253.1067,-1.8836,0.2027,1002.8926,55.813995,37.50028,207.8181,NaN,,0.0,6.0,,22 / 26,,2558,2021-05-11 18:52:34:149
-0.043097,0.311256,9.847652,-0.040245,0.317534,9.801426,-0.01171,-0.006777,0.005859,137.22,-36.72,146.4,253.1067,-1.8836,0.2027,1002.8926,55.813995,37.50028,207.8181,NaN,,0.0,6.0,,22 / 26,,2568,2021-05-11 18:52:34:159
0.021548,0.325621,9.857229,-0.04274,0.314411,9.801516,-0.006823,-0.005555,0.004638,137.04,-36.6,146.7,253.1067,-1.8836,0.2027,1002.8926,55.813995,37.50028,207.8181,NaN,,0.0,6.0,,22 / 26,,2579,2021-05-11 18:52:34:170
-0.028731,0.371113,9.787795,-0.04274,0.314411,9.801516,-0.006823,-0.005555,0.004638,137.04,-36.6,146.7,253.1067,-1.8836,0.2027,1002.8926,55.813995,37.50028,207.8181,NaN,,0.0,6.0,,22 / 26,,2588,2021-05-11 18:52:34:179
-0.028731,0.371113,9.787795,-0.04274,0.314411,9.801516,-0.00438,-0.014107,0.005249,137.04,-36.6,146.7,253.1067,-1.8836,0.2027,1002.8926,55.813995,37.50028,207.8181,NaN,,0.0,6.0,,22 / 26,,2597,2021-05-11 18:52:34:188
-0.069434,0.351958,9.80695,-0.040569,0.314029,9.801537,0.001729,-0.016551,0.007081,136.86,-36.3,147.24,253.5366,-1.8373,0.2498,1002.8926,55.813995,37.50028,207.8181,NaN,,0.0,6.0,,22 / 26,,2608,2021-05-11 18:52:34:199
0.047885,0.325621,9.775824,-0.037997,0.317615,9.801432,0.003561,-0.01594,0.010746,136.74,-36.3,146.7,253.5366,-1.8373,0.2498,1002.8926,55.813995,37.50028,207.8566,NaN,,0.0,6.0,,20 / 24,,2618,2021-05-11 18:52:34:209
0.047885,0.325621,9.775824,-0.037997,0.317615,9.801432,0.001729,-0.017162,0.002805,136.74,-36.3,146.7,253.5366,-1.8373,0.2498,1002.8926,55.813995,37.50028,207.8566,NaN,,0.0,6.0,,20 / 24,,2629,2021-05-11 18:52:34:220
0.110137,0.366324,9.75667,-0.030555,0.321385,9.801334,5.07E-4,-0.00861,-0.003304,136.44,-36.18,146.82,253.5366,-1.8373,0.2498,1002.8926,55.813995,37.50028,207.8566,NaN,,0.0,6.0,,20 / 24,,2638,2021-05-11 18:52:34:229
0.043097,0.385478,9.725544,-0.030555,0.321385,9.801334,-0.003769,-0.007388,-0.003914,136.44,-36.18,146.82,253.5366,-1.8373,0.2498,1002.8938,55.813995,37.50028,207.8566,NaN,,0.0,6.0,,20 / 24,,2648,2021-05-11 18:52:34:239
-0.059857,0.421392,9.708784,-0.021934,0.326437,9.801191,-0.014154,-0.005555,-0.001471,136.98,-36.24,146.52,253.4742,-1.878,0.1786,1002.8938,55.813995,37.50028,207.8566,NaN,,0.0,6.0,,20 / 24,,2658,2021-05-11 18:52:34:249
-0.126897,0.356747,9.761458,-0.021934,0.326437,9.801191,-0.019041,0.006051,0.004027,136.98,-36.24,146.52,253.4742,-1.878,0.1786,1002.8938,55.813995,37.50028,207.8566,NaN,,0.0,6.0,,20 / 24,,2668,2021-05-11 18:52:34:259
-0.126897,0.356747,9.761458,-0.020958,0.331599,9.80102,-0.02576,0.021934,0.011357,137.88,-36.06,146.04,253.4742,-1.878,0.1786,1002.8938,55.813995,37.50028,207.8566,NaN,,0.0,6.0,,20 / 24,,2678,2021-05-11 18:52:34:269
-0.158022,0.311256,9.847652,-0.020958,0.331599,9.80102,-0.028204,0.015825,0.01319,137.88,-36.06,146.04,253.4742,-1.878,0.1786,1002.8938,55.813995,37.50028,207.8566,NaN,,0.0,6.0,,20 / 24,,2687,2021-05-11 18:52:34:278
-0.090982,0.292102,9.914692,-0.030062,0.331249,9.801008,-0.019041,0.004219,0.01319,137.34,-35.88,146.16,253.4108,-1.9378,0.1225,1002.8938,55.813995,37.50028,207.8566,NaN,,0.0,6.0,,20 / 24,,2698,2021-05-11 18:52:34:289
0.031126,0.337593,9.972155,-0.030062,0.331249,9.801008,-0.011099,-0.009831,-2.49E-4,137.34,-35.88,146.16,253.4108,-1.9378,0.1225,1002.8938,55.813995,37.50028,207.8566,NaN,,0.0,6.0,,20 / 24,,2708,2021-05-11 18:52:34:299
0.102954,0.366324,9.91948,-0.033275,0.329232,9.801065,-0.001326,-0.017773,-0.00758,136.44,-35.88,146.28,253.4108,-1.9378,0.1225,1002.8938,55.813995,37.50028,207.8566,NaN,,0.0,6.0,,20 / 24,,2718,2021-05-11 18:52:34:309
0.102954,0.366324,9.91948,-0.033275,0.329232,9.801065,0.010281,-0.025103,-0.00758,136.44,-35.88,146.28,253.4108,-1.9378,0.1225,1002.8938,55.813995,37.50028,207.8566,NaN,,0.0,6.0,,20 / 24,,2728,2021-05-11 18:52:34:319
0.059857,0.34717,9.828498,-0.024623,0.331779,9.801004,0.008448,-0.02999,-0.011245,137.04,-36.18,146.16,253.4472,-1.9239,0.1945,1002.8938,55.813995,37.50028,207.8566,NaN,,0.0,6.0,,20 / 24,,2738,2021-05-11 18:52:34:329
0.002394,0.31365,9.797373,-0.024623,0.331779,9.801004,0.008448,-0.02999,-0.011245,137.04,-36.18,146.16,253.4472,-1.9239,0.1945,1002.8948,55.813995,37.50028,207.8566,NaN,,0.0,6.0,,20 / 24,,2748,2021-05-11 18:52:34:339
-0.055068,0.244216,9.835681,-0.014851,0.334636,9.800928,0.007837,-0.026325,0.002194,137.34,-36.24,146.04,253.4472,-1.9239,0.1945,1002.8948,55.813995,37.50028,207.8566,NaN,,0.0,6.0,,20 / 24,,2757,2021-05-11 18:52:34:348
-0.047885,0.222668,9.869201,-0.014851,0.334636,9.800928,0.003561,5.53E-4,0.00647,137.34,-36.24,146.04,253.4472,-1.9239,0.1945,1002.8948,55.813995,37.50028,207.8566,NaN,,0.0,6.0,,20 / 24,,2768,2021-05-11 18:52:34:359
0.0,0.237033,9.864412,-0.013801,0.330895,9.801056,0.012113,0.001164,0.01319,136.86,-35.76,146.4,253.3822,-1.9555,0.0868,1002.8948,55.813995,37.50028,207.8566,NaN,,0.0,6.0,,20 / 24,,2778,2021-05-11 18:52:34:369
0.0,0.237033,9.864412,-0.013801,0.330895,9.801056,0.018833,-0.002501,0.004638,136.86,-35.76,146.4,253.3822,-1.9555,0.0868,1002.8948,55.813995,37.50028,207.8566,NaN,,0.0,6.0,,20 / 24,,2788,2021-05-11 18:52:34:379
0.043097,0.277736,9.821315,-0.013801,0.330895,9.801056,0.022498,-0.007388,0.001583,136.86,-35.76,146.4,253.3822,-1.9555,0.0868,1002.8948,55.813995,37.50028,207.8566,NaN,,0.0,6.0,,20 / 24,,2798,2021-05-11 18:52:34:389
0.079011,0.351958,9.775824,-0.012596,0.325265,9.801247,0.020666,-0.005555,-0.013077,136.62,-35.88,146.7,253.3822,-1.9555,0.0868,1002.8948,55.813995,37.50028,207.8566,NaN,,0.0,6.0,,20 / 24,,2807,2021-05-11 18:52:34:398
0.076617,0.409421,9.677659,-0.006895,0.32304,9.801326,0.017,-0.002501,-0.011856,136.86,-36.12,146.4,253.4309,-1.9007,0.0736,1002.8948,55.813995,37.50028,207.8566,NaN,,0.0,6.0,,20 / 24,,2818,2021-05-11 18:52:34:409
0.076617,0.409421,9.677659,-0.006895,0.32304,9.801326,0.007837,-0.00189,-0.010634,136.86,-36.12,146.4,253.4309,-1.9007,0.0736,1002.8948,55.813995,37.50028,207.8566,NaN,,0.0,6.0,,20 / 24,,2828,2021-05-11 18:52:34:419
0.043097,0.385478,9.603436,2.62E-4,0.325536,9.801245,-0.009878,0.001775,-0.010634,136.56,-36.12,146.16,253.4309,-1.9007,0.0736,1002.8948,55.813995,37.50028,207.8566,NaN,,0.0,6.0,,20 / 24,,2838,2021-05-11 18:52:34:429
0.007183,0.366324,9.63935,2.62E-4,0.325536,9.801245,-0.02576,0.010938,-0.010634,136.56,-36.12,146.16,253.4309,-1.9007,0.0736,1002.9023,55.813995,37.50028,207.8566,NaN,,0.0,6.0,,20 / 24,,2848,2021-05-11 18:52:34:439
0.007183,0.311256,9.699207,2.62E-4,0.325536,9.801245,-0.02576,0.010938,-0.010634,136.56,-36.12,146.16,253.4309,-1.9007,0.0736,1002.9023,55.813995,37.50028,207.8566,NaN,,0.0,6.0,,20 / 24,,2858,2021-05-11 18:52:34:449
-0.011971,0.304073,9.77343,0.005086,0.325449,9.801248,-0.031258,0.016436,-0.010023,136.2,-36.3,146.46,253.29,-1.9023,-0.0015,1002.9023,55.813995,37.50028,207.8566,NaN,,0.0,6.0,,20 / 24,,2869,2021-05-11 18:52:34:460
-0.011971,0.304073,9.77343,0.006022,0.322638,9.80134,-0.029425,0.012771,-0.00758,136.32,-36.12,146.82,253.29,-1.9023,-0.0015,1002.9023,55.813995,37.50028,207.8566,NaN,,0.0,6.0,,20 / 24,,2878,2021-05-11 18:52:34:469
-0.021548,0.282524,9.835681,0.006022,0.322638,9.80134,-0.019652,0.007884,-0.00758,136.32,-36.12,146.82,253.29,-1.9023,-0.0015,1002.9023,55.813995,37.50028,207.8566,NaN,,0.0,6.0,,20 / 24,,2888,2021-05-11 18:52:34:479
0.021548,0.258582,9.845258,0.006294,0.319422,9.801445,-0.007434,-5.7E-5,-0.009412,136.2,-35.7,147.12,253.2827,-1.8854,-0.0352,1002.9023,55.813995,37.50028,207.8566,NaN,,0.0,6.0,,20 / 24,,2898,2021-05-11 18:52:34:489
0.071828,0.270553,9.840469,0.006294,0.319422,9.801445,-0.008045,-0.003723,-0.01491,136.2,-35.7,147.12,253.2827,-1.8854,-0.0352,1002.9023,55.813995,37.50028,207.8566,NaN,,0.0,6.0,,20 / 24,,2908,2021-05-11 18:52:34:499
0.117319,0.29689,9.873989,0.009838,0.314653,9.801596,-0.013543,-0.003723,-0.015521,136.5,-36.06,146.7,253.2827,-1.8854,-0.0352,1002.9023,55.813995,37.50028,207.8566,NaN,,0.0,6.0,,20 / 24,,2918,2021-05-11 18:52:34:509
0.117319,0.29689,9.873989,0.009838,0.314653,9.801596,-0.010489,-0.005555,-0.02163,136.5,-36.06,146.7,253.2827,-1.8854,-0.0352,1002.9023,55.813995,37.50028,207.8566,NaN,,0.0,6.0,,20 / 24,,2928,2021-05-11 18:52:34:519
0.114925,0.31365,9.847652,0.017435,0.30988,9.801738,-0.006212,-0.020827,-0.030182,136.8,-36.48,146.34,253.449,-1.8387,-0.0575,1002.9023,55.813995,37.50028,207.8566,NaN,,0.0,6.0,,20 / 24,,2938,2021-05-11 18:52:34:529
0.079011,0.325621,9.869201,0.017435,0.30988,9.801738,0.001118,-0.026325,-0.030792,136.8,-36.48,146.34,253.449,-1.8387,-0.0575,1002.9082,55.813995,37.50028,207.8566,NaN,,0.0,6.0,,20 / 24,,2948,2021-05-11 18:52:34:539
0.079011,0.325621,9.869201,0.029605,0.30862,9.801748,0.007837,-0.026935,-0.030182,137.28,-36.36,146.52,253.449,-1.8387,-0.0575,1002.9082,55.813995,37.50028,207.8566,NaN,,0.0,6.0,,20 / 24,,2958,2021-05-11 18:52:34:549
0.062251,0.339987,9.811738,0.029605,0.30862,9.801748,0.00967,-0.023881,-0.033236,137.28,-36.36,146.52,253.449,-1.8387,-0.0575,1002.9082,55.813995,37.50028,207.8566,NaN,,0.0,6.0,,20 / 24,,2968,2021-05-11 18:52:34:559
0.002394,0.335198,9.794978,0.039608,0.311263,9.80163,0.00234,-0.020827,-0.029571,137.28,-36.18,146.22,253.4462,-1.8034,-0.1731,1002.9082,55.813995,37.50028,207.8566,NaN,,0.0,6.0,,20 / 24,,2979,2021-05-11 18:52:34:570
-0.031126,0.337593,9.778218,0.039608,0.311263,9.80163,0.00234,-0.020827,-0.029571,137.28,-36.18,146.22,253.4462,-1.8034,-0.1731,1002.9082,55.813995,37.50028,207.8566,NaN,,0.0,6.0,,20 / 24,,2988,2021-05-11 18:52:34:579
-0.007183,0.339987,9.768641,0.04283,0.313906,9.801532,0.008448,-0.01594,-0.024684,136.68,-36.18,146.1,253.4462,-1.8034,-0.1731,1002.9082,55.813995,37.50028,207.8566,NaN,,0.0,6.0,,20 / 24,,2997,2021-05-11 18:52:34:588
-0.007183,0.339987,9.768641,0.04283,0.313906,9.801532,-0.014765,-0.007999,-0.023462,136.68,-36.18,146.1,253.4462,-1.8034,-0.1731,1002.9082,55.813995,37.50028,207.8566,NaN,,0.0,6.0,,20 / 24,,3008,2021-05-11 18:52:34:599
0.023943,0.349564,9.828498,0.04283,0.313906,9.801532,-0.014765,-0.007999,-0.023462,136.68,-36.18,146.1,253.4462,-1.8034,-0.1731,1002.9082,55.813995,37.50028,207.8566,NaN,,0.0,6.0,,20 / 24,,3018,2021-05-11 18:52:34:609
0.023943,0.349564,9.828498,0.04283,0.313906,9.801532,-0.014765,-0.007999,-0.023462,136.68,-36.18,146.1,253.4462,-1.8034,-0.1731,1002.9082,55.813995,37.50028,207.8566,NaN,,0.0,6.0,,20 / 24,,3028,2021-05-11 18:52:34:619
0.03352,0.339987,9.885961,0.041864,0.315514,9.801483,-0.017208,-0.00189,-0.027738,136.74,-36.42,146.28,253.3911,-1.8343,-0.2504,1002.9082,55.813995,37.50028,207.8566,NaN,,0.0,6.0,,20 / 24,,3038,2021-05-11 18:52:34:629
0.004789,0.292102,9.883567,0.037938,0.314315,9.801538,5.07E-4,-0.009831,-0.032625,137.34,-36.0,145.8,253.3911,-1.8343,-0.2504,1002.9001,55.813995,37.50028,207.8566,NaN,,0.0,6.0,,20 / 24,,3049,2021-05-11 18:52:34:640
0.004789,0.292102,9.883567,0.037938,0.314315,9.801538,0.006616,-0.00922,-0.032014,137.34,-36.0,145.8,253.3911,-1.8343,-0.2504,1002.9001,55.813995,37.50028,207.8566,NaN,,0.0,6.0,,20 / 24,,3058,2021-05-11 18:52:34:649
-0.021548,0.304073,9.842864,0.035172,0.314694,9.801537,0.010892,-0.004333,-0.02896,137.22,-35.7,146.4,253.3911,-1.8343,-0.2504,1002.9001,55.813995,37.50028,207.8566,NaN,,0.0,6.0,,20 / 24,,3069,2021-05-11 18:52:34:660
-0.019154,0.282524,9.775824,0.035172,0.314694,9.801537,0.005394,0.009716,-0.02896,137.22,-35.7,146.4,253.3911,-1.8343,-0.2504,1002.9001,55.813995,37.50028,207.8566,NaN,,0.0,6.0,,20 / 24,,3078,2021-05-11 18:52:34:669
0.002394,0.284919,9.72315,0.027342,0.31427,9.801576,-0.001326,0.009716,-0.025295,137.7,-36.36,146.94,253.5025,-1.8389,-0.2056,1002.9001,55.813995,37.50028,207.8566,NaN,,0.0,6.0,,20 / 24,,3089,2021-05-11 18:52:34:680
0.002394,0.284919,9.72315,0.027342,0.31427,9.801576,-0.001326,0.009716,-0.025295,137.7,-36.18,146.94,253.5025,-1.8389,-0.2056,1002.9001,55.813995,37.50028,207.8566,NaN,,0.0,6.0,,20 / 24,,3099,2021-05-11 18:52:34:690
0.0,0.304073,9.749487,0.023396,0.312919,9.801628,-0.007434,0.009106,-0.024073,137.7,-36.18,146.94,253.5025,-1.8389,-0.2056,1002.9001,55.813995,37.50028,207.8566,NaN,,0.0,6.0,,20 / 24,,3108,2021-05-11 18:52:34:699
0.004789,0.29689,9.840469,0.016888,0.309068,9.801764,-0.009878,0.007884,-0.021019,137.1,-36.0,146.64,253.5025,-1.8389,-0.2056,1002.9001,55.813995,37.50028,207.8566,NaN,,0.0,6.0,,20 / 24,,3118,2021-05-11 18:52:34:709
0.004789,0.29689,9.840469,0.016888,0.309068,9.801764,-0.008045,0.00483,-0.021019,137.1,-36.0,146.64,253.5025,-1.8389,-0.2056,1002.9001,55.813995,37.50028,207.8566,NaN,,0.0,6.0,,20 / 24,,3128,2021-05-11 18:52:34:719
-0.009577,0.323227,9.878778,0.012134,0.30652,9.801851,5.07E-4,0.00483,-0.021019,136.44,-36.12,146.82,253.3401,-1.806,-0.0987,1002.9001,55.813995,37.50028,207.8566,NaN,,0.0,6.0,,20 / 24,,3138,2021-05-11 18:52:34:729
-0.079011,0.299284,9.816526,0.012134,0.30652,9.801851,0.010892,-0.003723,-0.019186,136.44,-36.12,146.82,253.3401,-1.806,-0.0987,1002.8984,55.813995,37.50028,207.8566,NaN,,0.0,6.0,,20 / 24,,3148,2021-05-11 18:52:34:739
-0.043097,0.335198,9.802161,0.00738,0.307907,9.801812,0.011503,-0.014718,-0.013688,136.74,-36.6,147.12,253.3401,-1.806,-0.0987,1002.8984,55.813995,37.50028,207.8566,NaN,,0.0,6.0,,20 / 24,,3158,2021-05-11 18:52:34:749
0.0838,0.349564,9.713573,0.00738,0.307907,9.801812,0.009059,-0.006777,-0.009412,136.74,-36.6,147.12,253.3401,-1.806,-0.0987,1002.8984,55.813995,37.50028,207.8566,NaN,,0.0,6.0,,20 / 24,,3168,2021-05-11 18:52:34:759
0.0838,0.349564,9.713573,0.004932,0.310748,9.801724,-0.008656,-0.003723,-0.011245,137.04,-36.42,146.82,253.4798,-1.7993,-0.0431,1002.8984,55.813995,37.50028,207.8566,NaN,,0.0,6.0,,20 / 24,,3178,2021-05-11 18:52:34:769
0.074223,0.335198,9.809344,0.004932,0.310748,9.801724,-0.017208,5.53E-4,-0.020408,137.04,-36.42,146.82,253.4798,-1.7993,-0.0431,1002.8984,55.813995,37.50028,207.8566,NaN,,0.0,6.0,,20 / 24,,3188,2021-05-11 18:52:34:779
0.064645,0.294496,9.900327,0.006712,0.310426,9.801733,-0.012321,-0.011053,-0.024684,137.46,-36.06,146.28,253.4798,-1.7993,-0.0431,1002.8984,55.813995,37.50028,207.8566,NaN,,0.0,6.0,,20 / 24,,3198,2021-05-11 18:52:34:789
0.007183,0.277736,9.955395,0.006712,0.310426,9.801733,-0.005602,-0.022049,-0.02896,137.46,-36.06,146.28,253.4798,-1.7993,-0.0431,1002.8984,55.813995,37.50028,207.8566,NaN,,0.0,6.0,,20 / 24,,3208,2021-05-11 18:52:34:799
0.007183,0.277736,9.955395,0.006712,0.310426,9.801733,0.003561,-0.019605,-0.024684,137.46,-36.06,146.28,253.4798,-1.7993,-0.0431,1002.8984,55.813995,37.50028,207.8566,NaN,,0.0,6.0,,20 / 24,,3218,2021-05-11 18:52:34:809
-0.004789,0.258582,9.98652,0.012535,0.309558,9.801755,0.014557,-0.023881,-0.024684,137.16,-36.36,146.28,253.4789,-1.814,-0.0392,1002.8984,55.813995,37.50028,207.8566,NaN,,0.0,6.0,,20 / 24,,3228,2021-05-11 18:52:34:819
-0.014366,0.287313,9.960183,0.01611,0.309362,9.801756,0.030439,-0.026935,-0.021019,136.98,-36.0,146.34,253.4789,-1.814,-0.0392,1002.8984,55.813995,37.50028,207.8566,NaN,,0.0,6.0,,20 / 24,,3238,2021-05-11 18:52:34:829
-0.028731,0.287313,9.794978,0.01611,0.309362,9.801756,0.034715,-0.036098,-0.018575,136.98,-36.0,146.34,253.4789,-1.814,-0.0392,1002.895,55.813995,37.50028,207.8566,NaN,,0.0,6.0,,20 / 24,,3248,2021-05-11 18:52:34:839
-0.019154,0.299284,9.759064,0.018353,0.311715,9.801678,0.029829,-0.025714,-0.015521,137.04,-35.88,145.86,253.4674,-1.8078,-0.0942,1002.895,55.813995,37.50028,207.8566,NaN,,0.0,6.0,,20 / 24,,3259,2021-05-11 18:52:34:850
0.007183,0.272947,9.742304,0.018353,0.311715,9.801678,0.019444,-0.015329,-0.010023,137.04,-35.88,145.86,253.4674,-1.8078,-0.0942,1002.895,55.813995,37.50028,207.8566,NaN,,0.0,6.0,,20 / 24,,3268,2021-05-11 18:52:34:859
0.007183,0.272947,9.742304,0.018353,0.311715,9.801678,0.001729,-0.001279,-0.008801,137.04,-35.88,145.86,253.4674,-1.8078,-0.0942,1002.895,55.813995,37.50028,207.8566,NaN,,0.0,6.0,,20 / 24,,3278,2021-05-11 18:52:34:869
0.074223,0.256187,9.744699,0.01702,0.311198,9.801697,-0.002547,-0.003112,-0.014299,137.1,-35.88,145.86,253.4674,-1.8078,-0.0942,1002.895,55.813995,37.50028,207.8566,NaN,,0.0,6.0,,20 / 24,,3288,2021-05-11 18:52:34:879
0.090982,0.332804,9.763853,0.017293,0.306392,9.801847,0.012113,-0.006777,-0.02896,136.92,-35.7,146.34,253.4821,-1.7904,-0.1011,1002.895,55.813995,37.50028,207.8566,NaN,,0.0,6.0,,20 / 24,,3298,2021-05-11 18:52:34:889
0.090982,0.332804,9.763853,0.017293,0.306392,9.801847,0.024331,-0.011053,-0.031403,136.92,-35.7,146.34,253.4821,-1.7904,-0.1011,1002.895,55.813995,37.50028,207.8566,NaN,,0.0,6.0,,20 / 24,,3308,2021-05-11 18:52:34:899
-0.043097,0.383084,9.603436,0.021673,0.307756,9.801796,0.026163,-0.007999,-0.027738,137.16,-36.6,146.52,253.4821,-1.7904,-0.1011,1002.895,55.813995,37.50028,207.8566,NaN,,0.0,6.0,,20 / 24,,3318,2021-05-11 18:52:34:909
-0.148445,0.423787,9.538791,0.021673,0.307756,9.801796,0.012113,0.002386,-0.013688,137.16,-36.6,146.52,253.4821,-1.7904,-0.1011,1002.895,55.813995,37.50028,207.8566,NaN,,0.0,6.0,,20 / 24,,3328,2021-05-11 18:52:34:919
-0.148445,0.423787,9.538791,0.021673,0.307756,9.801796,-0.009878,0.010327,-8.6E-4,137.16,-36.6,146.52,253.4821,-1.7904,-0.1011,1002.895,55.813995,37.50028,207.8566,NaN,,0.0,6.0,,20 / 24,,3338,2021-05-11 18:52:34:929
-0.10056,0.299284,9.529214,0.016385,0.31361,9.80162,-0.034312,0.024377,-0.003914,137.22,-36.84,146.4,253.0818,-1.7984,-0.1267,1002.8926,55.813995,37.50028,207.8566,NaN,,0.0,6.0,,20 / 24,,3348,2021-05-11 18:52:34:939
-0.040703,0.292102,9.672871,0.003744,0.310739,9.801725,-0.052638,0.029264,-0.006969,136.8,-36.3,146.1,253.0818,-1.7984,-0.1267,1002.8926,55.813995,37.50028,207.8566,NaN,,0.0,6.0,,20 / 24,,3358,2021-05-11 18:52:34:949
-0.01676,0.29689,9.830893,0.003744,0.310739,9.801725,-0.062412,0.024988,-0.013688,136.8,-36.3,146.1,253.0818,-1.7984,-0.1267,1002.8926,55.813995,37.50028,207.8566,NaN,,0.0,6.0,,20 / 24,,3368,2021-05-11 18:52:34:959
-0.069434,0.31365,9.941029,-0.00691,0.30234,9.801987,-0.038588,0.01216,-0.014299,136.62,-36.36,146.76,253.4704,-1.8158,-0.0219,1002.8926,55.813995,37.50028,207.8566,NaN,,0.0,6.0,,20 / 24,,3378,2021-05-11 18:52:34:969
-0.069434,0.31365,9.941029,-0.00691,0.30234,9.801987,-0.02576,-5.7E-5,-0.009412,136.62,-36.36,146.76,253.4704,-1.8158,-0.0219,1002.8926,55.813995,37.50028,207.8566,NaN,,0.0,6.0,,20 / 24,,3388,2021-05-11 18:52:34:979
-0.009577,0.306467,9.885961,-0.00691,0.30234,9.801987,-0.02576,-5.7E-5,-0.009412,136.62,-36.36,146.76,253.4704,-1.8158,-0.0219,1002.8926,55.813995,37.50028,207.8566,NaN,,0.0,6.0,,20 / 24,,3398,2021-05-11 18:52:34:989
0.021548,0.282524,9.900327,-0.013026,0.298872,9.802086,-0.012932,-0.00922,-0.003914,137.1,-36.42,146.82,253.4704,-1.8158,-0.0219,1002.8926,55.813995,37.50028,207.8566,NaN,,0.0,6.0,,20 / 24,,3408,2021-05-11 18:52:34:999
0.038308,0.253793,9.842864,-0.014184,0.298987,9.802081,0.001729,-0.004944,0.005859,137.46,-36.6,146.22,253.1979,-1.7464,0.0761,1002.8926,55.813995,37.50028,207.8566,NaN,,0.0,6.0,,20 / 24,,3418,2021-05-11 18:52:35:009
0.05028,0.215485,9.838076,-0.014184,0.298987,9.802081,0.008448,-0.017773,0.004027,137.46,-36.6,146.22,253.1979,-1.7464,0.0761,1002.8926,55.813995,37.50028,207.8566,NaN,,0.0,6.0,,20 / 24,,3428,2021-05-11 18:52:35:019
0.05028,0.215485,9.838076,-0.01013,0.298459,9.802102,0.007837,-0.025714,0.004027,137.22,-36.66,146.7,253.1979,-1.7464,0.0761,1002.8926,55.813995,37.50028,207.8566,NaN,,0.0,6.0,,20 / 24,,3438,2021-05-11 18:52:35:029
0.05028,0.215485,9.838076,-0.01013,0.298459,9.802102,0.007837,-0.025714,0.004027,137.22,-36.66,146.7,253.1979,-1.7464,0.0761,1002.8926,55.813995,37.50028,207.8566,NaN,,0.0,6.0,,20 / 24,,3448,2021-05-11 18:52:35:039
0.05028,0.215485,9.838076,-0.01013,0.298459,9.802102,0.007837,-0.025714,0.004027,137.22,-36.66,146.7,253.1979,-1.7464,0.0761,1002.8926,55.813995,37.50028,207.8566,NaN,,0.0,6.0,,20 / 24,,3458,2021-05-11 18:52:35:049
0.105348,0.24661,9.830893,-0.00583,0.296808,9.802155,0.003561,-0.025103,-0.003304,136.98,-36.3,146.94,253.568,-1.7344,0.0341,1002.8845,55.813995,37.50028,207.8566,NaN,,0.0,6.0,,20 / 24,,3468,2021-05-11 18:52:35:059
-0.074223,0.373507,9.780613,0.00276,0.294187,9.802236,5.07E-4,-0.001279,9.72E-4,136.92,-35.7,146.7,253.568,-1.7344,0.0341,1002.8845,55.813995,37.50028,207.8566,NaN,,0.0,6.0,,20 / 24,,3478,2021-05-11 18:52:35:069
-0.074223,0.373507,9.780613,0.00276,0.294187,9.802236,5.07E-4,0.002386,0.002194,136.92,-35.7,146.7,253.568,-1.7344,0.0341,1002.8845,55.813995,37.50028,207.8566,NaN,,0.0,6.0,,20 / 24,,3488,2021-05-11 18:52:35:079
-0.019154,0.328016,9.73991,0.001271,0.296381,9.802171,-0.004991,5.53E-4,0.007692,136.68,-35.7,146.22,253.568,-1.7344,0.0341,1002.8845,55.813995,37.50028,207.8566,NaN,,0.0,6.0,,20 / 24,,3498,2021-05-11 18:52:35:089
0.004789,0.335198,9.792584,0.001271,0.296381,9.802171,-0.008045,0.006662,0.008303,136.68,-35.7,146.22,253.568,-1.7344,0.0341,1002.8845,55.813995,37.50028,207.8566,NaN,,0.0,6.0,,20 / 24,,3507,2021-05-11 18:52:35:098
0.009577,0.294496,9.792584,-0.001671,0.298149,9.802117,-0.010489,0.00483,0.008914,136.86,-35.82,146.16,253.5689,-1.7319,-0.0074,1002.8845,55.813995,37.50028,207.8566,NaN,,0.0,6.0,,20 / 24,,3518,2021-05-11 18:52:35:109
0.095771,0.275342,9.826104,-0.001671,0.298149,9.802117,-0.012932,0.007884,0.010135,136.86,-35.82,146.16,253.5689,-1.7319,-0.0074,1002.8845,55.813995,37.50028,207.8566,NaN,,0.0,6.0,,20 / 24,,3529,2021-05-11 18:52:35:120
0.098165,0.316044,9.850046,-0.001695,0.297334,9.802142,-0.015986,0.00544,3.62E-4,137.34,-36.12,146.34,253.5689,-1.7319,-0.0074,1002.8845,55.813995,37.50028,207.8566,NaN,,0.0,6.0,,20 / 24,,3538,2021-05-11 18:52:35:129
0.098165,0.316044,9.850046,5.0E-4,0.296728,9.80216,-0.010489,0.006051,-0.003914,137.46,-36.0,146.58,253.5689,-1.7319,-0.0074,1002.8994,55.813995,37.50028,207.8566,NaN,,0.0,6.0,,20 / 24,,3548,2021-05-11 18:52:35:139
0.0838,0.292102,9.840469,5.0E-4,0.296728,9.80216,-0.010489,0.006051,-0.003914,137.46,-36.0,146.58,253.5689,-1.7319,-0.0074,1002.8994,55.813995,37.50028,207.8566,NaN,,0.0,6.0,,20 / 24,,3558,2021-05-11 18:52:35:149
0.007183,0.284919,9.802161,0.007512,0.296551,9.802163,-1.04E-4,-0.006166,-0.009412,137.4,-36.0,147.0,253.5567,-1.7339,-0.0029,1002.8994,55.813995,37.50028,207.8566,NaN,,0.0,6.0,,20 / 24,,3568,2021-05-11 18:52:35:159
-0.057463,0.311256,9.708784,0.007512,0.296551,9.802163,0.006616,-0.006777,-0.006358,137.22,-36.18,146.82,253.5567,-1.7339,-0.0029,1002.8994,55.813995,37.50028,207.8566,NaN,,0.0,6.0,,20 / 24,,3577,2021-05-11 18:52:35:168
-0.057463,0.311256,9.708784,0.012063,0.29851,9.802098,0.007227,-0.010442,0.004027,137.22,-36.18,146.82,253.5567,-1.7339,-0.0029,1002.8994,55.813995,37.50028,207.8566,NaN,,0.0,6.0,,20 / 24,,3588,2021-05-11 18:52:35:179
-0.064645,0.31365,9.672871,0.012589,0.299556,9.802066,0.001118,-0.012886,0.010746,136.74,-36.06,146.58,253.5567,-1.7339,-0.0029,1002.8994,55.813995,37.500282,207.9119,NaN,,0.0,6.0,,19 / 24,,3598,2021-05-11 18:52:35:189
-0.047885,0.306467,9.689631,0.012589,0.299556,9.802066,-0.007434,-0.002501,0.015633,136.74,-36.06,146.58,253.5567,-1.7339,-0.0029,1002.8994,55.813995,37.500282,207.9119,NaN,,0.0,6.0,,19 / 24,,3607,2021-05-11 18:52:35:198
0.002394,0.258582,9.742304,0.00882,0.298772,9.802094,-0.016597,0.015214,0.018077,136.44,-35.28,147.0,253.7912,-1.7504,-0.0736,1002.8994,55.813995,37.500282,207.9119,NaN,,0.0,6.0,,19 / 24,,3618,2021-05-11 18:52:35:209
0.043097,0.268159,9.818921,0.00882,0.298772,9.802094,-0.021484,0.013382,0.016855,136.44,-35.28,147.0,253.7912,-1.7504,-0.0736,1002.8994,55.813995,37.500282,207.9119,NaN,,0.0,6.0,,19 / 24,,3627,2021-05-11 18:52:35:218
0.031126,0.244216,9.890749,0.00479,0.294619,9.802222,-0.01843,0.010327,0.01319,136.32,-35.04,146.46,253.7912,-1.7504,-0.0736,1002.8994,55.813995,37.500282,207.9119,NaN,,0.0,6.0,,19 / 24,,3638,2021-05-11 18:52:35:229
0.031126,0.244216,9.890749,0.00479,0.294619,9.802222,-0.008656,0.009716,0.011968,136.32,-35.04,146.46,253.7912,-1.7504,-0.0736,1002.8994,55.813995,37.500282,207.9119,NaN,,0.0,6.0,,19 / 24,,3648,2021-05-11 18:52:35:239
0.047885,0.256187,9.893144,0.003796,0.292488,9.802287,-0.006212,0.009106,0.003416,136.14,-35.22,146.46,253.7912,-1.7504,-0.0736,1002.9011,55.813995,37.500282,207.9119,NaN,,0.0,6.0,,19 / 24,,3658,2021-05-11 18:52:35:249
0.062251,0.31365,9.79019,0.004602,0.289987,9.802361,0.007227,0.006662,0.003416,136.92,-35.76,146.28,253.5864,-1.7091,-0.0222,1002.9011,55.813995,37.500282,207.9119,NaN,,0.0,6.0,,19 / 24,,3668,2021-05-11 18:52:35:259
0.040703,0.308861,9.72315,0.004602,0.289987,9.802361,0.00234,-5.7E-5,-0.001471,136.92,-35.76,146.28,253.5864,-1.7091,-0.0222,1002.9011,55.813995,37.500282,207.9119,NaN,,0.0,6.0,,19 / 24,,3678,2021-05-11 18:52:35:269
0.040703,0.308861,9.72315,0.008577,0.289978,9.802358,-0.008045,-0.00189,0.005249,137.1,-36.24,146.1,253.5864,-1.7091,-0.0222,1002.9011,55.813995,37.500282,207.9119,NaN,,0.0,6.0,,19 / 24,,3688,2021-05-11 18:52:35:279
0.06704,0.292102,9.814133,0.010727,0.289121,9.802382,-0.014765,0.008495,0.00647,136.98,-36.24,146.82,253.5864,-1.7091,-0.0222,1002.9011,55.813995,37.500282,207.9119,NaN,,0.0,6.0,,19 / 24,,3698,2021-05-11 18:52:35:289
0.110137,0.28013,9.866806,0.010727,0.289121,9.802382,-0.015375,0.020101,0.004027,136.98,-36.24,146.82,253.5864,-1.7091,-0.0222,1002.9011,55.813995,37.500282,207.9119,NaN,,0.0,6.0,,19 / 24,,3708,2021-05-11 18:52:35:299
0.086194,0.225062,9.897932,0.014365,0.286178,9.802464,-0.009267,0.024377,9.72E-4,136.5,-36.42,147.12,253.5813,-1.6894,-0.0627,1002.9011,55.813995,37.500282,207.9119,NaN,,0.0,6.0,,19 / 24,,3718,2021-05-11 18:52:35:309
0.069434,0.22985,9.924269,0.014365,0.286178,9.802464,-0.005602,0.012771,9.72E-4,136.5,-36.42,147.12,253.5813,-1.6894,-0.0627,1002.9011,55.813995,37.500282,207.9119,NaN,,0.0,6.0,,19 / 24,,3728,2021-05-11 18:52:35:319
0.069434,0.22985,9.924269,0.019967,0.283433,9.802533,0.004172,0.010938,-0.003304,136.26,-36.42,147.0,253.5813,-1.6894,-0.0627,1002.9011,55.813995,37.500282,207.9119,NaN,,0.0,6.0,,19 / 24,,3737,2021-05-11 18:52:35:328
0.064645,0.220273,9.890749,0.022371,0.281808,9.802575,0.013946,0.017047,-0.004525,136.26,-36.42,147.0,253.5813,-1.6894,-0.0627,1002.9011,55.813995,37.500282,207.9119,NaN,,0.0,6.0,,19 / 24,,3748,2021-05-11 18:52:35:339
0.057463,0.241822,9.799767,0.022371,0.281808,9.802575,0.012724,0.012771,-0.006969,135.9,-36.66,146.7,253.1,-1.6467,-0.1308,1002.9011,55.813995,37.500282,207.9119,NaN,,0.0,6.0,,19 / 24,,3758,2021-05-11 18:52:35:349
0.031126,0.287313,9.73991,0.026295,0.278727,9.802652,0.018222,0.007884,-0.010634,135.9,-36.66,146.7,253.1,-1.6467,-0.1308,1002.9011,55.813995,37.500282,207.9119,NaN,,0.0,6.0,,19 / 24,,3768,2021-05-11 18:52:35:359
-0.021548,0.277736,9.692024,0.026295,0.278727,9.802652,0.017611,5.53E-4,-0.010634,135.9,-36.48,147.0,253.1,-1.6467,-0.1308,1002.9011,55.813995,37.500282,207.9119,NaN,,0.0,6.0,,19 / 24,,3778,2021-05-11 18:52:35:369
-0.021548,0.277736,9.692024,0.029159,0.278739,9.802645,0.015168,-0.003723,-0.011856,135.9,-36.48,147.0,253.1,-1.6467,-0.1308,1002.9011,55.813995,37.500282,207.9119,NaN,,0.0,6.0,,19 / 24,,3788,2021-05-11 18:52:35:379
-0.014366,0.318439,9.634562,0.029159,0.278739,9.802645,0.011503,-0.007999,-0.010634,136.8,-36.06,146.82,253.6066,-1.6288,-0.1704,1002.9011,55.813995,37.500282,207.9119,NaN,,0.0,6.0,,19 / 24,,3798,2021-05-11 18:52:35:389
-0.05028,0.299284,9.586677,0.029157,0.280004,9.802608,0.006005,-0.00861,-0.008801,136.8,-36.06,146.82,253.6066,-1.6288,-0.1704,1002.9011,55.813995,37.500282,207.9119,NaN,,0.0,6.0,,19 / 24,,3808,2021-05-11 18:52:35:399
-0.062251,0.29689,9.61062,0.029157,0.280004,9.802608,-0.005602,5.53E-4,-0.005136,136.98,-35.82,146.88,253.6066,-1.6288,-0.1704,1002.9011,55.813995,37.500282,207.9119,NaN,,0.0,6.0,,19 / 24,,3818,2021-05-11 18:52:35:409
-0.009577,0.26337,9.627379,0.023977,0.279525,9.802636,-0.015986,0.007884,0.001583,136.98,-35.82,146.88,253.6066,-1.6288,-0.1704,1002.9011,55.813995,37.500282,207.9119,NaN,,0.0,6.0,,19 / 24,,3828,2021-05-11 18:52:35:419
0.03352,0.251399,9.718362,0.023977,0.279525,9.802636,-0.024538,0.010327,0.004638,136.74,-36.84,147.42,253.2267,-1.6334,-0.1401,1002.9011,55.813995,37.500282,207.9119,NaN,,0.0,6.0,,19 / 24,,3838,2021-05-11 18:52:35:429
0.03352,0.251399,9.718362,0.017357,0.274089,9.802804,-0.040421,0.015825,0.003416,136.74,-36.84,147.42,253.2267,-1.6334,-0.1401,1002.8979,55.813995,37.500282,207.9119,NaN,,0.0,6.0,,19 / 24,,3848,2021-05-11 18:52:35:439
0.079011,0.24661,9.869201,0.017357,0.274089,9.802804,-0.041643,0.023155,-0.003914,136.74,-37.08,147.24,253.2267,-1.6334,-0.1401,1002.8979,55.813995,37.500282,207.9119,NaN,,0.0,6.0,,19 / 24,,3857,2021-05-11 18:52:35:448
0.040703,0.227456,9.931452,0.013765,0.265247,9.803053,-0.030036,0.020101,-0.004525,136.74,-37.08,147.24,253.2267,-1.6334,-0.1401,1002.8979,55.813995,37.500282,207.9119,NaN,,0.0,6.0,,19 / 24,,3868,2021-05-11 18:52:35:459
0.031126,0.220273,9.967366,0.01329,0.26147,9.803155,-0.020262,5.53E-4,-0.008801,136.56,-36.36,147.24,253.7128,-1.5499,-0.0805,1002.8979,55.813995,37.500282,207.9119,NaN,,0.0,6.0,,19 / 24,,3878,2021-05-11 18:52:35:469
0.031126,0.220273,9.967366,0.01329,0.26147,9.803155,-0.004991,0.001164,-0.005747,136.56,-36.36,147.24,253.7128,-1.5499,-0.0805,1002.8979,55.813995,37.500282,207.9119,NaN,,0.0,6.0,,19 / 24,,3888,2021-05-11 18:52:35:479
0.040703,0.217879,9.957788,0.015939,0.255957,9.803296,0.00234,-0.002501,-0.006969,136.5,-36.48,146.94,253.7128,-1.5499,-0.0805,1002.8979,55.813995,37.500282,207.9119,NaN,,0.0,6.0,,19 / 24,,3898,2021-05-11 18:52:35:489
0.062251,0.217879,9.842864,0.015939,0.255957,9.803296,-1.04E-4,-0.009831,-0.00758,136.5,-36.48,146.94,253.7128,-1.5499,-0.0805,1002.8979,55.813995,37.500282,207.9119,NaN,,0.0,6.0,,19 / 24,,3907,2021-05-11 18:52:35:498
0.021548,0.237033,9.828498,0.020212,0.252326,9.803383,0.001729,-0.009831,-0.006358,136.86,-36.3,146.58,253.7623,-1.4956,-0.0932,1002.8979,55.813995,37.500282,207.9119,NaN,,0.0,6.0,,19 / 24,,3918,2021-05-11 18:52:35:509
-0.023943,0.265765,9.845258,0.020212,0.252326,9.803383,0.003561,-0.003112,-0.006969,136.86,-36.3,146.58,253.7623,-1.4956,-0.0932,1002.8979,55.813995,37.500282,207.9119,NaN,,0.0,6.0,,19 / 24,,3928,2021-05-11 18:52:35:519
0.038308,0.26337,9.771035,0.022873,0.250208,9.803431,0.005394,-0.006166,-0.00758,136.92,-36.36,147.24,253.7623,-1.4956,-0.0932,1002.8979,55.813995,37.500282,207.9119,NaN,,0.0,6.0,,19 / 24,,3937,2021-05-11 18:52:35:528
0.038308,0.26337,9.771035,0.022873,0.250208,9.803431,0.005394,-0.006166,-0.00758,136.92,-36.36,147.24,253.7623,-1.4956,-0.0932,1002.8909,55.813995,37.500282,207.9119,NaN,,0.0,6.0,,19 / 24,,3948,2021-05-11 18:52:35:539
0.102954,0.272947,9.744699,0.025402,0.250291,9.803423,0.007227,-0.012886,-0.010023,137.34,-36.18,147.06,253.7828,-1.462,-0.1337,1002.8909,55.813995,37.500282,207.9119,NaN,,0.0,6.0,,19 / 24,,3958,2021-05-11 18:52:35:549
0.069434,0.316044,9.747093,0.025402,0.250291,9.803423,0.006005,-0.011053,-0.018575,137.34,-36.18,147.06,253.7828,-1.462,-0.1337,1002.8909,55.813995,37.500282,207.9119,NaN,,0.0,6.0,,19 / 24,,3967,2021-05-11 18:52:35:558
0.007183,0.335198,9.665688,0.031426,0.25365,9.803319,0.008448,-0.009831,-0.020408,137.16,-36.24,146.82,253.7828,-1.462,-0.1337,1002.8909,55.813995,37.500282,207.9119,NaN,,0.0,6.0,,19 / 24,,3978,2021-05-11 18:52:35:569
0.007183,0.335198,9.665688,0.031426,0.25365,9.803319,-0.003158,-6.68E-4,-0.014299,137.16,-36.24,146.82,253.7828,-1.462,-0.1337,1002.8909,55.813995,37.500282,207.9119,NaN,,0.0,6.0,,19 / 24,,3988,2021-05-11 18:52:35:579
-0.062251,0.356747,9.641745,0.032703,0.259603,9.80316,-0.019041,0.001775,-0.006358,136.86,-36.3,146.94,253.7472,-1.4821,-0.1837,1002.8909,55.813995,37.500282,207.9119,NaN,,0.0,6.0,,19 / 24,,3998,2021-05-11 18:52:35:589
-0.114925,0.28013,9.692024,0.032703,0.259603,9.80316,-0.029425,0.010327,-0.003914,136.86,-36.3,146.94,253.7472,-1.4821,-0.1837,1002.8909,55.813995,37.500282,207.9119,NaN,,0.0,6.0,,19 / 24,,4008,2021-05-11 18:52:35:599
-0.114925,0.210696,9.828498,0.024383,0.261662,9.803128,-0.037977,0.010327,0.001583,136.86,-35.88,147.24,253.7472,-1.4821,-0.1837,1002.8909,55.813995,37.500282,207.9119,NaN,,0.0,6.0,,19 / 24,,4018,2021-05-11 18:52:35:609
-0.055068,0.237033,9.962578,0.024383,0.261662,9.803128,-0.033701,0.008495,-0.003304,136.86,-35.88,147.24,253.7472,-1.4821,-0.1837,1002.8909,55.813995,37.500282,207.9119,NaN,,0.0,6.0,,19 / 24,,4028,2021-05-11 18:52:35:619
-0.014366,0.268159,9.953,0.012505,0.258198,9.803243,-0.022706,-0.002501,-0.005136,136.86,-35.58,147.0,253.7139,-1.529,-0.1425,1002.8909,55.813995,37.500282,207.9119,NaN,,0.0,6.0,,19 / 24,,4039,2021-05-11 18:52:35:630
-0.014366,0.268159,9.953,0.012505,0.258198,9.803243,-0.010489,-0.022049,-0.00819,136.86,-35.58,147.0,253.7139,-1.529,-0.1425,1002.8909,55.813995,37.500282,207.9119,NaN,,0.0,6.0,,19 / 24,,4047,2021-05-11 18:52:35:638
0.040703,0.270553,9.926663,0.008308,0.258461,9.80324,-7.15E-4,-0.025714,-0.011245,136.92,-36.12,146.64,253.7139,-1.529,-0.1425,1002.8909,55.813995,37.500282,207.9119,NaN,,0.0,6.0,,19 / 24,,4058,2021-05-11 18:52:35:649
0.014366,0.22985,9.883567,0.008308,0.258461,9.80324,0.006616,-0.017773,-0.006969,136.92,-36.12,146.64,253.7139,-1.529,-0.1425,1002.8909,55.813995,37.500282,207.9119,NaN,,0.0,6.0,,19 / 24,,4067,2021-05-11 18:52:35:658
0.026337,0.22985,9.857229,0.007249,0.26018,9.803195,0.004172,-0.017773,3.62E-4,136.44,-36.78,146.64,253.2614,-1.5102,-0.0486,1002.8909,55.813995,37.500282,207.9119,NaN,,0.0,6.0,,19 / 24,,4078,2021-05-11 18:52:35:669
0.019154,0.234639,9.895537,0.007249,0.26018,9.803195,0.001729,-0.007388,-0.005747,136.44,-36.78,146.64,253.2614,-1.5102,-0.0486,1002.8909,55.813995,37.500282,207.9119,NaN,,0.0,6.0,,19 / 24,,4088,2021-05-11 18:52:35:679
0.019154,0.234639,9.895537,0.007289,0.259794,9.803205,0.001729,-0.007388,-0.005747,136.56,-36.0,146.16,253.2614,-1.5102,-0.0486,1002.8909,55.813995,37.500282,207.9119,NaN,,0.0,6.0,,19 / 24,,4098,2021-05-11 18:52:35:689
-0.011971,0.21309,9.929058,0.007289,0.259794,9.803205,0.005394,-0.005555,-0.00758,136.56,-36.0,146.16,253.2614,-1.5102,-0.0486,1002.8909,55.813995,37.500282,207.9119,NaN,,0.0,6.0,,19 / 24,,4108,2021-05-11 18:52:35:699
-0.064645,0.26337,9.972155,0.006194,0.25775,9.803261,0.015168,-0.014107,-0.011856,137.22,-36.12,146.46,253.7664,-1.518,-0.0426,1002.8909,55.813995,37.500282,207.9119,NaN,,0.0,6.0,,19 / 24,,4119,2021-05-11 18:52:35:710
-0.079011,0.275342,9.888355,0.006194,0.25775,9.803261,0.021887,-0.005555,-0.008801,137.22,-36.12,146.46,253.7664,-1.518,-0.0426,1002.8909,55.813995,37.500282,207.9119,NaN,,0.0,6.0,,19 / 24,,4127,2021-05-11 18:52:35:718
-0.071828,0.31365,9.80695,0.001153,0.258978,9.803229,0.015779,0.004219,-0.00758,137.46,-36.66,146.82,253.7664,-1.518,-0.0426,1002.8909,55.813995,37.500282,207.9119,NaN,,0.0,6.0,,19 / 24,,4138,2021-05-11 18:52:35:729
-0.071828,0.31365,9.80695,0.001153,0.258978,9.803229,0.00967,0.008495,-0.006358,137.46,-36.66,146.82,253.7664,-1.518,-0.0426,1002.8972,55.813995,37.500282,207.9119,NaN,,0.0,6.0,,19 / 24,,4148,2021-05-11 18:52:35:739
-0.076617,0.337593,9.799767,-0.007741,0.261812,9.803152,0.006005,0.009716,-0.006358,136.86,-36.6,146.58,253.3873,-1.5133,-0.0067,1002.8972,55.813995,37.500282,207.9119,NaN,,0.0,6.0,,19 / 24,,4158,2021-05-11 18:52:35:749
-0.098165,0.328016,9.835681,-0.007741,0.261812,9.803152,0.007837,0.009716,-0.003304,136.86,-36.6,146.58,253.3873,-1.5133,-0.0067,1002.8972,55.813995,37.500282,207.9119,NaN,,0.0,6.0,,19 / 24,,4168,2021-05-11 18:52:35:759
-0.124502,0.277736,9.823709,-0.018403,0.266531,9.80301,0.013335,0.016436,0.005249,136.5,-36.72,146.52,253.3873,-1.5133,-0.0067,1002.8972,55.813995,37.500282,207.9119,NaN,,0.0,6.0,,19 / 24,,4180,2021-05-11 18:52:35:771
-0.124502,0.277736,9.823709,-0.018403,0.266531,9.80301,0.021276,0.01949,0.010135,136.5,-36.72,146.52,253.3873,-1.5133,-0.0067,1002.8972,55.813995,37.500282,207.9119,NaN,,0.0,6.0,,19 / 24,,4189,2021-05-11 18:52:35:780
-0.064645,0.306467,9.75667,-0.03159,0.272054,9.802825,0.021887,0.020101,0.015633,136.56,-36.36,147.42,253.7644,-1.5574,0.1076,1002.8972,55.813995,37.500282,207.9119,NaN,,0.0,6.0,,19 / 24,,4197,2021-05-11 18:52:35:788
-0.019154,0.31365,9.703996,-0.03159,0.272054,9.802825,0.012113,0.018879,0.007081,136.56,-36.36,147.42,253.7644,-1.5574,0.1076,1002.8972,55.813995,37.500282,207.9119,NaN,,0.0,6.0,,19 / 24,,4208,2021-05-11 18:52:35:799
-0.079011,0.249005,9.735122,-0.04019,0.276381,9.802671,0.001729,0.017658,0.005859,136.68,-36.36,147.96,253.7644,-1.5574,0.1076,1002.8972,55.813995,37.500282,207.9119,NaN,,0.0,6.0,,19 / 24,,4218,2021-05-11 18:52:35:809
-0.079011,0.249005,9.735122,-0.04019,0.276381,9.802671,-0.002547,0.018879,0.007081,136.68,-36.36,147.96,253.7644,-1.5574,0.1076,1002.8972,55.813995,37.500282,207.9119,NaN,,0.0,6.0,,19 / 24,,4228,2021-05-11 18:52:35:819
-0.06704,0.270553,9.792584,-0.048079,0.276088,9.802645,-0.003158,0.013382,0.008914,137.34,-36.84,147.84,253.3547,-1.615,0.2349,1002.8972,55.813995,37.500282,207.9119,NaN,,0.0,6.0,,19 / 24,,4237,2021-05-11 18:52:35:828
-0.0838,0.268159,9.847652,-0.048079,0.276088,9.802645,0.006616,0.01216,0.010746,137.34,-36.84,147.84,253.3547,-1.615,0.2349,1002.8972,55.813995,37.500282,207.9119,NaN,,0.0,6.0,,19 / 24,,4248,2021-05-11 18:52:35:839
-0.071828,0.272947,9.823709,-0.054364,0.276066,9.802613,0.014557,-6.68E-4,0.015022,137.22,-36.66,147.96,253.3547,-1.615,0.2349,1002.8972,55.813995,37.500282,207.9119,NaN,,0.0,6.0,,19 / 24,,4258,2021-05-11 18:52:35:849
-0.026337,0.29689,9.787795,-0.054364,0.276066,9.802613,0.017,-0.009831,0.011357,137.22,-36.66,147.96,253.3547,-1.615,0.2349,1002.8972,55.813995,37.500282,207.9119,NaN,,0.0,6.0,,19 / 24,,4268,2021-05-11 18:52:35:859
-0.026337,0.29689,9.787795,-0.05615,0.279433,9.802507,0.017611,-0.016551,0.01319,136.38,-36.6,147.66,253.2682,-1.6131,0.3178,1002.8972,55.813995,37.500282,207.9119,NaN,,0.0,6.0,,19 / 24,,4278,2021-05-11 18:52:35:869
-0.052674,0.28013,9.727939,-0.05615,0.279433,9.802507,0.013946,-0.006777,0.017466,136.38,-36.6,147.66,253.2682,-1.6131,0.3178,1002.8972,55.813995,37.500282,207.9119,NaN,,0.0,6.0,,19 / 24,,4288,2021-05-11 18:52:35:879
-0.086194,0.323227,9.73991,-0.05615,0.279433,9.802507,0.013946,-0.006777,0.017466,136.38,-36.6,147.66,253.2682,-1.6131,0.3178,1002.8972,55.813995,37.500282,207.9119,NaN,,0.0,6.0,,19 / 24,,4298,2021-05-11 18:52:35:889
-0.045491,0.282524,9.75667,-0.055215,0.283569,9.802394,0.00234,0.002997,0.014412,136.74,-36.84,146.58,253.2682,-1.6131,0.3178,1002.8972,55.813995,37.500282,207.9119,NaN,,0.0,6.0,,19 / 24,,4308,2021-05-11 18:52:35:899
0.007183,0.316044,9.797373,-0.056933,0.285228,9.802337,-0.005602,0.006662,0.021742,136.98,-37.02,146.1,253.3626,-1.657,0.3227,1002.8972,55.813995,37.500282,207.9119,NaN,,0.0,6.0,,19 / 24,,4318,2021-05-11 18:52:35:909
0.007183,0.316044,9.797373,-0.056933,0.285228,9.802337,-0.003769,0.009716,0.02052,136.98,-37.02,146.1,253.3626,-1.657,0.3227,1002.8972,55.813995,37.500282,207.9119,NaN,,0.0,6.0,,19 / 24,,4328,2021-05-11 18:52:35:919
0.011971,0.33041,9.821315,-0.055748,0.286432,9.802307,-1.04E-4,0.006051,0.012579,137.04,-36.72,146.76,253.3626,-1.657,0.3227,1002.8972,55.813995,37.500282,207.9119,NaN,,0.0,6.0,,19 / 24,,4338,2021-05-11 18:52:35:929
-0.002394,0.328016,9.785401,-0.055748,0.286432,9.802307,0.009059,-0.002501,0.00647,137.04,-36.72,146.76,253.3626,-1.657,0.3227,1002.8972,55.813995,37.500282,207.9119,NaN,,0.0,6.0,,19 / 24,,4348,2021-05-11 18:52:35:939
-0.002394,0.339987,9.780613,-0.055748,0.286432,9.802307,0.010892,-0.006777,0.005859,137.04,-36.72,146.76,253.3626,-1.657,0.3227,1002.8972,55.813995,37.500282,207.9119,NaN,,0.0,6.0,,19 / 24,,4357,2021-05-11 18:52:35:948
-0.004789,0.33041,9.732727,-0.049858,0.29147,9.802192,0.005394,0.004219,0.007692,137.34,-36.72,146.94,253.3371,-1.6737,0.3258,1002.8972,55.813995,37.500282,207.9119,NaN,,0.0,6.0,,19 / 24,,4368,2021-05-11 18:52:35:959
-0.004789,0.33041,9.732727,-0.043497,0.297559,9.802038,-0.008045,0.01216,0.010746,137.04,-37.02,147.18,253.3371,-1.6737,0.3258,1002.8972,55.813995,37.500282,207.9119,NaN,,0.0,6.0,,19 / 24,,4378,2021-05-11 18:52:35:969
0.040703,0.335198,9.744699,-0.043497,0.297559,9.802038,-0.015375,0.014603,0.005859,137.04,-37.02,147.18,253.3371,-1.6737,0.3258,1002.8972,55.813995,37.500282,207.9119,NaN,,0.0,6.0,,19 / 24,,4388,2021-05-11 18:52:35:979
0.05028,0.301679,9.80695,-0.038079,0.299383,9.802005,-0.012321,0.021323,0.002194,136.2,-36.96,147.72,253.1245,-1.7388,0.2542,1002.8972,55.813995,37.500282,207.9119,NaN,,0.0,6.0,,19 / 24,,4398,2021-05-11 18:52:35:989
0.062251,0.304073,9.842864,-0.038079,0.299383,9.802005,-0.008656,0.013382,-0.002082,136.2,-36.96,147.72,253.1245,-1.7388,0.2542,1002.8972,55.813995,37.500282,207.9119,NaN,,0.0,6.0,,19 / 24,,4408,2021-05-11 18:52:35:999
0.114925,0.311256,9.850046,-0.031371,0.299678,9.80202,-0.004991,0.009106,-0.006358,136.08,-36.78,148.14,253.1245,-1.7388,0.2542,1002.8972,55.813995,37.500282,207.9119,NaN,,0.0,6.0,,19 / 24,,4418,2021-05-11 18:52:36:009
0.114925,0.311256,9.850046,-0.031371,0.299678,9.80202,-0.004991,0.009106,-0.006358,136.08,-36.78,148.14,253.1245,-1.7388,0.2542,1002.8972,55.813995,37.500282,207.9119,NaN,,0.0,6.0,,19 / 24,,4428,2021-05-11 18:52:36:019
0.06704,0.339987,9.814133,-0.020411,0.301632,9.80199,0.00234,0.01216,-0.015521,136.62,-36.9,147.24,253.2165,-1.7512,0.1834,1002.8972,55.813995,37.500282,207.9119,NaN,,0.0,6.0,,19 / 24,,4438,2021-05-11 18:52:36:029
-0.028731,0.342381,9.732727,-0.020411,0.301632,9.80199,0.008448,0.009716,-0.019186,136.62,-36.9,147.24,253.2165,-1.7512,0.1834,1002.8962,55.813995,37.500282,207.9119,NaN,,0.0,6.0,,19 / 24,,4448,2021-05-11 18:52:36:039
-0.028731,0.342381,9.732727,-0.011812,0.306623,9.801848,0.011503,0.00483,-0.015521,136.74,-36.78,145.86,253.2165,-1.7512,0.1834,1002.8962,55.813995,37.500282,207.9119,NaN,,0.0,6.0,,19 / 24,,4458,2021-05-11 18:52:36:049
-0.043097,0.316044,9.680053,-0.011812,0.306623,9.801848,0.007837,0.01216,-0.011245,136.74,-36.78,145.86,253.2165,-1.7512,0.1834,1002.8962,55.813995,37.500282,207.9119,NaN,,0.0,6.0,,19 / 24,,4468,2021-05-11 18:52:36:059
-0.023943,0.323227,9.668081,-0.009427,0.310876,9.801717,-0.008656,0.021323,-0.006358,136.62,-36.12,146.46,253.535,-1.7917,0.069,1002.8962,55.813995,37.500282,207.9119,NaN,,0.0,6.0,,19 / 24,,4478,2021-05-11 18:52:36:069
0.002394,0.339987,9.689631,-0.009427,0.310876,9.801717,-0.016597,0.029875,-0.003304,136.62,-36.12,146.46,253.535,-1.7917,0.069,1002.8962,55.813995,37.500282,207.9119,NaN,,0.0,6.0,,19 / 24,,4488,2021-05-11 18:52:36:079
0.052674,0.292102,9.804555,-0.010955,0.310596,9.801723,-0.023928,0.028653,-0.005747,136.38,-36.06,146.88,253.535,-1.7917,0.069,1002.8962,55.813995,37.500282,207.9119,NaN,,0.0,6.0,,19 / 24,,4498,2021-05-11 18:52:36:089
0.052674,0.292102,9.804555,-0.010955,0.310596,9.801723,-0.020873,0.011549,-0.016132,136.38,-36.06,146.88,253.535,-1.7917,0.069,1002.8962,55.813995,37.500282,207.9119,NaN,,0.0,6.0,,19 / 24,,4508,2021-05-11 18:52:36:099
0.086194,0.289707,9.914692,-0.007064,0.308251,9.801802,-0.011099,-0.001279,-0.02224,136.38,-36.42,147.3,253.3843,-1.815,0.064,1002.8962,55.813995,37.500282,207.9119,NaN,,0.0,6.0,,19 / 24,,4518,2021-05-11 18:52:36:109
0.038308,0.282524,9.926663,-0.007064,0.308251,9.801802,0.004172,-0.011053,-0.030182,136.38,-36.42,147.3,253.3843,-1.815,0.064,1002.8962,55.813995,37.500282,207.9119,NaN,,0.0,6.0,,19 / 24,,4528,2021-05-11 18:52:36:119
0.002394,0.304073,9.900327,-0.007064,0.308251,9.801802,0.021276,-0.017162,-0.033847,136.38,-36.42,147.3,253.3843,-1.815,0.064,1002.8962,55.813995,37.500282,207.9119,NaN,,0.0,6.0,,19 / 24,,4538,2021-05-11 18:52:36:129
-0.114925,0.318439,9.751882,7.05E-4,0.309576,9.801763,0.026774,-0.033044,-0.030792,136.68,-36.84,147.54,253.3843,-1.815,0.064,1002.9055,55.813995,37.500282,207.9119,NaN,,0.0,6.0,,19 / 24,,4548,2021-05-11 18:52:36:139
-0.114925,0.318439,9.751882,0.006272,0.315214,9.80158,0.02372,-0.032433,-0.026516,137.04,-36.72,147.54,253.0872,-1.809,-0.0041,1002.9055,55.813995,37.500282,207.9119,NaN,,0.0,6.0,,19 / 24,,4558,2021-05-11 18:52:36:149
-0.119714,0.351958,9.737515,0.006272,0.315214,9.80158,0.017,-0.015329,-0.019797,137.04,-36.72,147.54,253.0872,-1.809,-0.0041,1002.9055,55.813995,37.500282,207.9119,NaN,,0.0,6.0,,19 / 24,,4567,2021-05-11 18:52:36:158
-0.10056,0.366324,9.701602,0.001836,0.319521,9.801443,0.005394,5.53E-4,-0.011856,137.04,-36.54,147.54,253.0872,-1.809,-0.0041,1002.9055,55.813995,37.500282,207.9119,NaN,,0.0,6.0,,19 / 24,,4578,2021-05-11 18:52:36:169
-0.062251,0.373507,9.672871,0.001836,0.319521,9.801443,-0.009267,-0.009831,-0.006969,137.04,-36.54,147.54,253.0872,-1.809,-0.0041,1002.9055,55.813995,37.500282,207.9119,NaN,,0.0,6.0,,19 / 24,,4589,2021-05-11 18:52:36:180
-0.062251,0.373507,9.672871,0.001836,0.319521,9.801443,-0.009267,-0.009831,-0.006969,137.04,-36.54,147.54,253.0872,-1.809,-0.0041,1002.9055,55.813995,37.500282,207.9119,NaN,,0.0,6.0,,19 / 24,,4598,2021-05-11 18:52:36:189
0.011971,0.368718,9.828498,-0.006545,0.321693,9.801371,-0.022095,-0.001279,-0.008801,136.86,-36.6,147.12,253.0405,-1.8671,-0.0107,1002.9055,55.813995,37.500282,207.9119,NaN,,0.0,6.0,,19 / 24,,4608,2021-05-11 18:52:36:199
0.069434,0.316044,9.895537,-0.010967,0.322447,9.801342,-0.01171,-0.00922,-0.016132,136.38,-36.24,147.54,253.0405,-1.8671,-0.0107,1002.9055,55.813995,37.500282,207.9119,NaN,,0.0,6.0,,19 / 24,,4618,2021-05-11 18:52:36:209
0.112531,0.33041,9.842864,-0.010967,0.322447,9.801342,-7.15E-4,-0.012886,-0.025906,136.38,-36.24,147.54,253.0405,-1.8671,-0.0107,1002.9055,55.813995,37.500282,207.9119,NaN,,0.0,6.0,,19 / 24,,4627,2021-05-11 18:52:36:218
0.038308,0.354353,9.785401,-0.0068,0.324388,9.801281,0.008448,-0.009831,-0.029571,136.62,-36.0,147.72,253.4188,-1.8842,0.0641,1002.9055,55.81399,37.500298,207.9824,NaN,,0.0,6.0,,19 / 22,,4638,2021-05-11 18:52:36:229
0.038308,0.354353,9.785401,-0.0068,0.324388,9.801281,0.010281,-0.003723,-0.025906,136.62,-36.0,147.72,253.4188,-1.8842,0.0641,1002.9055,55.81399,37.500298,207.9824,NaN,,0.0,6.0,,19 / 22,,4648,2021-05-11 18:52:36:239
-0.074223,0.407027,9.715967,-0.002565,0.329415,9.801116,0.003561,0.009716,-0.021019,137.04,-35.88,147.0,253.4188,-1.8842,0.0641,1002.9055,55.81399,37.500298,207.9824,NaN,,0.0,6.0,,19 / 22,,4657,2021-05-11 18:52:36:248
-0.119714,0.359141,9.617802,-0.002565,0.329415,9.801116,-0.010489,0.013382,-0.012467,137.04,-35.88,147.0,253.4188,-1.8842,0.0641,1002.9055,55.81399,37.500298,207.9824,NaN,,0.0,6.0,,19 / 22,,4668,2021-05-11 18:52:36:259
-0.124502,0.344776,9.677659,-0.008449,0.333597,9.80097,-0.010489,0.013382,-0.012467,137.04,-35.64,147.06,253.3757,-1.925,0.015,1002.9055,55.81399,37.500298,207.9824,NaN,,0.0,6.0,,19 / 22,,4678,2021-05-11 18:52:36:269
-0.134079,0.33041,9.802161,-0.008449,0.333597,9.80097,-0.031258,0.021323,-0.009412,137.04,-35.64,147.06,253.3757,-1.925,0.015,1002.9055,55.81399,37.500298,207.9824,NaN,,0.0,6.0,,19 / 22,,4688,2021-05-11 18:52:36:279
-0.134079,0.33041,9.802161,-0.02012,0.331428,9.801027,-0.039199,0.018879,-0.010023,137.1,-36.3,147.36,253.3757,-1.925,0.015,1002.9055,55.81399,37.500298,207.9824,NaN,,0.0,6.0,,19 / 22,,4698,2021-05-11 18:52:36:289
-0.071828,0.371113,9.895537,-0.02012,0.331428,9.801027,-0.029425,0.008495,-0.019186,137.1,-36.3,147.36,253.3757,-1.925,0.015,1002.9055,55.81399,37.500298,207.9824,NaN,,0.0,6.0,,19 / 22,,4708,2021-05-11 18:52:36:299
-0.038308,0.371113,9.828498,-0.029905,0.330521,9.801033,-0.020262,5.53E-4,-0.017353,137.34,-36.6,146.94,253.0152,-1.9368,0.1176,1002.9055,55.81399,37.500298,207.9824,NaN,,0.0,6.0,,19 / 22,,4719,2021-05-11 18:52:36:310
-0.038308,0.371113,9.828498,-0.029905,0.330521,9.801033,-0.017208,-0.010442,-0.018575,137.34,-36.6,146.94,253.0152,-1.9368,0.1176,1002.9055,55.81399,37.500298,207.9824,NaN,,0.0,6.0,,19 / 22,,4728,2021-05-11 18:52:36:319
-0.014366,0.344776,9.842864,-0.032941,0.332728,9.800949,-0.013543,-0.011664,-0.014299,137.34,-36.24,147.0,253.0152,-1.9368,0.1176,1002.9055,55.81399,37.500298,207.9824,NaN,,0.0,6.0,,19 / 22,,4738,2021-05-11 18:52:36:329
-0.055068,0.294496,9.864412,-0.032941,0.332728,9.800949,-0.015986,-0.003112,-0.00819,137.34,-36.24,147.0,253.0152,-1.9368,0.1176,1002.9053,55.81399,37.500298,207.9824,NaN,,0.0,6.0,,19 / 22,,4748,2021-05-11 18:52:36:339
-0.038308,0.232245,9.900327,-0.035175,0.331883,9.800969,-0.015375,-0.005555,-0.005747,137.22,-36.48,147.24,253.4143,-1.9444,0.1926,1002.9053,55.81399,37.500298,207.9824,NaN,,0.0,6.0,,19 / 22,,4758,2021-05-11 18:52:36:349
-0.007183,0.208302,9.964972,-0.035175,0.331883,9.800969,-0.011099,-0.004944,-0.005136,137.22,-36.48,147.24,253.4143,-1.9444,0.1926,1002.9053,55.81399,37.500298,207.9824,NaN,,0.0,6.0,,19 / 22,,4768,2021-05-11 18:52:36:359
-0.014366,0.28013,9.974549,-0.035397,0.325836,9.801172,-0.001936,-0.002501,-0.003914,136.98,-36.36,147.24,253.4143,-1.9444,0.1926,1002.9053,55.81399,37.500298,207.9824,NaN,,0.0,6.0,,19 / 22,,4778,2021-05-11 18:52:36:369
-0.014366,0.28013,9.974549,-0.035397,0.325836,9.801172,0.010892,-0.006166,-0.00819,136.98,-36.36,147.24,253.4143,-1.9444,0.1926,1002.9053,55.81399,37.500298,207.9824,NaN,,0.0,6.0,,19 / 22,,4788,2021-05-11 18:52:36:379
-0.026337,0.289707,9.871595,-0.033683,0.32164,9.801316,0.017611,-0.00922,-0.00758,137.28,-36.36,146.94,253.458,-1.9041,0.2069,1002.9053,55.81399,37.500298,207.9824,NaN,,0.0,6.0,,19 / 22,,4798,2021-05-11 18:52:36:389
-0.055068,0.354353,9.787795,-0.033683,0.32164,9.801316,0.019444,-0.011664,-0.009412,137.28,-36.36,146.94,253.458,-1.9041,0.2069,1002.9053,55.81399,37.500298,207.9824,NaN,,0.0,6.0,,19 / 22,,4808,2021-05-11 18:52:36:399
-0.035914,0.390267,9.644139,-0.032424,0.321862,9.801313,0.01639,-0.007388,-0.004525,137.46,-36.3,146.7,253.458,-1.9041,0.2069,1002.9053,55.81399,37.500298,207.9824,NaN,,0.0,6.0,,19 / 22,,4818,2021-05-11 18:52:36:409
-0.035914,0.390267,9.644139,-0.032424,0.321862,9.801313,0.001118,-0.007999,-0.002082,137.46,-36.3,146.7,253.458,-1.9041,0.2069,1002.9053,55.81399,37.500298,207.9824,NaN,,0.0,6.0,,19 / 22,,4828,2021-05-11 18:52:36:419
-0.007183,0.409421,9.584282,-0.031345,0.324675,9.801224,-0.015375,-0.00189,-0.005136,136.68,-36.48,146.22,253.4693,-1.8973,0.1832,1002.9053,55.81399,37.500298,207.9824,NaN,,0.0,6.0,,19 / 22,,4838,2021-05-11 18:52:36:429
-0.045491,0.421392,9.574705,-0.031345,0.324675,9.801224,-0.025149,0.001775,-0.006969,136.68,-36.48,146.22,253.4693,-1.8973,0.1832,1002.9001,55.81399,37.500298,207.9824,NaN,,0.0,6.0,,19 / 22,,4848,2021-05-11 18:52:36:439
-0.184359,0.39745,9.560339,-0.033332,0.327761,9.801115,-0.03248,0.002997,-0.002693,136.44,-36.36,146.64,253.4693,-1.8973,0.1832,1002.9001,55.81399,37.500298,207.9824,NaN,,0.0,6.0,,19 / 22,,4858,2021-05-11 18:52:36:449
-0.184359,0.39745,9.560339,-0.033332,0.327761,9.801115,-0.03248,0.002997,-0.002693,136.44,-36.36,146.64,253.4693,-1.8973,0.1832,1002.9001,55.81399,37.500298,207.9824,NaN,,0.0,6.0,,19 / 22,,4868,2021-05-11 18:52:36:459
-0.160416,0.361536,9.60583,-0.036792,0.328833,9.801066,-0.045308,0.007273,0.011968,136.56,-36.3,147.3,253.4693,-1.8973,0.1832,1002.9001,55.81399,37.500298,207.9824,NaN,,0.0,6.0,,19 / 22,,4878,2021-05-11 18:52:36:469
-0.093377,0.33041,9.725544,-0.047961,0.327537,9.801062,-0.059358,0.012771,0.019298,136.68,-36.48,147.24,253.4437,-1.9216,0.2151,1002.9001,55.81399,37.500298,207.9824,NaN,,0.0,6.0,,19 / 22,,4888,2021-05-11 18:52:36:479
-0.081405,0.306467,9.828498,-0.053539,0.325338,9.801105,-0.059358,0.010327,0.021742,136.68,-36.66,147.24,253.4437,-1.9216,0.2151,1002.9001,55.81399,37.500298,207.9824,NaN,,0.0,6.0,,19 / 22,,4898,2021-05-11 18:52:36:489
-0.002394,0.304073,9.854836,-0.053539,0.325338,9.801105,-0.050195,5.53E-4,0.021131,136.68,-36.66,147.24,253.4437,-1.9216,0.2151,1002.9001,55.81399,37.500298,207.9824,NaN,,0.0,6.0,,19 / 22,,4909,2021-05-11 18:52:36:500
-0.002394,0.304073,9.854836,-0.057639,0.321706,9.801203,-0.041032,-0.018994,0.018077,136.68,-36.36,147.48,253.4437,-1.9216,0.2151,1002.9001,55.81399,37.500298,207.9824,NaN,,0.0,6.0,,19 / 22,,4919,2021-05-11 18:52:36:510
0.059857,0.31365,9.840469,-0.057639,0.321706,9.801203,-0.033091,-0.031822,0.011968,136.68,-36.36,147.48,253.4437,-1.9216,0.2151,1002.9001,55.81399,37.500298,207.9824,NaN,,0.0,6.0,,19 / 22,,4928,2021-05-11 18:52:36:519
0.026337,0.356747,9.80695,-0.050206,0.319122,9.801328,-0.03248,-0.031822,0.007081,136.86,-36.3,147.3,253.523,-1.8799,0.3369,1002.9001,55.81399,37.500298,207.9824,NaN,,0.0,6.0,,19 / 22,,4938,2021-05-11 18:52:36:529
0.021548,0.366324,9.735122,-0.050206,0.319122,9.801328,-0.03981,-0.017773,0.00647,136.86,-36.3,147.3,253.523,-1.8799,0.3369,1002.9001,55.81399,37.500298,207.9824,NaN,,0.0,6.0,,19 / 22,,4948,2021-05-11 18:52:36:539
-0.004789,0.385478,9.720756,-0.041282,0.317156,9.801434,-0.048973,-0.015329,0.00647,137.1,-36.42,146.82,253.523,-1.8799,0.3369,1002.9001,55.81399,37.500298,207.9824,NaN,,0.0,6.0,,19 / 22,,4958,2021-05-11 18:52:36:549
-0.004789,0.385478,9.720756,-0.041282,0.317156,9.801434,-0.05386,-0.01594,0.005249,137.1,-36.42,146.82,253.523,-1.8799,0.3369,1002.9001,55.81399,37.500298,207.9824,NaN,,0.0,6.0,,19 / 22,,4968,2021-05-11 18:52:36:559
0.01676,0.416604,9.675264,-0.033921,0.315729,9.801508,-0.063634,-0.019605,0.003416,137.52,-36.54,146.46,253.2631,-1.8533,0.2413,1002.9001,55.81399,37.500298,207.9824,NaN,,0.0,6.0,,19 / 22,,4978,2021-05-11 18:52:36:569
-0.074223,0.375901,9.744699,-0.033921,0.315729,9.801508,-0.065466,-0.017162,0.011968,137.52,-36.54,146.46,253.2631,-1.8533,0.2413,1002.9001,55.81399,37.500298,207.9824,NaN,,0.0,6.0,,19 / 22,,4987,2021-05-11 18:52:36:578
-0.055068,0.390267,9.747093,-0.028156,0.315132,9.801545,-0.064856,-0.015329,0.016855,137.46,-37.26,146.7,253.2631,-1.8533,0.2413,1002.9001,55.81399,37.500298,207.9824,NaN,,0.0,6.0,,19 / 22,,4998,2021-05-11 18:52:36:589
-0.055068,0.390267,9.747093,-0.028156,0.315132,9.801545,-0.068521,-0.012886,0.017466,137.46,-37.26,146.7,253.2631,-1.8533,0.2413,1002.9001,55.81399,37.500298,207.9824,NaN,,0.0,6.0,,19 / 22,,5008,2021-05-11 18:52:36:599
-0.01676,0.356747,9.79019,-0.025544,0.315327,9.801546,-0.074019,-0.011053,0.01319,136.74,-37.02,146.58,253.1229,-1.8415,0.1646,1002.9001,55.81399,37.500298,207.9824,NaN,,0.0,6.0,,19 / 22,,5019,2021-05-11 18:52:36:610
0.019154,0.354353,9.811738,-0.025544,0.315327,9.801546,-0.076462,-0.012886,0.008303,136.74,-37.02,146.58,253.1229,-1.8415,0.1646,1002.9001,55.81399,37.500298,207.9824,NaN,,0.0,6.0,,19 / 22,,5028,2021-05-11 18:52:36:619
-0.045491,0.318439,9.91948,-0.02229,0.312924,9.801631,-0.072186,-0.011053,0.009525,136.74,-35.82,145.92,253.1229,-1.8415,0.1646,1002.9001,55.81399,37.500298,207.9824,NaN,,0.0,6.0,,19 / 22,,5038,2021-05-11 18:52:36:629
-0.045491,0.311256,9.909904,-0.02229,0.312924,9.801631,-0.059969,-0.02327,0.004638,136.74,-35.82,145.92,253.1229,-1.8415,0.1646,1002.905,55.81399,37.500298,207.9824,NaN,,0.0,6.0,,19 / 22,,5048,2021-05-11 18:52:36:639
-0.045491,0.311256,9.909904,-0.018487,0.310598,9.801713,-0.048362,-0.020827,0.010135,136.68,-35.7,146.34,253.5188,-1.8286,0.1303,1002.905,55.81399,37.500298,207.9824,NaN,,0.0,6.0,,19 / 22,,5058,2021-05-11 18:52:36:649
-0.026337,0.332804,9.850046,-0.018487,0.310598,9.801713,-0.048362,-0.020827,0.010135,136.68,-35.7,146.34,253.5188,-1.8286,0.1303,1002.905,55.81399,37.500298,207.9824,NaN,,0.0,6.0,,19 / 22,,5069,2021-05-11 18:52:36:660
0.045491,0.361536,9.744699,-0.017458,0.309964,9.801734,-0.04653,-0.025103,0.010746,136.74,-35.64,146.28,253.5188,-1.8286,0.1303,1002.905,55.81399,37.500298,207.9824,NaN,,0.0,6.0,,19 / 22,,5078,2021-05-11 18:52:36:669
0.045491,0.361536,9.744699,-0.017458,0.309964,9.801734,-0.059358,-0.033044,0.004638,136.74,-35.64,146.28,253.5188,-1.8286,0.1303,1002.905,55.81399,37.500298,207.9824,NaN,,0.0,6.0,,19 / 22,,5088,2021-05-11 18:52:36:679
0.0838,0.366324,9.677659,-0.011769,0.309179,9.801767,-0.066688,-0.035488,3.62E-4,136.56,-35.28,146.58,253.5188,-1.8286,0.1303,1002.905,55.81399,37.500298,207.9824,NaN,,0.0,6.0,,19 / 22,,5098,2021-05-11 18:52:36:689
0.062251,0.342381,9.689631,-7.58E-4,0.304818,9.801912,-0.093566,-0.03732,-0.00819,137.1,-35.22,146.64,253.8931,-1.8067,0.0688,1002.905,55.81399,37.500298,207.9824,NaN,,0.0,6.0,,19 / 22,,5108,2021-05-11 18:52:36:699
-0.002394,0.335198,9.761458,-7.58E-4,0.304818,9.801912,-0.100286,-0.04404,-0.006358,137.1,-35.22,146.64,253.8931,-1.8067,0.0688,1002.905,55.81399,37.500298,207.9824,NaN,,0.0,6.0,,19 / 22,,5118,2021-05-11 18:52:36:709
-0.002394,0.335198,9.761458,0.011224,0.297023,9.802145,-0.099064,-0.041596,-0.006358,137.1,-35.22,146.58,253.8931,-1.8067,0.0688,1002.905,55.81399,37.500298,207.9824,NaN,,0.0,6.0,,19 / 22,,5127,2021-05-11 18:52:36:718
0.086194,0.339987,9.742304,0.016323,0.292923,9.80226,-0.10334,-0.034266,-0.008801,137.1,-35.16,146.82,253.8931,-1.8067,0.0688,1002.905,55.81399,37.500298,207.9824,NaN,,0.0,6.0,,19 / 22,,5138,2021-05-11 18:52:36:729
0.114925,0.387873,9.665688,0.016323,0.292923,9.80226,-0.107616,-0.04404,-0.014299,137.1,-35.16,146.82,253.8931,-1.8067,0.0688,1002.9038,55.81399,37.500298,207.9824,NaN,,0.0,6.0,,19 / 22,,5147,2021-05-11 18:52:36:738
0.102954,0.38069,9.677659,0.029464,0.28673,9.802413,-0.11739,-0.049538,-0.016132,137.1,-35.4,147.66,253.9232,-1.7117,-0.0954,1002.9038,55.81399,37.500298,207.9824,NaN,,0.0,6.0,,19 / 22,,5158,2021-05-11 18:52:36:749
0.102954,0.38069,9.677659,0.029464,0.28673,9.802413,-0.141214,-0.039764,-0.019186,137.1,-35.4,147.66,253.9232,-1.7117,-0.0954,1002.9038,55.81399,37.500298,207.9824,NaN,,0.0,6.0,,19 / 22,,5169,2021-05-11 18:52:36:760
0.057463,0.342381,9.787795,0.042109,0.278555,9.802603,-0.157707,-0.025103,-0.014299,137.46,-35.76,146.94,253.9232,-1.7117,-0.0954,1002.9038,55.81399,37.500298,207.9824,NaN,,0.0,6.0,,19 / 22,,5178,2021-05-11 18:52:36:769
0.05028,0.306467,9.852441,0.042109,0.278555,9.802603,-0.169924,-0.016551,-0.012467,137.46,-35.76,146.94,253.9232,-1.7117,-0.0954,1002.9038,55.81399,37.500298,207.9824,NaN,,0.0,6.0,,19 / 22,,5188,2021-05-11 18:52:36:779
0.043097,0.292102,10.024829,0.046964,0.25519,9.803217,-0.164427,-0.023881,-0.010634,137.82,-35.34,146.58,254.0815,-1.6277,-0.2461,1002.9038,55.81399,37.500298,207.9824,NaN,,0.0,6.0,,19 / 22,,5198,2021-05-11 18:52:36:789
0.043097,0.292102,10.024829,0.046964,0.25519,9.803217,-0.164427,-0.023881,-0.010634,137.82,-35.34,146.58,254.0815,-1.6277,-0.2461,1002.9038,55.81399,37.500298,207.9824,NaN,,0.0,6.0,,19 / 22,,5208,2021-05-11 18:52:36:799
0.059857,0.366324,9.950606,0.051378,0.225277,9.803928,-0.133883,-0.023881,-0.006969,136.98,-35.16,146.88,254.0815,-1.6277,-0.2461,1002.9038,55.81399,37.500298,207.9824,NaN,,0.0,6.0,,19 / 22,,5218,2021-05-11 18:52:36:809
0.090982,0.260976,9.912297,0.051378,0.225277,9.803928,-0.129607,-0.03732,-0.013688,136.98,-35.16,146.88,254.0815,-1.6277,-0.2461,1002.9038,55.81399,37.500298,207.9824,NaN,,0.0,6.0,,19 / 22,,5228,2021-05-11 18:52:36:819
-0.086194,0.354353,9.931452,0.058895,0.200298,9.804428,-0.128386,-0.036098,-0.010634,135.48,-34.86,146.64,254.0416,-1.3163,-0.3003,1002.9038,55.81399,37.500298,207.9824,NaN,,0.0,6.0,,19 / 22,,5238,2021-05-11 18:52:36:829
-0.086194,0.354353,9.931452,0.058895,0.200298,9.804428,-0.125942,-0.024492,0.005859,135.48,-34.86,146.64,254.0416,-1.3163,-0.3003,1002.9016,55.81399,37.500298,207.9824,NaN,,0.0,6.0,,19 / 22,,5248,2021-05-11 18:52:36:839
-0.062251,0.306467,9.883567,0.058895,0.200298,9.804428,-0.128996,-0.031822,0.017466,135.48,-34.86,146.64,254.0416,-1.3163,-0.3003,1002.9016,55.81399,37.500298,207.9824,NaN,,0.0,6.0,,19 / 22,,5258,2021-05-11 18:52:36:849
-0.064645,0.404632,9.830893,0.064627,0.175401,9.804869,-0.125331,-0.036098,0.027851,135.9,-34.44,146.82,254.0416,-1.3163,-0.3003,1002.9016,55.81399,37.500298,207.9824,NaN,,0.0,6.0,,19 / 22,,5269,2021-05-11 18:52:36:860
-0.031126,0.320833,9.857229,0.062919,0.169124,9.80499,-0.127164,-0.017162,0.048009,136.92,-34.38,146.64,254.9249,-1.0248,-0.3776,1002.9016,55.81399,37.500298,207.9824,NaN,,0.0,6.0,,19 / 22,,5278,2021-05-11 18:52:36:869
-0.004789,0.337593,9.574705,0.062919,0.169124,9.80499,-0.170535,0.067749,0.09077,136.92,-34.38,146.64,254.9249,-1.0248,-0.3776,1002.9016,55.81399,37.500298,207.9824,NaN,,0.0,6.0,,19 / 22,,5288,2021-05-11 18:52:36:879
-0.081405,0.351958,9.553157,0.040558,0.172456,9.80505,-0.218183,0.101346,0.107874,136.5,-34.68,146.28,254.9249,-1.0248,-0.3776,1002.9016,55.81399,37.500298,207.9824,NaN,,0.0,6.0,,19 / 22,,5298,2021-05-11 18:52:36:889
-0.081405,0.351958,9.553157,0.040558,0.172456,9.80505,-0.261554,0.140442,0.124978,136.5,-34.68,146.28,254.9249,-1.0248,-0.3776,1002.9016,55.81399,37.500298,207.9824,NaN,,0.0,6.0,,19 / 22,,5308,2021-05-11 18:52:36:899
-0.047885,0.220273,9.58907,0.040558,0.172456,9.80505,-0.30126,0.168541,0.135363,136.5,-34.68,146.28,254.9249,-1.0248,-0.3776,1002.9016,55.81399,37.500298,207.9824,NaN,,0.0,6.0,,19 / 22,,5319,2021-05-11 18:52:36:910
0.071828,0.287313,9.77343,0.014177,0.122988,9.805869,-0.337301,0.200917,0.142082,136.14,-34.32,146.88,254.877,-1.0076,-0.237,1002.9016,55.81399,37.500298,207.9824,NaN,,0.0,6.0,,19 / 22,,5328,2021-05-11 18:52:36:919
0.102954,0.275342,9.98652,-0.024053,0.058942,9.806443,-0.355017,0.232682,0.149413,136.98,-34.62,147.12,254.877,-1.0076,-0.237,1002.9016,55.81399,37.500298,207.9824,NaN,,0.0,6.0,,19 / 22,,5338,2021-05-11 18:52:36:929
0.102954,0.184359,9.93624,-0.024053,0.058942,9.806443,-0.353184,0.255284,0.145748,136.98,-34.62,147.12,254.877,-1.0076,-0.237,1002.8933,55.81399,37.500298,207.9824,NaN,,0.0,6.0,,19 / 22,,5348,2021-05-11 18:52:36:939
0.102954,0.184359,9.93624,-0.072358,-0.008659,9.806379,-0.327528,0.219854,0.139028,137.1,-34.44,146.76,255.7516,-0.3444,0.1405,1002.8933,55.81399,37.500298,207.9824,NaN,,0.0,6.0,,19 / 22,,5358,2021-05-11 18:52:36:949
0.105348,0.258582,9.924269,-0.072358,-0.008659,9.806379,-0.276215,0.137387,0.145137,137.1,-34.44,146.76,255.7516,-0.3444,0.1405,1002.8933,55.81399,37.500298,207.9824,NaN,,0.0,6.0,,19 / 22,,5368,2021-05-11 18:52:36:959
0.079011,0.26337,10.130177,-0.105656,-0.06493,9.805866,-0.260332,0.177704,0.137806,136.8,-33.96,146.88,255.7516,-0.3444,0.1405,1002.8933,55.81399,37.500298,207.9824,NaN,,0.0,6.0,,19 / 22,,5378,2021-05-11 18:52:36:969
0.215485,0.392661,9.900327,-0.105656,-0.06493,9.805866,-0.260332,0.177704,0.137806,136.8,-33.96,146.88,255.7516,-0.3444,0.1405,1002.8933,55.81399,37.500298,207.9824,NaN,,0.0,6.0,,19 / 22,,5388,2021-05-11 18:52:36:979
0.215485,0.392661,9.900327,-0.140901,-0.116488,9.804946,-0.30126,0.205193,0.121924,137.4,-34.02,147.12,256.5913,0.3794,0.6173,1002.8933,55.81399,37.500298,207.9824,NaN,,0.0,6.0,,19 / 22,,5398,2021-05-11 18:52:36:989
0.014366,0.378295,9.629773,-0.140901,-0.116488,9.804946,-0.358071,0.231461,0.137806,137.4,-34.02,147.12,256.5913,0.3794,0.6173,1002.8933,55.81399,37.500298,207.9824,NaN,,0.0,6.0,,19 / 22,,5408,2021-05-11 18:52:36:999
-0.143656,0.311256,9.526819,-0.140901,-0.116488,9.804946,-0.441149,0.252841,0.165295,137.16,-33.24,146.46,256.5913,0.3794,0.6173,1002.8933,55.81399,37.500298,207.9824,NaN,,0.0,6.0,,19 / 22,,5418,2021-05-11 18:52:37:009
-0.131685,0.225062,9.651321,-0.18619,-0.184831,9.80314,-0.485742,0.249176,0.171404,137.16,-33.24,146.46,256.5913,0.3794,0.6173,1002.8933,55.81399,37.500298,207.9824,NaN,,0.0,6.0,,19 / 22,,5427,2021-05-11 18:52:37:018
-0.057463,0.045491,9.914692,-0.235023,-0.27655,9.799932,-0.513231,0.211913,0.157354,137.1,-33.0,145.92,258.3488,1.616,1.3738,1002.8933,55.81399,37.500298,207.9824,NaN,,0.0,6.0,,19 / 22,,5438,2021-05-11 18:52:37:029
-0.057463,0.045491,9.914692,-0.235023,-0.27655,9.799932,-0.515674,0.180759,0.14025,137.1,-33.0,145.92,258.3488,1.616,1.3738,1002.8906,55.81399,37.500298,207.9824,NaN,,0.0,6.0,,19 / 22,,5448,2021-05-11 18:52:37:039
0.011971,-0.131685,9.950606,-0.235023,-0.27655,9.799932,-0.515674,0.180759,0.14025,137.1,-33.0,145.92,258.3488,1.616,1.3738,1002.8906,55.81399,37.500298,207.9824,NaN,,0.0,6.0,,19 / 22,,5458,2021-05-11 18:52:37:049
-0.004789,-0.181965,9.964972,-0.272176,-0.375905,9.795663,-0.521783,0.145329,0.120702,137.1,-33.36,146.16,258.3488,1.616,1.3738,1002.8906,55.81399,37.500298,207.9824,NaN,,0.0,6.0,,19 / 22,,5468,2021-05-11 18:52:37:059
-0.004789,-0.181965,9.964972,-0.297004,-0.478277,9.790477,-0.537665,0.094627,0.086494,137.22,-33.0,145.8,258.9533,2.1968,1.5916,1002.8906,55.81399,37.500298,207.9824,NaN,,0.0,6.0,,19 / 22,,5478,2021-05-11 18:52:37:069
-0.143656,-0.191542,9.270632,-0.297004,-0.478277,9.790477,-0.603028,-0.084968,0.088937,137.22,-33.0,145.8,258.9533,2.1968,1.5916,1002.8906,55.81399,37.500298,207.9824,NaN,,0.0,6.0,,19 / 22,,5488,2021-05-11 18:52:37:079
-0.064645,-0.349564,9.028811,-0.270722,-0.598958,9.784597,-0.739862,-0.400785,0.101765,138.06,-32.1,145.62,258.9533,2.1968,1.5916,1002.8906,55.81399,37.500298,207.9824,NaN,,0.0,6.0,,19 / 22,,5498,2021-05-11 18:52:37:089
0.174782,-0.612934,9.680053,-0.270722,-0.598958,9.784597,-0.841876,-0.511352,0.035792,138.06,-32.1,145.62,258.9533,2.1968,1.5916,1002.8906,55.81399,37.500298,207.9824,NaN,,0.0,6.0,,19 / 22,,5508,2021-05-11 18:52:37:099
