ACCELEROMETER X (m/s²),ACCELEROMETER Y (m/s²),ACCELEROMETER Z (m/s²),GRAVITY X (m/s²),GRAVITY Y (m/s²),GRAVITY Z (m/s²),GYROSCOPE X (rad/s),GYROSCOPE Y (rad/s),GYROSCOPE Z (rad/s),MAGNETIC FIELD X (μT),MAGNETIC FIELD Y (μT),MAGNETIC FIELD Z (μT),ORIENTATION Z (azimuth °),ORIENTATION X (pitch °),ORIENTATION Y (roll °),LOCATION Latitude : ,LOCATION Longitude : ,LOCATION Altitude ( m),LOCATION Altitude-google ( m),LOCATION Speed ( m/s),LOCATION Accuracy ( m),LOCATION ORIENTATION (°),Satellites in range,GPS NMEA,Time since start in ms ,YYYY-MO-DD HH-MI-SS_SSS
0.239427,0.498009,9.708784,0.171667,0.427121,9.79584,-0.014484,-0.005703,0.001035,5.94,6.9,-36.72,322.3634,-2.4863,-0.9722,55.814056,37.500233,212.1205,NaN,0.0,8.0,,18 / 19,,23,2021-05-04 15:55:47:474
0.105348,0.435758,9.708784,0.171667,0.427121,9.79584,-0.023647,-0.014255,-0.003852,5.94,6.9,-36.72,322.3634,-2.4863,-0.9722,55.814056,37.500233,212.1205,NaN,0.0,8.0,,18 / 19,,33,2021-05-04 15:55:47:484
0.105348,0.435758,9.708784,0.175258,0.428133,9.795732,-0.030367,-0.019142,-1.86E-4,5.34,7.26,-36.36,322.3634,-2.4863,-0.9722,55.814056,37.500233,212.1205,NaN,0.0,8.0,,18 / 19,,43,2021-05-04 15:55:47:494
0.124502,0.430969,9.871595,0.175258,0.428133,9.795732,-0.026091,-0.016088,0.002868,5.34,7.26,-36.36,322.3634,-2.4863,-0.9722,55.814056,37.500233,212.1205,NaN,0.0,8.0,,18 / 19,,53,2021-05-04 15:55:47:504
0.131685,0.416604,9.972155,0.175496,0.42617,9.795814,-0.016928,-0.019142,0.002257,5.28,8.4,-36.06,329.4467,-2.5022,-1.025,55.814056,37.500233,212.1205,NaN,0.0,8.0,,18 / 19,,63,2021-05-04 15:55:47:514
0.047885,0.375901,9.984126,0.175496,0.42617,9.795814,-0.010819,-0.008757,0.005922,5.28,8.4,-36.06,329.4467,-2.5022,-1.025,55.814056,37.500233,212.1205,NaN,0.0,8.0,,18 / 19,,73,2021-05-04 15:55:47:524
0.047885,0.375901,9.984126,0.172042,0.42402,9.795968,-0.006543,-0.013033,0.014474,5.46,8.04,-36.84,329.4467,-2.5022,-1.025,55.814056,37.500233,212.1205,NaN,0.0,8.0,,18 / 19,,83,2021-05-04 15:55:47:534
0.148445,0.38069,9.974549,0.172042,0.42402,9.795968,-0.003489,-0.013644,0.015085,5.46,8.04,-36.84,329.4467,-2.5022,-1.025,55.814056,37.500233,212.1205,NaN,0.0,8.0,,18 / 19,,93,2021-05-04 15:55:47:544
0.237033,0.433364,10.0368,0.167509,0.421091,9.796173,7.87E-4,-0.008146,0.010809,5.76,7.68,-36.36,325.209,-2.4781,-1.0062,55.814056,37.500233,212.1205,NaN,0.0,8.0,,18 / 19,,103,2021-05-04 15:55:47:554
0.189148,0.428575,10.08708,0.167509,0.421091,9.796173,7.87E-4,-0.008146,0.010809,5.76,7.68,-36.36,325.209,-2.4781,-1.0062,55.814056,37.500233,212.1205,NaN,0.0,8.0,,18 / 19,,113,2021-05-04 15:55:47:564
0.189148,0.428575,10.08708,0.166036,0.420619,9.796219,0.008729,0.006514,0.005922,5.58,7.5,-36.42,325.209,-2.4781,-1.0062,55.814056,37.500233,212.1205,NaN,0.0,8.0,,18 / 19,,123,2021-05-04 15:55:47:574
0.10056,0.399844,10.039194,0.166036,0.420619,9.796219,0.029498,-0.002038,0.012642,5.58,7.5,-36.42,325.209,-2.4781,-1.0062,55.814056,37.500233,212.1205,NaN,0.0,8.0,,18 / 19,,133,2021-05-04 15:55:47:584
0.150839,0.430969,9.938635,0.162581,0.423979,9.796132,0.04477,-0.007536,0.015085,5.4,7.62,-36.78,329.5633,-2.4582,-0.971,55.814056,37.500233,212.1205,NaN,0.0,8.0,,18 / 19,,143,2021-05-04 15:55:47:594
0.131685,0.452518,9.759064,0.162581,0.423979,9.796132,0.036218,-0.00387,0.013864,5.4,7.62,-36.78,329.5633,-2.4582,-0.971,55.814056,37.500233,212.1205,NaN,0.0,8.0,,18 / 19,,153,2021-05-04 15:55:47:604
0.131685,0.452518,9.759064,0.160382,0.429291,9.795937,0.027055,-0.009979,0.013864,5.82,8.16,-36.42,329.5633,-2.4582,-0.971,55.814056,37.500233,212.1205,NaN,0.0,8.0,,18 / 19,,163,2021-05-04 15:55:47:614
0.122108,0.466884,9.79019,0.160382,0.429291,9.795937,0.027055,-0.020364,0.009588,5.82,8.16,-36.42,329.5633,-2.4582,-0.971,55.814056,37.500233,212.1205,NaN,0.0,8.0,,18 / 19,,173,2021-05-04 15:55:47:624
0.117319,0.462095,9.802161,0.159051,0.433835,9.795758,0.027665,-0.025251,0.013864,5.82,7.56,-36.54,325.56,-2.5355,-0.9302,55.814056,37.500233,212.1205,NaN,0.0,8.0,,18 / 19,,183,2021-05-04 15:55:47:634
0.249005,0.452518,9.823709,0.159051,0.433835,9.795758,0.024,-0.029527,0.012031,5.82,7.56,-36.54,325.56,-2.5355,-0.9302,55.814056,37.500233,212.1205,NaN,0.0,8.0,,18 / 19,,193,2021-05-04 15:55:47:644
0.241822,0.418998,9.948212,0.161482,0.438177,9.795526,0.022168,-0.025862,0.009588,5.58,7.8,-36.18,325.56,-2.5355,-0.9302,55.814056,37.500233,212.1205,NaN,0.0,8.0,,18 / 19,,203,2021-05-04 15:55:47:654
0.241822,0.418998,9.948212,0.161482,0.438177,9.795526,0.022779,-0.013033,0.010809,5.58,7.8,-36.18,325.56,-2.5355,-0.9302,55.814056,37.500233,212.1205,NaN,0.0,8.0,,18 / 19,,214,2021-05-04 15:55:47:665
0.304073,0.423787,9.893144,0.167033,0.440281,9.795338,0.029498,-0.020364,0.010198,5.7,8.1,-36.6,325.5676,-2.5609,-0.9445,55.814056,37.500233,212.1205,NaN,0.0,8.0,,18 / 19,,223,2021-05-04 15:55:47:674
0.354353,0.438152,9.828498,0.167033,0.440281,9.795338,0.031331,-0.034414,-0.012404,5.7,8.1,-36.6,325.5676,-2.5609,-0.9445,55.814056,37.500233,212.1205,NaN,0.0,8.0,,18 / 19,,234,2021-05-04 15:55:47:685
0.270553,0.438152,9.811738,0.181573,0.442959,9.794958,0.025833,-0.033803,-0.016069,5.82,7.68,-37.02,325.5676,-2.5609,-0.9445,55.814056,37.500233,212.1205,NaN,0.0,8.0,,18 / 19,,243,2021-05-04 15:55:47:694
0.107742,0.488432,9.852441,0.181573,0.442959,9.794958,0.020335,-0.02464,-0.019734,5.82,7.68,-37.02,325.5676,-2.5609,-0.9445,55.814056,37.500233,212.1205,NaN,0.0,8.0,,18 / 19,,253,2021-05-04 15:55:47:704
0.107742,0.488432,9.852441,0.193506,0.445131,9.794631,0.023389,-0.02464,-0.018512,5.52,7.86,-36.48,325.2593,-2.5889,-1.062,55.814056,37.500233,212.1205,NaN,0.0,8.0,,18 / 19,,264,2021-05-04 15:55:47:715
0.035914,0.395055,9.852441,0.193506,0.445131,9.794631,0.026444,-0.025862,-0.008738,5.52,7.86,-36.48,325.2593,-2.5889,-1.062,55.814056,37.500233,212.1205,NaN,0.0,8.0,,18 / 19,,273,2021-05-04 15:55:47:724
0.038308,0.36393,9.826104,0.193649,0.446416,9.79457,0.025222,-0.016699,4.25E-4,5.52,7.44,-36.24,325.2593,-2.5889,-1.062,55.814056,37.500233,212.1205,NaN,0.0,8.0,,18 / 19,,283,2021-05-04 15:55:47:734
0.126897,0.469278,9.778218,0.193649,0.446416,9.79457,0.021557,-0.01059,0.013253,5.52,7.44,-36.24,325.2593,-2.5889,-1.062,55.814056,37.500233,212.1205,NaN,0.0,8.0,,18 / 19,,293,2021-05-04 15:55:47:744
0.282524,0.452518,9.749487,0.186649,0.445719,9.794738,0.019724,-0.005092,0.010198,5.7,6.66,-36.18,322.1189,-2.6091,-1.1327,55.814056,37.500233,212.1205,NaN,0.0,8.0,,18 / 19,,304,2021-05-04 15:55:47:755
0.282524,0.452518,9.749487,0.186649,0.445719,9.794738,0.019724,-0.005092,0.010198,5.7,6.66,-36.18,322.1189,-2.6091,-1.1327,55.814056,37.500233,212.1205,NaN,0.0,8.0,,18 / 19,,314,2021-05-04 15:55:47:765
0.395055,0.541106,9.768641,0.188283,0.447016,9.794647,0.016059,-0.00326,-0.009349,5.64,7.26,-35.64,322.1189,-2.6091,-1.1327,55.814056,37.500233,212.1205,NaN,0.0,8.0,,18 / 19,,323,2021-05-04 15:55:47:774
0.193936,0.481249,9.80695,0.188283,0.447016,9.794647,0.005674,0.010179,-0.020345,5.64,7.26,-35.64,322.1189,-2.6091,-1.1327,55.814056,37.500233,212.1205,NaN,0.0,8.0,,18 / 19,,333,2021-05-04 15:55:47:784
0.047885,0.442941,9.840469,0.191483,0.450081,9.794445,0.005674,0.012012,-0.022177,5.28,7.2,-35.64,326.5945,-2.6126,-1.1013,55.814056,37.500233,212.1205,NaN,0.0,8.0,,18 / 19,,344,2021-05-04 15:55:47:795
0.01676,0.433364,9.993703,0.191483,0.450081,9.794445,0.00262,4.06E-4,-0.016069,5.28,7.2,-35.64,326.5945,-2.6126,-1.1013,55.814056,37.500233,212.1205,NaN,0.0,8.0,,18 / 19,,354,2021-05-04 15:55:47:805
0.01676,0.433364,9.993703,0.186591,0.451183,9.794489,0.016059,0.004682,-0.00996,5.46,6.84,-35.76,326.5945,-2.6126,-1.1013,55.814056,37.500233,212.1205,NaN,0.0,8.0,,18 / 19,,364,2021-05-04 15:55:47:815
0.0,0.418998,9.967366,0.180144,0.452467,9.79455,0.029498,-0.002038,0.003479,5.64,6.84,-35.82,326.5945,-2.6126,-1.1013,55.814056,37.500233,212.1205,NaN,0.0,8.0,,18 / 19,,374,2021-05-04 15:55:47:825
0.169994,0.490826,9.845258,0.180144,0.452467,9.79455,0.029498,-0.002038,0.003479,5.64,6.84,-35.82,326.5945,-2.6126,-1.1013,55.814056,37.500233,212.1205,NaN,0.0,8.0,,18 / 19,,384,2021-05-04 15:55:47:835
0.222668,0.490826,9.845258,0.170035,0.457493,9.794497,0.033774,-0.011201,0.008977,5.34,6.72,-36.3,326.7935,-2.6445,-1.0537,55.814056,37.500233,212.1205,NaN,0.0,8.0,,18 / 19,,393,2021-05-04 15:55:47:844
0.222668,0.490826,9.845258,0.170035,0.457493,9.794497,0.032552,-0.008146,0.004701,5.34,6.72,-36.3,326.7935,-2.6445,-1.0537,55.814056,37.500233,212.1205,NaN,0.0,8.0,,18 / 19,,404,2021-05-04 15:55:47:855
0.282524,0.500403,9.766247,0.167497,0.464231,9.794224,0.033774,-0.001427,-0.00263,4.74,7.2,-36.84,326.7935,-2.6445,-1.0537,55.814056,37.500233,212.1205,NaN,0.0,8.0,,18 / 19,,413,2021-05-04 15:55:47:864
0.328016,0.502798,9.737515,0.167497,0.464231,9.794224,0.023389,-0.012423,-0.013625,4.74,7.2,-36.84,326.7935,-2.6445,-1.0537,55.814056,37.500233,212.1205,NaN,0.0,8.0,,18 / 19,,423,2021-05-04 15:55:47:874
0.251399,0.488432,9.888355,0.174841,0.470202,9.793811,0.007507,-0.011812,-0.021567,4.86,7.26,-36.06,327.1386,-2.7133,-0.9798,55.814056,37.500233,212.1205,NaN,0.0,8.0,,18 / 19,,433,2021-05-04 15:55:47:884
0.124502,0.457306,10.010463,0.174841,0.470202,9.793811,0.002009,-0.00387,-0.020956,4.86,7.26,-36.06,327.1386,-2.7133,-0.9798,55.814056,37.500233,212.1205,NaN,0.0,8.0,,18 / 19,,443,2021-05-04 15:55:47:894
0.124502,0.457306,10.010463,0.181645,0.471888,9.793606,0.014837,0.001627,-0.008738,5.28,7.32,-36.06,327.1386,-2.7133,-0.9798,55.814056,37.500233,212.1205,NaN,0.0,8.0,,18 / 19,,453,2021-05-04 15:55:47:904
0.105348,0.433364,10.055954,0.181645,0.471888,9.793606,0.033163,-0.004481,-0.005073,5.28,7.32,-36.06,327.1386,-2.7133,-0.9798,55.814056,37.500233,212.1205,NaN,0.0,8.0,,18 / 19,,463,2021-05-04 15:55:47:914
0.165205,0.423787,9.976943,0.182308,0.474487,9.793468,0.049046,-0.011201,-0.003852,5.4,7.44,-36.66,327.0388,-2.7581,-1.0626,55.814056,37.500233,212.1205,NaN,0.0,8.0,,18 / 19,,473,2021-05-04 15:55:47:924
0.172388,0.469278,9.859624,0.182308,0.474487,9.793468,0.046602,-0.002649,-0.001408,5.4,7.44,-36.66,327.0388,-2.7581,-1.0626,55.814056,37.500233,212.1205,NaN,0.0,8.0,,18 / 19,,483,2021-05-04 15:55:47:934
0.201119,0.490826,9.763853,0.181494,0.479042,9.793262,0.039883,-0.00326,-1.86E-4,5.82,7.44,-36.48,327.0388,-2.7581,-1.0626,55.814056,37.500233,212.1205,NaN,0.0,8.0,,18 / 19,,493,2021-05-04 15:55:47:944
0.201119,0.490826,9.763853,0.181494,0.479042,9.793262,0.039883,-0.00326,-1.86E-4,5.82,7.44,-36.48,327.0388,-2.7581,-1.0626,55.814056,37.500233,212.1205,NaN,0.0,8.0,,18 / 19,,503,2021-05-04 15:55:47:954
0.208302,0.538712,9.840469,0.180776,0.481312,9.793163,0.020946,0.00346,0.006533,6.0,7.14,-36.66,322.7584,-2.7999,-1.0617,55.814056,37.500233,212.1205,NaN,0.0,8.0,,18 / 19,,514,2021-05-04 15:55:47:965
0.239427,0.555472,9.924269,0.180776,0.481312,9.793163,0.017892,0.007125,-0.002019,6.0,7.14,-36.66,322.7584,-2.7999,-1.0617,55.814056,37.500233,212.1205,NaN,0.0,8.0,,18 / 19,,524,2021-05-04 15:55:47:975
0.239427,0.555472,9.924269,0.18116,0.485767,9.792936,0.027055,-0.005092,-0.00996,5.82,7.2,-37.14,322.7584,-2.7999,-1.0617,55.814056,37.500233,212.1205,NaN,0.0,8.0,,18 / 19,,533,2021-05-04 15:55:47:984
0.26337,0.61054,9.845258,0.18116,0.485767,9.792936,0.034996,-0.019142,-0.020956,5.82,7.2,-37.14,322.7584,-2.7999,-1.0617,55.814056,37.500233,212.1205,NaN,0.0,8.0,,18 / 19,,543,2021-05-04 15:55:47:994
0.184359,0.59378,9.785401,0.188447,0.497522,9.792209,0.035607,-0.019753,-0.025843,6.0,7.2,-37.32,322.842,-2.8393,-1.0598,55.814056,37.500233,212.1205,NaN,0.0,8.0,,18 / 19,,553,2021-05-04 15:55:48:004
0.148445,0.562655,9.699207,0.188447,0.497522,9.792209,0.033163,-0.013033,-0.02401,6.0,7.2,-37.32,322.842,-2.8393,-1.0598,55.814056,37.500233,212.1205,NaN,0.0,8.0,,18 / 19,,563,2021-05-04 15:55:48:014
0.153234,0.483644,9.708784,0.191755,0.510486,9.791476,0.024611,-0.006314,-0.017901,5.28,6.78,-36.54,322.842,-2.8393,-1.0598,55.814056,37.500233,212.1205,NaN,0.0,8.0,,18 / 19,,573,2021-05-04 15:55:48:024
0.153234,0.483644,9.708784,0.191755,0.510486,9.791476,0.017281,-0.008146,-0.020345,5.28,6.78,-36.54,322.842,-2.8393,-1.0598,55.814056,37.500233,212.1205,NaN,0.0,8.0,,18 / 19,,583,2021-05-04 15:55:48:034
0.093377,0.39745,9.785401,0.191161,0.516123,9.791193,0.014837,-0.017309,-0.022788,4.86,7.08,-36.3,327.2244,-2.9839,-1.1219,55.814056,37.500233,212.1205,NaN,0.0,8.0,,18 / 19,,594,2021-05-04 15:55:48:045
-0.009577,0.41421,9.888355,0.191161,0.516123,9.791193,0.018502,-0.021586,-0.014236,4.86,7.08,-36.3,327.2244,-2.9839,-1.1219,55.814056,37.500233,212.1205,NaN,0.0,8.0,,18 / 19,,604,2021-05-04 15:55:48:055
-0.009577,0.41421,9.888355,0.185536,0.514009,9.791412,0.019113,-0.014866,-0.007517,5.22,7.38,-36.72,327.2244,-2.9839,-1.1219,55.814056,37.500233,212.1205,NaN,0.0,8.0,,18 / 19,,613,2021-05-04 15:55:48:064
0.004789,0.488432,9.893144,0.185536,0.514009,9.791412,0.020335,-0.019753,0.007144,5.22,7.38,-36.72,327.2244,-2.9839,-1.1219,55.814056,37.500233,212.1205,NaN,0.0,8.0,,18 / 19,,623,2021-05-04 15:55:48:074
0.117319,0.622511,9.883567,0.173511,0.511773,9.79175,0.029498,-0.019753,0.013864,5.52,7.32,-36.84,323.0999,-3.0045,-1.0856,55.814056,37.500233,212.1205,NaN,0.0,8.0,,18 / 19,,633,2021-05-04 15:55:48:084
0.284919,0.668003,9.720756,0.173511,0.511773,9.79175,0.026444,-0.014255,0.018751,5.52,7.32,-36.84,323.0999,-3.0045,-1.0856,55.814056,37.500233,212.1205,NaN,0.0,8.0,,18 / 19,,643,2021-05-04 15:55:48:094
0.284919,0.668003,9.720756,0.166601,0.519349,9.791471,0.015448,-0.016088,0.01142,5.34,7.44,-36.78,323.0999,-3.0045,-1.0856,55.814056,37.500233,212.1205,NaN,0.0,8.0,,18 / 19,,654,2021-05-04 15:55:48:105
0.361536,0.620117,9.617802,0.166601,0.519349,9.791471,-0.007154,-0.016088,-0.002019,5.34,7.44,-36.78,323.0999,-3.0045,-1.0856,55.814056,37.500233,212.1205,NaN,0.0,8.0,,18 / 19,,663,2021-05-04 15:55:48:114
0.196331,0.486038,9.732727,0.172111,0.528453,9.790889,-0.007154,-0.016088,-0.002019,4.92,7.86,-36.36,330.4301,-3.0357,-0.9748,55.814056,37.500233,212.1205,NaN,0.0,8.0,,18 / 19,,673,2021-05-04 15:55:48:124
0.064645,0.41421,9.941029,0.172111,0.528453,9.790889,-0.021815,-0.005703,-0.006906,4.92,7.86,-36.36,330.4301,-3.0357,-0.9748,55.814056,37.500233,212.1205,NaN,0.0,8.0,,18 / 19,,684,2021-05-04 15:55:48:135
-0.069434,0.404632,10.063137,0.173656,0.525523,9.791019,-0.021815,-0.005703,-0.006906,5.4,7.56,-36.3,330.4301,-3.0357,-0.9748,55.814056,37.500233,212.1205,NaN,0.0,8.0,,18 / 19,,693,2021-05-04 15:55:48:144
-0.069434,0.404632,10.063137,0.173656,0.525523,9.791019,7.87E-4,-0.007536,4.25E-4,5.4,7.56,-36.3,330.4301,-3.0357,-0.9748,55.814056,37.500233,212.1205,NaN,0.0,8.0,,18 / 19,,703,2021-05-04 15:55:48:154
-0.062251,0.502798,10.034406,0.163198,0.521493,9.791414,0.017281,-0.015477,0.017529,5.58,7.14,-36.72,323.4168,-3.0719,-1.0161,55.814056,37.500233,212.1205,NaN,0.0,8.0,,18 / 19,,713,2021-05-04 15:55:48:164
0.208302,0.612934,9.80695,0.163198,0.521493,9.791414,0.014837,-8.16E-4,0.026692,5.58,7.14,-36.72,323.4168,-3.0719,-1.0161,55.814056,37.500233,212.1205,NaN,0.0,8.0,,18 / 19,,724,2021-05-04 15:55:48:175
0.339987,0.66082,9.771035,0.153665,0.523665,9.791452,0.002009,0.002238,0.020583,5.28,7.02,-36.54,323.4168,-3.0719,-1.0161,55.81406,37.500233,214.0579,NaN,0.0,8.0,,18 / 19,,733,2021-05-04 15:55:48:184
0.277736,0.588992,9.835681,0.153665,0.523665,9.791452,-0.008376,0.002849,0.015085,5.28,7.02,-36.54,323.4168,-3.0719,-1.0161,55.81406,37.500233,214.0579,NaN,0.0,8.0,,18 / 19,,743,2021-05-04 15:55:48:194
0.277736,0.588992,9.835681,0.155511,0.528409,9.791168,-0.009597,-0.006925,0.013253,5.82,6.9,-37.08,323.7342,-3.0887,-0.9099,55.81406,37.500233,214.0579,NaN,0.0,8.0,,18 / 19,,754,2021-05-04 15:55:48:205
0.308861,0.553077,9.90272,0.155511,0.528409,9.791168,-0.0041,-0.008146,0.010198,5.82,6.9,-37.08,323.7342,-3.0887,-0.9099,55.81406,37.500233,214.0579,NaN,0.0,8.0,,18 / 19,,763,2021-05-04 15:55:48:214
0.301679,0.581809,9.907509,0.16638,0.533084,9.790736,0.006896,-0.016699,-1.86E-4,5.4,6.78,-37.14,323.7342,-3.0887,-0.9099,55.81406,37.500233,214.0579,NaN,0.0,8.0,,18 / 19,,773,2021-05-04 15:55:48:224
0.184359,0.574626,9.852441,0.16638,0.533084,9.790736,0.019113,-0.020975,0.00409,5.4,6.78,-37.14,323.7342,-3.0887,-0.9099,55.81406,37.500233,214.0579,NaN,0.0,8.0,,18 / 19,,784,2021-05-04 15:55:48:235
0.177176,0.56026,9.783007,0.178899,0.540989,9.790082,0.014226,-0.02464,0.009588,5.1,6.72,-36.6,327.9698,-3.1161,-0.9736,55.81406,37.500233,214.0579,NaN,0.0,8.0,,18 / 19,,793,2021-05-04 15:55:48:244
0.177176,0.56026,9.783007,0.178899,0.540989,9.790082,0.003231,-0.014866,0.012031,5.1,6.72,-36.6,327.9698,-3.1161,-0.9736,55.81406,37.500233,214.0579,NaN,0.0,8.0,,18 / 19,,803,2021-05-04 15:55:48:254
0.225062,0.565049,9.787795,0.187227,0.546167,9.789639,-0.010208,-0.004481,0.010198,5.82,6.66,-36.72,327.9698,-3.1161,-0.9736,55.81406,37.500233,214.0579,NaN,0.0,8.0,,18 / 19,,813,2021-05-04 15:55:48:264
0.21309,0.495615,9.809344,0.187227,0.546167,9.789639,-0.022425,-0.007536,0.014474,5.82,6.66,-36.72,327.9698,-3.1161,-0.9736,55.81406,37.500233,214.0579,NaN,0.0,8.0,,18 / 19,,823,2021-05-04 15:55:48:274
0.21309,0.495615,9.809344,0.192683,0.543884,9.78966,-0.022425,-8.16E-4,0.019972,5.52,6.72,-37.02,323.439,-3.1927,-1.0957,55.81406,37.500233,214.0579,NaN,0.0,8.0,,18 / 19,,834,2021-05-04 15:55:48:285
0.373507,0.521952,9.933846,0.192683,0.543884,9.78966,-0.00471,-8.16E-4,0.007755,5.52,6.72,-37.02,323.439,-3.1927,-1.0957,55.81406,37.500233,214.0579,NaN,0.0,8.0,,18 / 19,,843,2021-05-04 15:55:48:294
0.423787,0.584203,9.881172,0.202976,0.541452,9.789587,-0.00471,-8.16E-4,0.007755,4.86,6.6,-37.02,323.439,-3.1927,-1.0957,55.81406,37.500233,214.0579,NaN,0.0,8.0,,18 / 19,,853,2021-05-04 15:55:48:304
0.28013,0.586597,9.876384,0.202976,0.541452,9.789587,0.00934,-0.017309,-0.004462,4.86,6.6,-37.02,323.439,-3.1927,-1.0957,55.81406,37.500233,214.0579,NaN,0.0,8.0,,18 / 19,,864,2021-05-04 15:55:48:315
0.205908,0.574626,9.75667,0.220417,0.546665,9.78892,0.023389,-0.029527,-0.012404,4.8,6.48,-36.6,324.3116,-3.1651,-1.1878,55.81406,37.500233,214.0579,NaN,0.0,8.0,,18 / 19,,873,2021-05-04 15:55:48:324
0.205908,0.574626,9.75667,0.220417,0.546665,9.78892,0.023389,-0.036857,-0.017901,4.8,6.48,-36.6,324.3116,-3.1651,-1.1878,55.81406,37.500233,214.0579,NaN,0.0,8.0,,18 / 19,,883,2021-05-04 15:55:48:334
0.090982,0.529135,9.715967,0.23216,0.552652,9.788313,0.00262,-0.025251,-0.00996,4.86,7.08,-36.42,324.3116,-3.1651,-1.1878,55.81406,37.500233,214.0579,NaN,0.0,8.0,,18 / 19,,893,2021-05-04 15:55:48:344
0.06704,0.509981,9.730332,0.23216,0.552652,9.788313,-0.003489,-0.006925,0.01142,4.86,7.08,-36.42,324.3116,-3.1651,-1.1878,55.81406,37.500233,214.0579,NaN,0.0,8.0,,18 / 19,,903,2021-05-04 15:55:48:354
0.172388,0.519558,9.754275,0.228223,0.551521,9.788469,-0.012652,-0.00387,0.023027,4.62,7.5,-36.54,329.7241,-3.2306,-1.3587,55.81406,37.500233,214.0579,NaN,0.0,8.0,,18 / 19,,913,2021-05-04 15:55:48:364
0.172388,0.519558,9.754275,0.228223,0.551521,9.788469,-0.01876,-0.001427,0.023637,4.62,7.5,-36.54,329.7241,-3.2306,-1.3587,55.81406,37.500233,214.0579,NaN,0.0,8.0,,18 / 19,,923,2021-05-04 15:55:48:374
0.284919,0.529135,9.996098,0.222748,0.547009,9.788849,-0.019982,0.019342,0.023027,4.98,7.32,-36.96,329.7241,-3.2306,-1.3587,55.81406,37.500233,214.0579,NaN,0.0,8.0,,18 / 19,,933,2021-05-04 15:55:48:384
0.294496,0.514769,10.032011,0.222748,0.547009,9.788849,-0.005321,0.022397,0.021194,4.98,7.32,-36.96,329.7241,-3.2306,-1.3587,55.81406,37.500233,214.0579,NaN,0.0,8.0,,18 / 19,,943,2021-05-04 15:55:48:394
0.349564,0.598569,10.043983,0.219093,0.543178,9.789145,0.020946,-0.002038,0.008366,5.4,6.9,-36.54,327.1524,-3.1976,-1.3036,55.81406,37.500233,214.0579,NaN,0.0,8.0,,18 / 19,,953,2021-05-04 15:55:48:404
0.349564,0.598569,10.043983,0.219093,0.543178,9.789145,0.036218,-0.013644,-0.00263,5.4,6.9,-36.54,327.1524,-3.1976,-1.3036,55.81406,37.500233,214.0579,NaN,0.0,8.0,,18 / 19,,963,2021-05-04 15:55:48:414
0.268159,0.651243,9.984126,0.226538,0.549035,9.788648,0.049046,-0.019753,-0.006906,5.1,6.36,-36.6,327.1524,-3.1976,-1.3036,55.81406,37.500233,214.0579,NaN,0.0,8.0,,18 / 19,,974,2021-05-04 15:55:48:425
0.244216,0.608146,9.847652,0.226538,0.549035,9.788648,0.046602,-0.024029,-0.008128,5.1,6.36,-36.6,327.1524,-3.1976,-1.3036,55.81406,37.500233,214.0579,NaN,0.0,8.0,,18 / 19,,983,2021-05-04 15:55:48:434
0.160416,0.579415,9.821315,0.234177,0.56017,9.787837,0.047213,-0.027083,-0.00263,4.92,6.78,-36.36,327.0514,-3.2094,-1.3258,55.81406,37.500233,214.0579,NaN,0.0,8.0,,18 / 19,,993,2021-05-04 15:55:48:444
0.079011,0.519558,9.802161,0.234177,0.56017,9.787837,0.037439,-0.009368,0.012642,4.92,6.78,-36.36,327.0514,-3.2094,-1.3258,55.81406,37.500233,214.0579,NaN,0.0,8.0,,18 / 19,,1004,2021-05-04 15:55:48:455
0.079011,0.519558,9.802161,0.233723,0.567927,9.7874,0.013616,0.004682,0.027303,5.46,7.32,-35.46,327.0514,-3.2094,-1.3258,55.81406,37.500233,214.0579,NaN,0.0,8.0,,18 / 19,,1013,2021-05-04 15:55:48:464
0.102954,0.423787,9.780613,0.233723,0.567927,9.7874,0.005674,0.008958,0.0328,5.46,7.32,-35.46,327.0514,-3.2094,-1.3258,55.81406,37.500233,214.0579,NaN,0.0,8.0,,18 / 19,,1023,2021-05-04 15:55:48:474
0.191542,0.478855,9.943423,0.223636,0.563885,9.78787,0.008729,0.01079,0.028524,5.7,7.14,-35.82,322.8899,-3.32,-1.368,55.81406,37.500233,214.0579,NaN,0.0,8.0,,18 / 19,,1033,2021-05-04 15:55:48:484
0.181965,0.533923,10.072714,0.223636,0.563885,9.78787,0.025833,0.010179,0.03219,5.7,7.14,-35.82,322.8899,-3.32,-1.368,55.81406,37.500233,214.0579,NaN,0.0,8.0,,18 / 19,,1043,2021-05-04 15:55:48:494
0.31365,0.605752,10.063137,0.214163,0.558589,9.788385,0.044159,-0.009368,0.03219,4.86,6.72,-35.58,322.8899,-3.32,-1.368,55.81406,37.500233,214.0579,NaN,0.0,8.0,,18 / 19,,1053,2021-05-04 15:55:48:504
0.31365,0.605752,10.063137,0.214163,0.558589,9.788385,0.055765,-0.014866,0.019361,4.86,6.72,-35.58,322.8899,-3.32,-1.368,55.81406,37.500233,214.0579,NaN,0.0,8.0,,18 / 19,,1063,2021-05-04 15:55:48:514
0.407027,0.639271,9.996098,0.216689,0.563539,9.788047,0.066761,-0.020364,0.01142,4.38,6.66,-35.76,332.0832,-3.2653,-1.2534,55.81406,37.500233,214.0579,NaN,0.0,8.0,,18 / 19,,1073,2021-05-04 15:55:48:524
0.390267,0.64406,9.917087,0.216689,0.563539,9.788047,0.07287,-0.027083,0.001035,4.38,6.66,-35.76,332.0832,-3.2653,-1.2534,55.81406,37.500233,214.0579,NaN,0.0,8.0,,18 / 19,,1083,2021-05-04 15:55:48:534
0.399844,0.646454,9.838076,0.230183,0.575891,9.78702,0.067372,-0.021586,-0.00996,4.56,6.78,-36.72,332.0832,-3.2653,-1.2534,55.81406,37.500233,214.0579,NaN,0.0,8.0,,18 / 19,,1093,2021-05-04 15:55:48:544
0.31365,0.632089,9.909904,0.230183,0.575891,9.78702,0.067983,-0.013033,-0.013014,4.56,6.78,-36.72,332.0832,-3.2653,-1.2534,55.81406,37.500233,214.0579,NaN,0.0,8.0,,18 / 19,,1103,2021-05-04 15:55:48:554
0.31365,0.632089,9.909904,0.246339,0.588547,9.785873,0.070426,-2.05E-4,-0.010571,4.92,6.84,-36.96,327.3341,-3.3666,-1.3473,55.81406,37.500233,214.0579,NaN,0.0,8.0,,18 / 19,,1113,2021-05-04 15:55:48:564
0.169994,0.663214,9.821315,0.246339,0.588547,9.785873,0.069815,-0.002038,-0.004462,4.92,6.84,-36.96,327.3341,-3.3666,-1.3473,55.81406,37.500233,214.0579,NaN,0.0,8.0,,18 / 19,,1123,2021-05-04 15:55:48:574
0.098165,0.648849,9.677659,0.251043,0.602895,9.784881,0.062485,-0.00326,0.00409,4.8,7.02,-37.08,327.3341,-3.3666,-1.3473,55.81406,37.500233,214.0579,NaN,0.0,8.0,,18 / 19,,1133,2021-05-04 15:55:48:584
0.179571,0.67758,9.613013,0.251043,0.602895,9.784881,0.048435,-0.005703,0.008366,4.8,7.02,-37.08,327.3341,-3.3666,-1.3473,55.81406,37.500233,214.0579,NaN,0.0,8.0,,18 / 19,,1143,2021-05-04 15:55:48:594
0.265765,0.691945,9.668081,0.248887,0.615869,9.784127,0.048435,-0.005703,0.008366,4.5,6.78,-36.9,327.2688,-3.5247,-1.4697,55.81406,37.500233,214.0579,NaN,0.0,8.0,,18 / 19,,1153,2021-05-04 15:55:48:604
0.265765,0.691945,9.668081,0.248887,0.615869,9.784127,0.03072,-0.001427,0.010809,4.5,6.78,-36.9,327.2688,-3.5247,-1.4697,55.81406,37.500233,214.0579,NaN,0.0,8.0,,18 / 19,,1163,2021-05-04 15:55:48:614
0.292102,0.706311,9.703996,0.248784,0.625844,9.783497,0.021557,-0.014866,0.001646,4.74,6.42,-36.12,327.2688,-3.5247,-1.4697,55.81406,37.500233,214.0579,NaN,0.0,8.0,,18 / 19,,1173,2021-05-04 15:55:48:624
0.337593,0.715888,9.720756,0.248784,0.625844,9.783497,0.016059,-0.018531,-0.002019,4.74,6.42,-36.12,327.2688,-3.5247,-1.4697,55.81406,37.500233,214.0579,NaN,0.0,8.0,,18 / 19,,1183,2021-05-04 15:55:48:634
0.241822,0.723071,9.826104,0.254708,0.635587,9.782717,0.008729,-0.013033,-0.003852,4.86,6.48,-36.12,324.4539,-3.659,-1.4567,55.81406,37.500233,214.0579,NaN,0.0,8.0,,18 / 19,,1194,2021-05-04 15:55:48:645
0.392661,0.689551,9.75667,0.254708,0.635587,9.782717,0.011172,-0.013033,0.002257,4.86,6.48,-36.12,324.4539,-3.659,-1.4567,55.81406,37.500233,214.0579,NaN,0.0,8.0,,18 / 19,,1203,2021-05-04 15:55:48:654
0.392661,0.689551,9.75667,0.261244,0.644707,9.781947,-0.001045,-0.014255,-0.010571,4.74,6.66,-37.14,324.4539,-3.659,-1.4567,55.81406,37.500233,214.0579,NaN,0.0,8.0,,18 / 19,,1213,2021-05-04 15:55:48:664
0.402238,0.624906,9.869201,0.261244,0.644707,9.781947,-0.005321,0.004071,-0.019123,4.74,6.66,-37.14,324.4539,-3.659,-1.4567,55.81406,37.500233,214.0579,NaN,0.0,8.0,,18 / 19,,1223,2021-05-04 15:55:48:674
0.294496,0.541106,9.945818,0.270556,0.647748,9.781493,-0.005321,0.012012,-0.014236,4.68,6.78,-37.26,327.5318,-3.7694,-1.5298,55.81406,37.500233,214.0579,NaN,0.0,8.0,,18 / 19,,1234,2021-05-04 15:55:48:685
0.29689,0.514769,10.05356,0.270556,0.647748,9.781493,0.008118,0.005903,-0.013014,4.68,6.78,-37.26,327.5318,-3.7694,-1.5298,55.81406,37.500233,214.0579,NaN,0.0,8.0,,18 / 19,,1243,2021-05-04 15:55:48:694
0.21309,0.562655,10.146936,0.275124,0.644282,9.781594,0.031331,0.001627,-0.012404,4.92,6.54,-36.54,327.5318,-3.7694,-1.5298,55.81406,37.500233,214.0579,NaN,0.0,8.0,,18 / 19,,1253,2021-05-04 15:55:48:704
0.150839,0.608146,10.012857,0.275124,0.644282,9.781594,0.049046,0.007125,-0.003241,4.92,6.54,-36.54,327.5318,-3.7694,-1.5298,55.81406,37.500233,214.0579,NaN,0.0,8.0,,18 / 19,,1263,2021-05-04 15:55:48:714
0.150839,0.608146,10.012857,0.273918,0.643902,9.781653,0.051489,0.007125,0.006533,5.1,6.42,-36.3,324.2283,-3.767,-1.6111,55.81406,37.500233,214.0579,NaN,0.0,8.0,,18 / 19,,1275,2021-05-04 15:55:48:726
0.220273,0.687157,9.850046,0.273918,0.643902,9.781653,0.052711,0.007125,0.01142,5.1,6.42,-36.3,324.2283,-3.767,-1.6111,55.81406,37.500233,214.0579,NaN,0.0,8.0,,18 / 19,,1283,2021-05-04 15:55:48:734
0.294496,0.74462,9.744699,0.268581,0.6475,9.781564,0.049046,0.007125,0.010198,5.16,6.6,-37.02,324.2283,-3.767,-1.6111,55.81406,37.500233,214.0579,NaN,0.0,8.0,,18 / 19,,1293,2021-05-04 15:55:48:744
0.402238,0.811659,9.613013,0.268581,0.6475,9.781564,0.041105,0.013234,-0.001408,5.16,6.6,-37.02,324.2283,-3.767,-1.6111,55.81406,37.500233,214.0579,NaN,0.0,8.0,,18 / 19,,1304,2021-05-04 15:55:48:755
0.416604,0.768562,9.601042,0.267932,0.657639,9.780906,0.028887,0.002849,-0.013014,5.22,6.9,-36.72,327.4398,-3.7858,-1.5728,55.81406,37.500233,214.0579,NaN,0.0,8.0,,18 / 19,,1313,2021-05-04 15:55:48:764
0.416604,0.768562,9.601042,0.267932,0.657639,9.780906,0.017892,-0.004481,-0.019734,5.22,6.9,-36.72,327.4398,-3.7858,-1.5728,55.81406,37.500233,214.0579,NaN,0.0,8.0,,18 / 19,,1324,2021-05-04 15:55:48:775
0.289707,0.679974,9.632168,0.275703,0.667898,9.779994,0.004453,-0.002649,-0.017901,5.04,6.78,-36.0,327.4398,-3.7858,-1.5728,55.81406,37.500233,214.0579,NaN,0.0,8.0,,18 / 19,,1334,2021-05-04 15:55:48:785
0.201119,0.632089,9.852441,0.275703,0.667898,9.779994,0.007507,0.002849,-0.013625,5.04,6.78,-36.0,327.4398,-3.7858,-1.5728,55.81406,37.500233,214.0579,NaN,0.0,8.0,,18 / 19,,1344,2021-05-04 15:55:48:795
0.117319,0.653637,9.91948,0.279047,0.670258,9.779738,0.020946,-0.005092,-0.010571,5.76,6.18,-36.42,320.231,-3.9052,-1.6148,55.81406,37.500233,214.0579,NaN,0.0,8.0,,18 / 19,,1354,2021-05-04 15:55:48:805
0.117319,0.653637,9.91948,0.279047,0.670258,9.779738,0.020946,-0.005092,-0.010571,5.76,6.18,-36.42,320.231,-3.9052,-1.6148,55.81406,37.500233,214.0579,NaN,0.0,8.0,,18 / 19,,1363,2021-05-04 15:55:48:814
0.153234,0.69434,9.840469,0.273923,0.674118,9.779617,0.023389,-0.00326,0.005922,5.52,6.54,-36.42,320.231,-3.9052,-1.6148,55.81406,37.500233,214.0579,NaN,0.0,8.0,,18 / 19,,1374,2021-05-04 15:55:48:825
0.232245,0.730254,9.75667,0.273923,0.674118,9.779617,0.018502,0.004682,0.006533,5.52,6.54,-36.42,320.231,-3.9052,-1.6148,55.81406,37.500233,214.0579,NaN,0.0,8.0,,18 / 19,,1383,2021-05-04 15:55:48:834
0.26337,0.749408,9.885961,0.266469,0.678621,9.779512,0.007507,0.006514,0.005311,4.62,7.38,-36.66,327.6223,-3.9417,-1.6044,55.81406,37.500233,214.0579,NaN,0.0,8.0,,18 / 19,,1393,2021-05-04 15:55:48:844
0.260976,0.725465,9.921875,0.266469,0.678621,9.779512,0.007507,0.010179,0.005922,4.62,7.38,-36.66,327.6223,-3.9417,-1.6044,55.81406,37.500233,214.0579,NaN,0.0,8.0,,18 / 19,,1403,2021-05-04 15:55:48:854
0.260976,0.725465,9.921875,0.260491,0.683795,9.779313,0.011172,0.015066,0.008366,4.92,6.54,-36.54,327.6223,-3.9417,-1.6044,55.81406,37.500233,214.0579,NaN,0.0,8.0,,18 / 19,,1413,2021-05-04 15:55:48:864
0.294496,0.701523,9.885961,0.260491,0.683795,9.779313,0.027665,0.00346,0.00409,4.92,6.54,-36.54,327.6223,-3.9417,-1.6044,55.81406,37.500233,214.0579,NaN,0.0,8.0,,18 / 19,,1424,2021-05-04 15:55:48:875
0.260976,0.7111,9.799767,0.257827,0.690405,9.778918,0.029498,-0.002649,-0.003241,5.04,5.58,-36.06,324.9309,-3.9983,-1.5258,55.81406,37.500233,214.0579,NaN,0.0,8.0,,18 / 19,,1433,2021-05-04 15:55:48:884
0.198725,0.687157,9.701602,0.257827,0.690405,9.778918,0.026444,4.06E-4,-0.00263,5.04,5.58,-36.06,324.9309,-3.9983,-1.5258,55.81406,37.500233,214.0579,NaN,0.0,8.0,,18 / 19,,1444,2021-05-04 15:55:48:895
0.177176,0.732648,9.653716,0.255841,0.696769,9.77852,0.00934,0.006514,4.25E-4,4.62,6.06,-36.24,324.9309,-3.9983,-1.5258,55.81406,37.500233,214.0579,NaN,0.0,8.0,,18 / 19,,1454,2021-05-04 15:55:48:905
0.177176,0.732648,9.653716,0.255841,0.696769,9.77852,-0.007765,0.00346,0.006533,4.62,6.06,-36.24,324.9309,-3.9983,-1.5258,55.81406,37.500233,214.0579,NaN,0.0,8.0,,18 / 19,,1464,2021-05-04 15:55:48:915
0.265765,0.74462,9.703996,0.251134,0.698529,9.778516,-0.014484,0.002238,0.012642,5.22,6.66,-36.36,328.0655,-4.0743,-1.4987,55.81406,37.500233,214.0579,NaN,0.0,8.0,,18 / 19,,1474,2021-05-04 15:55:48:925
0.36393,0.758985,9.794978,0.251134,0.698529,9.778516,-0.01143,-0.004481,0.003479,5.22,6.66,-36.36,328.0655,-4.0743,-1.4987,55.81406,37.500233,214.0579,NaN,0.0,8.0,,18 / 19,,1484,2021-05-04 15:55:48:935
0.390267,0.742225,9.866806,0.2547,0.701613,9.778203,-0.007765,-0.009368,-0.010571,5.82,6.48,-36.36,328.0655,-4.0743,-1.4987,55.81406,37.500233,214.0579,NaN,0.0,8.0,,18 / 19,,1494,2021-05-04 15:55:48:945
0.258582,0.665608,9.938635,0.2547,0.701613,9.778203,7.87E-4,-0.013644,-0.014847,5.82,6.48,-36.36,328.0655,-4.0743,-1.4987,55.81406,37.500233,214.0579,NaN,0.0,8.0,,18 / 19,,1503,2021-05-04 15:55:48:954
0.258582,0.665608,9.938635,0.263645,0.704829,9.777735,0.011172,-0.011812,-0.010571,5.04,6.3,-36.6,325.3364,-4.1027,-1.4921,55.81406,37.500233,214.0579,NaN,0.0,8.0,,18 / 19,,1514,2021-05-04 15:55:48:965
0.158022,0.651243,9.912297,0.263645,0.704829,9.777735,0.007507,-0.017309,-0.002019,5.04,6.3,-36.6,325.3364,-4.1027,-1.4921,55.81406,37.500233,214.0579,NaN,0.0,8.0,,18 / 19,,1524,2021-05-04 15:55:48:975
0.217879,0.701523,9.883567,0.265695,0.706436,9.777563,0.006896,-0.01792,-0.001408,4.44,6.3,-36.96,325.3364,-4.1027,-1.4921,55.81406,37.500233,214.0579,NaN,0.0,8.0,,18 / 19,,1533,2021-05-04 15:55:48:984
0.217879,0.706311,9.912297,0.265695,0.706436,9.777563,0.010561,-0.012423,0.006533,4.44,6.3,-36.96,325.3364,-4.1027,-1.4921,55.81406,37.500233,214.0579,NaN,0.0,8.0,,18 / 19,,1543,2021-05-04 15:55:48:994
0.275342,0.780534,9.897932,0.264714,0.706902,9.777556,0.012394,-0.007536,0.010198,4.32,6.96,-37.02,332.5647,-4.131,-1.5566,55.81406,37.500233,214.0579,NaN,0.0,8.0,,18 / 19,,1553,2021-05-04 15:55:49:004
0.275342,0.780534,9.897932,0.264714,0.706902,9.777556,0.012394,-0.007536,0.010198,4.32,6.96,-37.02,332.5647,-4.131,-1.5566,55.81406,37.500233,214.0579,NaN,0.0,8.0,,18 / 19,,1563,2021-05-04 15:55:49:014
0.301679,0.758985,9.850046,0.264714,0.706902,9.777556,0.012394,0.002849,0.006533,4.32,6.96,-37.02,332.5647,-4.131,-1.5566,55.81406,37.500233,214.0579,NaN,0.0,8.0,,18 / 19,,1573,2021-05-04 15:55:49:024
0.320833,0.770957,9.72315,0.263327,0.710083,9.777363,0.00995,-0.001427,0.004701,4.8,7.14,-36.72,332.5647,-4.131,-1.5566,55.81406,37.500233,214.0579,NaN,0.0,8.0,,18 / 19,,1583,2021-05-04 15:55:49:034
0.272947,0.747014,9.689631,0.264832,0.715541,9.776924,0.002009,-0.00326,-0.008738,5.1,6.48,-36.84,325.2868,-4.1523,-1.5427,55.81406,37.500233,214.0579,NaN,0.0,8.0,,18 / 19,,1593,2021-05-04 15:55:49:044
0.272947,0.747014,9.689631,0.264832,0.715541,9.776924,-0.012652,-0.002038,-0.012404,5.1,6.48,-36.84,325.2868,-4.1523,-1.5427,55.81406,37.500233,214.0579,NaN,0.0,8.0,,18 / 19,,1604,2021-05-04 15:55:49:055
0.22985,0.706311,9.888355,0.266279,0.717364,9.776752,-0.019371,0.004071,-0.009349,4.74,6.66,-36.6,325.2868,-4.1523,-1.5427,55.81406,37.500233,214.0579,NaN,0.0,8.0,,18 / 19,,1613,2021-05-04 15:55:49:064
0.232245,0.74462,9.998491,0.266279,0.717364,9.776752,-0.00471,-0.00326,-0.003852,4.74,6.66,-36.6,325.2868,-4.1523,-1.5427,55.81406,37.500233,214.0579,NaN,0.0,8.0,,18 / 19,,1623,2021-05-04 15:55:49:074
0.272947,0.766168,9.979338,0.265902,0.719742,9.776587,0.018502,-0.015477,-0.005684,4.86,7.26,-36.54,328.1761,-4.195,-1.5601,55.81406,37.500233,214.0579,NaN,0.0,8.0,,18 / 19,,1633,2021-05-04 15:55:49:084
0.275342,0.794899,9.929058,0.265902,0.719742,9.776587,0.031331,-0.026472,-0.008738,4.86,7.26,-36.54,328.1761,-4.195,-1.5601,55.81406,37.500233,214.0579,NaN,0.0,8.0,,18 / 19,,1644,2021-05-04 15:55:49:095
0.275342,0.794899,9.929058,0.269109,0.728565,9.775846,0.03805,-0.021586,-0.008738,5.46,7.2,-36.72,328.1761,-4.195,-1.5601,55.81406,37.500233,214.0579,NaN,0.0,8.0,,18 / 19,,1654,2021-05-04 15:55:49:105
0.244216,0.756591,9.768641,0.269768,0.733976,9.775423,0.032552,-0.013033,-0.00263,6.12,7.08,-36.24,328.1761,-4.195,-1.5601,55.81406,37.500233,214.0579,NaN,0.0,8.0,,18 / 19,,1665,2021-05-04 15:55:49:116
0.342381,0.747014,9.675264,0.269768,0.733976,9.775423,0.004453,0.006514,-0.006295,6.12,7.08,-36.24,328.1761,-4.195,-1.5601,55.81406,37.500233,214.0579,NaN,0.0,8.0,,18 / 19,,1673,2021-05-04 15:55:49:124
0.342381,0.747014,9.675264,0.269607,0.739381,9.77502,-0.00471,0.01751,-0.003852,6.12,6.48,-35.64,321.1011,-4.2923,-1.5808,55.81406,37.500233,214.0579,NaN,0.0,8.0,,18 / 19,,1683,2021-05-04 15:55:49:134
0.318439,0.749408,9.775824,0.269607,0.739381,9.77502,-0.006543,0.013234,-0.008738,6.12,6.48,-35.64,321.1011,-4.2923,-1.5808,55.81406,37.500233,214.0579,NaN,0.0,8.0,,18 / 19,,1693,2021-05-04 15:55:49:144
0.368718,0.768562,9.783007,0.269928,0.739964,9.774967,-0.006543,0.013234,-0.008738,5.94,6.42,-35.64,321.1011,-4.2923,-1.5808,55.81406,37.500233,214.0579,NaN,0.0,8.0,,18 / 19,,1704,2021-05-04 15:55:49:155
0.294496,0.797294,9.890749,0.269928,0.739964,9.774967,-0.0041,0.005903,-0.018512,5.94,6.42,-35.64,321.1011,-4.2923,-1.5808,55.81406,37.500233,214.0579,NaN,0.0,8.0,,18 / 19,,1713,2021-05-04 15:55:49:164
0.201119,0.799688,9.90272,0.274839,0.742338,9.77465,-4.34E-4,0.005293,-0.017291,5.82,6.9,-35.88,324.1692,-4.3274,-1.5818,55.81406,37.500233,214.0579,NaN,0.0,8.0,,18 / 19,,1723,2021-05-04 15:55:49:174
0.201119,0.799688,9.90272,0.274839,0.742338,9.77465,1.77E-4,0.002849,-0.013014,5.82,6.9,-35.88,324.1692,-4.3274,-1.5818,55.81406,37.500233,214.0579,NaN,0.0,8.0,,18 / 19,,1733,2021-05-04 15:55:49:184
0.150839,0.835602,9.897932,0.27372,0.746729,9.774347,0.007507,0.006514,-7.97E-4,5.1,6.24,-36.42,324.1692,-4.3274,-1.5818,55.81406,37.500233,214.0579,NaN,0.0,8.0,,18 / 19,,1743,2021-05-04 15:55:49:194
0.232245,0.778139,9.794978,0.27372,0.746729,9.774347,0.007507,-0.001427,0.004701,5.1,6.24,-36.42,324.1692,-4.3274,-1.5818,55.81406,37.500233,214.0579,NaN,0.0,8.0,,18 / 19,,1753,2021-05-04 15:55:49:204
0.328016,0.725465,9.766247,0.268458,0.752302,9.774066,0.003231,0.005903,-7.97E-4,4.92,6.24,-36.42,325.419,-4.367,-1.6041,55.81406,37.500233,214.0579,NaN,0.0,8.0,,18 / 19,,1763,2021-05-04 15:55:49:214
0.275342,0.687157,9.778218,0.268458,0.752302,9.774066,-0.003489,0.008958,-0.017901,4.92,6.24,-36.42,325.419,-4.367,-1.6041,55.81406,37.500233,214.0579,NaN,0.0,8.0,,18 / 19,,1773,2021-05-04 15:55:49:224
0.275342,0.687157,9.778218,0.266447,0.751834,9.774157,-0.007154,0.011401,-0.019734,4.98,6.18,-36.54,325.419,-4.367,-1.6041,55.81406,37.500233,214.0579,NaN,0.0,8.0,,18 / 19,,1784,2021-05-04 15:55:49:235
0.234639,0.675186,9.79019,0.266447,0.751834,9.774157,-0.014484,0.011401,-0.012404,4.98,6.18,-36.54,325.419,-4.367,-1.6041,55.81406,37.500233,214.0579,NaN,0.0,8.0,,18 / 19,,1793,2021-05-04 15:55:49:244
0.253793,0.732648,9.881172,0.26331,0.745959,9.774692,-0.01143,0.008958,-0.008738,4.68,5.82,-36.9,325.7073,-4.3969,-1.5615,55.81406,37.500233,214.0579,NaN,0.0,8.0,,18 / 19,,1803,2021-05-04 15:55:49:254
0.241822,0.780534,9.948212,0.26331,0.745959,9.774692,0.00262,-2.05E-4,-0.008128,4.68,5.82,-36.9,325.7073,-4.3969,-1.5615,55.81406,37.500233,214.0579,NaN,0.0,8.0,,18 / 19,,1813,2021-05-04 15:55:49:264
0.167599,0.797294,9.876384,0.261161,0.743013,9.774974,0.019724,-0.00326,0.001035,5.22,5.7,-37.32,325.7073,-4.3969,-1.5615,55.81406,37.500233,214.0579,NaN,0.0,8.0,,18 / 19,,1824,2021-05-04 15:55:49:275
0.220273,0.814053,9.70639,0.261161,0.743013,9.774974,0.013616,-0.012423,0.003479,5.22,5.7,-37.32,325.7073,-4.3969,-1.5615,55.81406,37.500233,214.0579,NaN,0.0,8.0,,18 / 19,,1833,2021-05-04 15:55:49:284
0.220273,0.814053,9.70639,0.257906,0.747227,9.774738,-0.00471,-0.011201,0.001035,5.28,5.94,-36.24,325.5857,-4.3452,-1.5304,55.81406,37.500233,214.0579,NaN,0.0,8.0,,18 / 19,,1844,2021-05-04 15:55:49:295
0.292102,0.763774,9.694419,0.257906,0.747227,9.774738,-0.016928,-0.004481,0.005311,5.28,5.94,-36.24,325.5857,-4.3452,-1.5304,55.81406,37.500233,214.0579,NaN,0.0,8.0,,18 / 19,,1853,2021-05-04 15:55:49:304
0.447729,0.737437,9.816526,0.25726,0.748261,9.774677,-0.01876,0.002238,-0.002019,4.86,6.0,-35.22,325.5857,-4.3452,-1.5304,55.81406,37.500233,214.0579,NaN,0.0,8.0,,18 / 19,,1864,2021-05-04 15:55:49:315
0.447729,0.682368,9.873989,0.25726,0.748261,9.774677,-0.014484,0.005903,-0.01668,4.86,6.0,-35.22,325.5857,-4.3452,-1.5304,55.81406,37.500233,214.0579,NaN,0.0,8.0,,18 / 19,,1873,2021-05-04 15:55:49:324
0.447729,0.682368,9.873989,0.265046,0.745999,9.774642,-0.007154,0.001016,-0.02401,4.86,5.7,-36.06,325.7083,-4.376,-1.5076,55.81406,37.500233,214.0579,NaN,0.0,8.0,,18 / 19,,1884,2021-05-04 15:55:49:335
0.344776,0.7111,9.998491,0.270553,0.743747,9.774663,0.006896,0.001627,-0.025232,4.86,6.12,-36.24,325.7083,-4.376,-1.5076,55.81406,37.500233,214.0579,NaN,0.0,8.0,,18 / 19,,1894,2021-05-04 15:55:49:345
0.215485,0.720677,9.950606,0.270553,0.743747,9.774663,0.006896,0.001627,-0.025232,4.86,6.12,-36.24,325.7083,-4.376,-1.5076,55.81406,37.500233,214.0579,NaN,0.0,8.0,,18 / 19,,1903,2021-05-04 15:55:49:354
0.079011,0.742225,9.859624,0.276432,0.743054,9.77455,0.023389,-8.16E-4,-0.02401,5.28,6.12,-36.36,325.7083,-4.376,-1.5076,55.81406,37.500233,214.0579,NaN,0.0,8.0,,18 / 19,,1914,2021-05-04 15:55:49:365
-0.05028,0.696734,9.708784,0.276432,0.743054,9.77455,0.025833,0.006514,-0.011793,5.28,6.12,-36.36,325.7083,-4.376,-1.5076,55.81406,37.500233,214.0579,NaN,0.0,8.0,,18 / 19,,1924,2021-05-04 15:55:49:375
-0.05028,0.696734,9.708784,0.265423,0.743074,9.774855,0.008118,0.015677,0.005922,5.34,5.52,-36.24,325.3336,-4.3455,-1.6199,55.81406,37.500233,214.0579,NaN,0.0,8.0,,18 / 19,,1934,2021-05-04 15:55:49:385
0.059857,0.718282,9.646533,0.254705,0.740431,9.77534,-0.018149,0.028505,0.023027,5.1,5.64,-36.3,325.3336,-4.3455,-1.6199,55.81406,37.500233,214.0579,NaN,0.0,8.0,,18 / 19,,1944,2021-05-04 15:55:49:395
0.31365,0.794899,9.672871,0.254705,0.740431,9.77534,-0.028534,0.023618,0.019972,5.1,5.64,-36.3,325.3336,-4.3455,-1.6199,55.81406,37.500233,214.0579,NaN,0.0,8.0,,18 / 19,,1953,2021-05-04 15:55:49:404
0.433364,0.780534,9.696813,0.241063,0.734801,9.776111,-0.030978,0.006514,0.001646,5.4,6.18,-36.36,325.3336,-4.3455,-1.6199,55.81406,37.500233,214.0579,NaN,0.0,8.0,,18 / 19,,1963,2021-05-04 15:55:49:414
0.457306,0.732648,9.811738,0.241063,0.734801,9.776111,-0.030367,-0.013033,-0.018512,5.4,6.18,-36.36,325.3336,-4.3455,-1.6199,55.81406,37.500233,214.0579,NaN,0.0,8.0,,18 / 19,,1974,2021-05-04 15:55:49:425
0.457306,0.732648,9.811738,0.248162,0.731757,9.776161,-0.022425,-0.006925,-0.023399,5.1,6.36,-36.24,325.8297,-4.2971,-1.4125,55.81406,37.500233,214.0579,NaN,0.0,8.0,,18 / 19,,1983,2021-05-04 15:55:49:434
0.294496,0.720677,9.929058,0.248162,0.731757,9.776161,-0.01876,-0.008146,-0.019734,5.1,6.36,-36.24,325.8297,-4.2971,-1.4125,55.81406,37.500233,214.0579,NaN,0.0,8.0,,18 / 19,,1994,2021-05-04 15:55:49:445
0.210696,0.675186,9.912297,0.256836,0.7293,9.776121,-0.009597,-0.009979,-0.017291,4.86,6.24,-36.36,325.8297,-4.2971,-1.4125,55.81406,37.500233,214.0579,NaN,0.0,8.0,,18 / 19,,2003,2021-05-04 15:55:49:454
0.165205,0.675186,9.917087,0.256836,0.7293,9.776121,-0.002878,-0.01792,-0.011793,4.86,6.24,-36.36,325.8297,-4.2971,-1.4125,55.81406,37.500233,214.0579,NaN,0.0,8.0,,18 / 19,,2013,2021-05-04 15:55:49:464
0.167599,0.668003,9.912297,0.259866,0.7262,9.776272,-0.002267,-0.008146,-0.001408,5.04,6.24,-36.72,325.6163,-4.2649,-1.5049,55.81406,37.500233,214.0579,NaN,0.0,8.0,,18 / 19,,2023,2021-05-04 15:55:49:474
0.167599,0.679974,9.91948,0.259866,0.7262,9.776272,-0.002267,-0.008146,-0.001408,5.04,6.24,-36.72,325.6163,-4.2649,-1.5049,55.81406,37.500233,214.0579,NaN,0.0,8.0,,18 / 19,,2033,2021-05-04 15:55:49:484
0.162811,0.679974,9.91948,0.255613,0.720779,9.776785,-0.005932,0.004071,0.001035,5.1,6.66,-36.54,325.6163,-4.2649,-1.5049,55.81406,37.500233,214.0579,NaN,0.0,8.0,,18 / 19,,2043,2021-05-04 15:55:49:494
0.198725,0.663214,9.926663,0.255613,0.720779,9.776785,-0.003489,-8.16E-4,0.012642,5.1,6.66,-36.54,325.6163,-4.2649,-1.5049,55.81406,37.500233,214.0579,NaN,0.0,8.0,,18 / 19,,2053,2021-05-04 15:55:49:504
0.335198,0.706311,9.964972,0.248618,0.714417,9.777432,0.007507,-8.16E-4,0.008366,5.28,6.3,-36.18,325.4307,-4.215,-1.4977,55.81406,37.500233,214.0579,NaN,0.0,8.0,,18 / 19,,2063,2021-05-04 15:55:49:514
0.339987,0.768562,9.967366,0.248618,0.714417,9.777432,0.011172,0.002849,0.002257,5.28,6.3,-36.18,325.4307,-4.215,-1.4977,55.81406,37.500233,214.0579,NaN,0.0,8.0,,18 / 19,,2074,2021-05-04 15:55:49:525
0.339987,0.768562,9.967366,0.248255,0.712956,9.777548,0.020946,0.001627,-0.00263,5.34,6.06,-36.54,325.4307,-4.215,-1.4977,55.81406,37.500233,214.0579,NaN,0.0,8.0,,18 / 19,,2083,2021-05-04 15:55:49:534
0.292102,0.806871,9.823709,0.248255,0.712956,9.777548,0.025222,-0.008757,-0.006906,5.34,6.06,-36.54,325.4307,-4.215,-1.4977,55.81406,37.500233,214.0579,NaN,0.0,8.0,,18 / 19,,2094,2021-05-04 15:55:49:545
0.304073,0.854756,9.747093,0.253037,0.719156,9.776972,0.020335,-0.008757,-0.009349,5.22,6.54,-36.78,328.4265,-4.1692,-1.4544,55.81406,37.500233,214.0579,NaN,0.0,8.0,,18 / 19,,2104,2021-05-04 15:55:49:555
0.208302,0.821236,9.680053,0.253037,0.719156,9.776972,0.008118,-0.00387,-0.011182,5.22,6.54,-36.78,328.4265,-4.1692,-1.4544,55.81406,37.500233,214.0579,NaN,0.0,8.0,,18 / 19,,2113,2021-05-04 15:55:49:564
0.035914,0.69434,9.692024,0.255483,0.727244,9.776309,-0.002267,0.001627,0.002257,5.28,6.48,-36.24,328.4265,-4.1692,-1.4544,55.81406,37.500233,214.0579,NaN,0.0,8.0,,18 / 19,,2123,2021-05-04 15:55:49:574
0.136474,0.656031,9.742304,0.255483,0.727244,9.776309,-0.012652,-0.002038,0.021805,5.28,6.48,-36.24,328.4265,-4.1692,-1.4544,55.81406,37.500233,214.0579,NaN,0.0,8.0,,18 / 19,,2133,2021-05-04 15:55:49:584
0.136474,0.656031,9.742304,0.247491,0.727551,9.776493,-0.017539,-2.05E-4,0.024248,5.04,6.54,-36.54,328.4479,-4.2529,-1.497,55.81406,37.500233,214.0579,NaN,0.0,8.0,,18 / 19,,2144,2021-05-04 15:55:49:595
0.24661,0.7111,9.854836,0.247491,0.727551,9.776493,-0.018149,-0.00326,0.021194,5.04,6.54,-36.54,328.4479,-4.2529,-1.497,55.81406,37.500233,214.0579,NaN,0.0,8.0,,18 / 19,,2153,2021-05-04 15:55:49:604
0.373507,0.761379,9.883567,0.2408,0.723401,9.776968,-0.015095,0.001627,0.012642,4.38,6.9,-36.72,328.4479,-4.2529,-1.497,55.81406,37.500233,214.0579,NaN,0.0,8.0,,18 / 19,,2164,2021-05-04 15:55:49:615
0.220273,0.790111,9.941029,0.2408,0.723401,9.776968,7.87E-4,-0.011201,0.004701,4.38,6.9,-36.72,328.4479,-4.2529,-1.497,55.81406,37.500233,214.0579,NaN,0.0,8.0,,18 / 19,,2174,2021-05-04 15:55:49:625
0.220273,0.790111,9.941029,0.241393,0.723931,9.776914,0.019113,-0.03197,-7.97E-4,4.86,7.2,-36.36,328.5621,-4.2303,-1.4109,55.81406,37.500233,214.0579,NaN,0.0,8.0,,18 / 19,,2184,2021-05-04 15:55:49:635
0.181965,0.670397,9.895537,0.241393,0.723931,9.776914,0.020946,-0.021586,0.002868,4.86,7.2,-36.36,328.5621,-4.2303,-1.4109,55.81406,37.500233,214.0579,NaN,0.0,8.0,,18 / 19,,2195,2021-05-04 15:55:49:646
0.184359,0.72786,9.785401,0.243157,0.727136,9.776632,0.003231,-0.005703,0.002868,5.4,6.9,-36.54,328.5621,-4.2303,-1.4109,55.81406,37.500233,214.0579,NaN,0.0,8.0,,18 / 19,,2203,2021-05-04 15:55:49:654
0.181965,0.730254,9.73991,0.243157,0.727136,9.776632,-0.012041,0.002849,0.005311,5.4,6.9,-36.54,328.5621,-4.2303,-1.4109,55.81406,37.500233,214.0579,NaN,0.0,8.0,,18 / 19,,2213,2021-05-04 15:55:49:664
0.287313,0.770957,9.730332,0.238613,0.725588,9.776859,-0.021815,-2.05E-4,0.007755,5.58,6.48,-36.72,321.557,-4.2522,-1.4247,55.81406,37.500233,214.0579,NaN,0.0,8.0,,18 / 19,,2223,2021-05-04 15:55:49:674
0.287313,0.770957,9.730332,0.238613,0.725588,9.776859,-0.02548,4.06E-4,0.001646,5.58,6.48,-36.72,321.557,-4.2522,-1.4247,55.81406,37.500233,214.0579,NaN,0.0,8.0,,18 / 19,,2234,2021-05-04 15:55:49:685
0.316044,0.74462,9.804555,0.238364,0.723933,9.776988,-0.022425,0.00346,0.004701,5.64,6.12,-36.48,321.557,-4.2522,-1.4247,55.81406,37.500233,214.0579,NaN,0.0,8.0,,18 / 19,,2243,2021-05-04 15:55:49:694
0.339987,0.735042,9.876384,0.238364,0.723933,9.776988,-0.022425,0.00346,0.004701,5.64,6.12,-36.48,321.557,-4.2522,-1.4247,55.81406,37.500233,214.0579,NaN,0.0,8.0,,18 / 19,,2253,2021-05-04 15:55:49:704
0.323227,0.689551,9.852441,0.243439,0.723795,9.776874,-0.005321,0.00346,0.003479,5.22,6.18,-36.9,325.8709,-4.2335,-1.3966,55.81406,37.500233,214.0579,NaN,0.0,8.0,,18 / 19,,2263,2021-05-04 15:55:49:714
0.323227,0.689551,9.852441,0.243439,0.723795,9.776874,0.002009,4.06E-4,-1.86E-4,5.22,6.18,-36.9,325.8709,-4.2335,-1.3966,55.81406,37.500233,214.0579,NaN,0.0,8.0,,18 / 19,,2273,2021-05-04 15:55:49:724
0.275342,0.636877,9.80695,0.251027,0.724085,9.77666,1.77E-4,-0.006925,-0.005073,4.62,6.24,-36.66,325.8709,-4.2335,-1.3966,55.81406,37.500233,214.0579,NaN,0.0,8.0,,18 / 19,,2284,2021-05-04 15:55:49:735
0.193936,0.646454,9.905115,0.251027,0.724085,9.77666,-0.008376,-0.002038,0.002257,4.62,6.24,-36.66,325.8709,-4.2335,-1.3966,55.81406,37.500233,214.0579,NaN,0.0,8.0,,18 / 19,,2294,2021-05-04 15:55:49:745
0.208302,0.691945,9.921875,0.254794,0.717702,9.777033,-0.016928,0.001016,0.002257,4.44,5.7,-36.12,330.3081,-4.2343,-1.4708,55.81406,37.500233,214.0579,NaN,0.0,8.0,,18 / 19,,2303,2021-05-04 15:55:49:754
0.260976,0.739831,9.933846,0.254794,0.717702,9.777033,-0.015706,-0.002038,0.001646,4.44,5.7,-36.12,330.3081,-4.2343,-1.4708,55.81406,37.500233,214.0579,NaN,0.0,8.0,,18 / 19,,2313,2021-05-04 15:55:49:764
0.260976,0.739831,9.933846,0.255496,0.710995,9.777504,-0.001656,-0.014255,0.001035,5.04,5.94,-36.6,330.3081,-4.2343,-1.4708,55.81406,37.500233,214.0579,NaN,0.0,8.0,,18 / 19,,2323,2021-05-04 15:55:49:774
0.306467,0.811659,9.90272,0.255496,0.710995,9.777504,0.01667,-0.030749,-1.86E-4,5.04,5.94,-36.6,330.3081,-4.2343,-1.4708,55.81406,37.500233,214.0579,NaN,0.0,8.0,,18 / 19,,2333,2021-05-04 15:55:49:784
0.399844,0.818842,9.75667,0.26216,0.715018,9.777035,0.016059,-0.035025,-0.009349,5.82,6.12,-37.02,321.1755,-4.1577,-1.4969,55.81406,37.500233,214.0579,NaN,0.0,8.0,,18 / 19,,2343,2021-05-04 15:55:49:794
0.31365,0.720677,9.747093,0.26216,0.715018,9.777035,0.006285,-0.024029,-0.014236,5.82,6.12,-37.02,321.1755,-4.1577,-1.4969,55.81406,37.500233,214.0579,NaN,0.0,8.0,,18 / 19,,2353,2021-05-04 15:55:49:804
0.289707,0.646454,9.761458,0.27368,0.720512,9.776316,-0.001656,-0.011201,-0.00996,5.46,6.06,-37.2,321.1755,-4.1577,-1.4969,55.81406,37.500233,214.0579,NaN,0.0,8.0,,18 / 19,,2364,2021-05-04 15:55:49:815
0.289707,0.646454,9.761458,0.27368,0.720512,9.776316,-0.013873,0.001627,-0.016069,5.46,6.06,-37.2,321.1755,-4.1577,-1.4969,55.81406,37.500233,214.0579,NaN,0.0,8.0,,18 / 19,,2374,2021-05-04 15:55:49:825
0.241822,0.636877,9.842864,0.27742,0.717964,9.776398,-0.013262,0.008958,-0.00996,4.92,6.3,-37.08,325.2307,-4.2134,-1.6035,55.81406,37.500233,214.0579,NaN,0.0,8.0,,18 / 19,,2383,2021-05-04 15:55:49:834
0.131685,0.658426,9.907509,0.27742,0.717964,9.776398,1.77E-4,0.002238,-0.002019,4.92,6.3,-37.08,325.2307,-4.2134,-1.6035,55.81406,37.500233,214.0579,NaN,0.0,8.0,,18 / 19,,2393,2021-05-04 15:55:49:844
0.138868,0.737437,9.890749,0.273204,0.712176,9.776939,0.013616,-0.005092,0.002257,5.28,6.66,-36.9,325.2307,-4.2134,-1.6035,55.81406,37.500233,214.0579,NaN,0.0,8.0,,18 / 19,,2403,2021-05-04 15:55:49:854
0.138868,0.737437,9.890749,0.273204,0.712176,9.776939,0.013616,-0.005092,0.002257,5.28,6.66,-36.9,325.2307,-4.2134,-1.6035,55.81406,37.500233,214.0579,NaN,0.0,8.0,,18 / 19,,2414,2021-05-04 15:55:49:865
0.234639,0.806871,9.727939,0.265822,0.712781,9.7771,0.011172,-0.005703,0.008366,4.8,6.42,-36.72,325.1433,-4.1646,-1.6006,55.81406,37.500233,214.0579,NaN,0.0,8.0,,18 / 19,,2423,2021-05-04 15:55:49:874
0.294496,0.802082,9.665688,0.265822,0.712781,9.7771,-0.007154,-0.00326,0.005922,4.8,6.42,-36.72,325.1433,-4.1646,-1.6006,55.81406,37.500233,214.0579,NaN,0.0,8.0,,18 / 19,,2433,2021-05-04 15:55:49:884
0.483644,0.766168,9.725544,0.262031,0.716221,9.77695,-0.027312,-0.007536,-0.003241,4.86,5.94,-36.54,325.1433,-4.1646,-1.6006,55.81406,37.500233,214.0579,NaN,0.0,8.0,,18 / 19,,2443,2021-05-04 15:55:49:894
0.483644,0.766168,9.725544,0.262031,0.716221,9.77695,-0.033421,-0.011812,-0.017901,4.86,5.94,-36.54,325.1433,-4.1646,-1.6006,55.81406,37.500233,214.0579,NaN,0.0,8.0,,18 / 19,,2454,2021-05-04 15:55:49:905
0.524346,0.74462,9.852441,0.272683,0.716503,9.776638,-0.029756,-0.005703,-0.03806,5.58,6.54,-36.66,324.1444,-4.1883,-1.5352,55.81406,37.500233,214.0579,NaN,0.0,8.0,,18 / 19,,2463,2021-05-04 15:55:49:914
0.282524,0.622511,9.979338,0.272683,0.716503,9.776638,-0.010208,-0.016699,-0.042336,5.58,6.54,-36.66,324.1444,-4.1883,-1.5352,55.81406,37.500233,214.0579,NaN,0.0,8.0,,18 / 19,,2473,2021-05-04 15:55:49:924
0.047885,0.59378,10.008069,0.285286,0.714176,9.776449,0.011172,-0.020364,-0.035006,4.86,6.96,-36.78,324.1444,-4.1883,-1.5352,55.81406,37.500233,214.0579,NaN,0.0,8.0,,18 / 19,,2483,2021-05-04 15:55:49:934
-0.035914,0.622511,9.943423,0.285286,0.714176,9.776449,0.025222,-0.020975,-0.014236,4.86,6.96,-36.78,324.1444,-4.1883,-1.5352,55.81406,37.500233,214.0579,NaN,0.0,8.0,,18 / 19,,2493,2021-05-04 15:55:49:944
-0.035914,0.622511,9.943423,0.280433,0.711533,9.776782,0.021557,-0.013033,0.009588,4.8,6.66,-36.72,327.8372,-4.1763,-1.6715,55.81406,37.500233,214.0579,NaN,0.0,8.0,,18 / 19,,2503,2021-05-04 15:55:49:954
0.110137,0.725465,9.780613,0.280433,0.711533,9.776782,0.00995,-0.005092,0.018751,4.8,6.66,-36.72,327.8372,-4.1763,-1.6715,55.81406,37.500233,214.0579,NaN,0.0,8.0,,18 / 19,,2513,2021-05-04 15:55:49:964
0.24661,0.778139,9.73991,0.265859,0.709751,9.777318,-0.00471,-0.002649,0.020583,5.46,6.42,-36.24,327.8372,-4.1763,-1.6715,55.81406,37.500233,214.0579,NaN,0.0,8.0,,18 / 19,,2523,2021-05-04 15:55:49:974
0.514769,0.826025,9.749487,0.265859,0.709751,9.777318,-0.019371,0.002849,0.002868,5.46,6.42,-36.24,327.8372,-4.1763,-1.6715,55.81406,37.500233,214.0579,NaN,0.0,8.0,,18 / 19,,2533,2021-05-04 15:55:49:984
0.452518,0.768562,9.93624,0.261531,0.710357,9.777391,-0.023647,0.008347,-0.011182,5.1,6.6,-36.0,328.0313,-4.1504,-1.5576,55.81406,37.500233,214.0579,NaN,0.0,8.0,,18 / 19,,2543,2021-05-04 15:55:49:994
0.452518,0.768562,9.93624,0.261531,0.710357,9.777391,-0.003489,-0.004481,-0.022788,5.1,6.6,-36.0,328.0313,-4.1504,-1.5576,55.81406,37.500233,214.0579,NaN,0.0,8.0,,18 / 19,,2553,2021-05-04 15:55:50:004
0.387873,0.7111,10.015251,0.268519,0.711755,9.777101,0.010561,-0.012423,-0.03073,4.56,6.6,-35.82,328.0313,-4.1504,-1.5576,55.81406,37.500233,214.0579,NaN,0.0,8.0,,18 / 19,,2563,2021-05-04 15:55:50:014
0.208302,0.691945,10.046377,0.268519,0.711755,9.777101,0.029498,-0.007536,-0.025232,4.56,6.6,-35.82,328.0313,-4.1504,-1.5576,55.81406,37.500233,214.0579,NaN,0.0,8.0,,18 / 19,,2574,2021-05-04 15:55:50:025
0.05028,0.663214,9.876384,0.273588,0.716726,9.776596,0.03072,-0.005703,-0.007517,4.92,6.42,-36.06,325.1147,-4.1621,-1.5732,55.81406,37.500233,214.0579,NaN,0.0,8.0,,18 / 19,,2584,2021-05-04 15:55:50:035
0.05028,0.663214,9.876384,0.273588,0.716726,9.776596,0.03072,-0.005703,-0.007517,4.92,6.42,-36.06,325.1147,-4.1621,-1.5732,55.81406,37.500233,214.0579,NaN,0.0,8.0,,18 / 19,,2593,2021-05-04 15:55:50:044
0.150839,0.699128,9.77343,0.270724,0.718481,9.776547,0.018502,-0.001427,-7.97E-4,5.28,6.48,-36.42,325.1147,-4.1621,-1.5732,55.81406,37.500233,214.0579,NaN,0.0,8.0,,18 / 19,,2604,2021-05-04 15:55:50:055
0.299284,0.718282,9.725544,0.262956,0.719303,9.776699,0.00995,0.009569,0.005922,5.46,6.36,-36.84,325.1147,-4.1621,-1.5732,55.81406,37.500233,214.0579,NaN,0.0,8.0,,18 / 19,,2614,2021-05-04 15:55:50:065
0.478855,0.794899,9.761458,0.262956,0.719303,9.776699,0.008118,0.01079,-0.002019,5.46,6.36,-36.84,325.1147,-4.1621,-1.5732,55.81406,37.500233,214.0579,NaN,0.0,8.0,,18 / 19,,2623,2021-05-04 15:55:50:074
0.478855,0.794899,9.761458,0.263217,0.720437,9.776608,0.008118,-0.001427,-0.014236,5.34,6.18,-37.02,325.3986,-4.2063,-1.5407,55.81406,37.500233,214.0579,NaN,0.0,8.0,,18 / 19,,2633,2021-05-04 15:55:50:084
0.466884,0.778139,9.785401,0.263217,0.720437,9.776608,0.004453,-8.16E-4,-0.03134,5.34,6.18,-37.02,325.3986,-4.2063,-1.5407,55.81406,37.500233,214.0579,NaN,0.0,8.0,,18 / 19,,2643,2021-05-04 15:55:50:094
0.217879,0.742225,9.797373,0.27362,0.724579,9.776016,0.007507,0.005293,-0.028897,5.4,6.06,-37.14,325.3986,-4.2063,-1.5407,55.81406,37.500233,214.0579,NaN,0.0,8.0,,18 / 19,,2653,2021-05-04 15:55:50:104
0.112531,0.679974,9.70639,0.27362,0.724579,9.776016,0.007507,-0.006314,-0.020345,5.4,6.06,-37.14,325.3986,-4.2063,-1.5407,55.81406,37.500233,214.0579,NaN,0.0,8.0,,18 / 19,,2663,2021-05-04 15:55:50:114
0.0838,0.730254,9.687236,0.27502,0.726903,9.775805,0.003231,0.004071,-0.006295,4.92,6.06,-36.9,325.2782,-4.2372,-1.6032,55.81406,37.500233,214.0579,NaN,0.0,8.0,,18 / 19,,2673,2021-05-04 15:55:50:124
0.0838,0.730254,9.687236,0.27502,0.726903,9.775805,-0.0041,0.008347,0.003479,4.92,6.06,-36.9,325.2782,-4.2372,-1.6032,55.81406,37.500233,214.0579,NaN,0.0,8.0,,18 / 19,,2684,2021-05-04 15:55:50:135
0.146051,0.794899,9.665688,0.265861,0.728418,9.775946,-0.008376,0.016288,0.010198,4.68,6.6,-36.84,325.2782,-4.2372,-1.6032,55.81406,37.500233,214.0579,NaN,0.0,8.0,,18 / 19,,2693,2021-05-04 15:55:50:144
0.284919,0.732648,9.665688,0.265861,0.728418,9.775946,-0.008376,0.016288,0.010198,4.68,6.6,-36.84,325.2782,-4.2372,-1.6032,55.81406,37.500233,214.0579,NaN,0.0,8.0,,18 / 19,,2703,2021-05-04 15:55:50:154
0.256187,0.675186,9.79019,0.256335,0.728481,9.776196,-0.021204,0.015677,0.001035,4.98,6.84,-36.24,328.2105,-4.2597,-1.5578,55.81406,37.500244,212.6166,NaN,0.0,8.0,,19 / 20,,2714,2021-05-04 15:55:50:165
0.272947,0.7111,9.828498,0.256335,0.728481,9.776196,-0.029145,0.018732,4.25E-4,4.98,6.84,-36.24,328.2105,-4.2597,-1.5578,55.81406,37.500244,212.6166,NaN,0.0,8.0,,19 / 20,,2723,2021-05-04 15:55:50:174
0.306467,0.732648,9.883567,0.251545,0.723471,9.776691,-0.027312,0.004682,0.001035,5.22,6.78,-35.64,328.2105,-4.2597,-1.5578,55.81406,37.500244,212.6166,NaN,0.0,8.0,,19 / 20,,2733,2021-05-04 15:55:50:184
0.306467,0.732648,9.883567,0.251545,0.723471,9.776691,-0.027312,-0.002649,-0.007517,5.22,6.78,-35.64,328.2105,-4.2597,-1.5578,55.81406,37.500244,212.6166,NaN,0.0,8.0,,19 / 20,,2744,2021-05-04 15:55:50:195
0.251399,0.749408,9.91948,0.252577,0.719604,9.776951,-0.020593,-0.012423,-0.011182,4.74,6.6,-35.88,328.391,-4.2308,-1.4738,55.81406,37.500244,212.6166,NaN,0.0,8.0,,19 / 20,,2753,2021-05-04 15:55:50:204
0.193936,0.739831,9.866806,0.252577,0.719604,9.776951,-0.01143,-0.019142,-0.006906,4.74,6.6,-35.88,328.391,-4.2308,-1.4738,55.81406,37.500244,212.6166,NaN,0.0,8.0,,19 / 20,,2763,2021-05-04 15:55:50:214
0.210696,0.703917,9.75667,0.253551,0.720019,9.776895,-0.0041,-0.020364,0.001035,5.28,6.12,-36.24,328.391,-4.2308,-1.4738,55.81406,37.500244,212.6166,NaN,0.0,8.0,,19 / 20,,2773,2021-05-04 15:55:50:224
0.323227,0.67758,9.692024,0.253551,0.720019,9.776895,-0.015706,-0.017309,0.008366,5.28,6.12,-36.24,328.391,-4.2308,-1.4738,55.81406,37.500244,212.6166,NaN,0.0,8.0,,19 / 20,,2783,2021-05-04 15:55:50:234
0.385478,0.67758,9.818921,0.256267,0.718545,9.776933,-0.031588,-0.009979,0.001646,6.12,5.94,-36.48,321.1802,-4.2105,-1.4856,55.81406,37.500244,212.6166,NaN,0.0,8.0,,19 / 20,,2794,2021-05-04 15:55:50:245
0.385478,0.67758,9.818921,0.256267,0.718545,9.776933,-0.036475,0.002238,-7.97E-4,6.12,5.94,-36.48,321.1802,-4.2105,-1.4856,55.81406,37.500244,212.6166,NaN,0.0,8.0,,19 / 20,,2804,2021-05-04 15:55:50:255
0.304073,0.632089,9.962578,0.26128,0.710898,9.777359,-0.029756,0.002238,0.002868,5.64,6.48,-36.3,321.1802,-4.2105,-1.4856,55.81406,37.500244,212.6166,NaN,0.0,8.0,,19 / 20,,2813,2021-05-04 15:55:50:264
0.301679,0.615329,10.089474,0.26128,0.710898,9.777359,-0.015706,-0.00326,0.002257,5.64,6.48,-36.3,321.1802,-4.2105,-1.4856,55.81406,37.500244,212.6166,NaN,0.0,8.0,,19 / 20,,2824,2021-05-04 15:55:50:275
0.323227,0.641666,10.130177,0.265618,0.701537,9.777918,-0.007154,0.002849,-0.006295,5.82,6.9,-36.06,323.8405,-4.1023,-1.5561,55.81406,37.500244,212.6166,NaN,0.0,8.0,,19 / 20,,2833,2021-05-04 15:55:50:284
0.323227,0.641666,10.130177,0.265618,0.701537,9.777918,0.008118,0.001016,-0.006295,5.82,6.9,-36.06,323.8405,-4.1023,-1.5561,55.81406,37.500244,212.6166,NaN,0.0,8.0,,19 / 20,,2843,2021-05-04 15:55:50:294
0.256187,0.653637,10.012857,0.269448,0.694103,9.778344,0.008118,0.001016,-0.006295,6.18,6.78,-36.12,323.8405,-4.1023,-1.5561,55.81406,37.500244,212.6166,NaN,0.0,8.0,,19 / 20,,2853,2021-05-04 15:55:50:304
0.270553,0.682368,9.857229,0.269448,0.694103,9.778344,0.021557,-0.008146,4.25E-4,6.18,6.78,-36.12,323.8405,-4.1023,-1.5561,55.81406,37.500244,212.6166,NaN,0.0,8.0,,19 / 20,,2863,2021-05-04 15:55:50:314
0.301679,0.754197,9.682447,0.27168,0.692413,9.778401,0.017281,0.001016,0.005922,5.64,6.66,-36.12,323.7086,-4.0587,-1.5784,55.81406,37.500244,212.6166,NaN,0.0,8.0,,19 / 20,,2873,2021-05-04 15:55:50:324
0.428575,0.735042,9.735122,0.27168,0.692413,9.778401,7.87E-4,0.002238,0.007144,5.64,6.66,-36.12,323.7086,-4.0587,-1.5784,55.81406,37.500244,212.6166,NaN,0.0,8.0,,19 / 20,,2883,2021-05-04 15:55:50:334
0.469278,0.653637,9.699207,0.276139,0.691142,9.778367,-0.01143,0.009569,0.001646,4.92,7.08,-37.08,323.7086,-4.0587,-1.5784,55.81406,37.500244,212.6166,NaN,0.0,8.0,,19 / 20,,2893,2021-05-04 15:55:50:344
0.469278,0.653637,9.699207,0.276139,0.691142,9.778367,-0.019371,0.001627,-0.015458,4.92,7.08,-37.08,323.7086,-4.0587,-1.5784,55.81406,37.500244,212.6166,NaN,0.0,8.0,,19 / 20,,2903,2021-05-04 15:55:50:354
0.251399,0.620117,9.897932,0.286714,0.687061,9.77835,-0.014484,-8.16E-4,-0.023399,4.98,6.84,-37.14,327.7568,-4.0414,-1.6176,55.81406,37.500244,212.6166,NaN,0.0,8.0,,19 / 20,,2913,2021-05-04 15:55:50:364
0.064645,0.648849,9.950606,0.286714,0.687061,9.77835,-0.002267,-0.006314,-0.013014,4.98,6.84,-37.14,327.7568,-4.0414,-1.6176,55.81406,37.500244,212.6166,NaN,0.0,8.0,,19 / 20,,2923,2021-05-04 15:55:50:374
0.098165,0.670397,9.823709,0.287649,0.683191,9.778594,0.003842,-0.005703,-7.97E-4,5.46,6.54,-36.3,327.7568,-4.0414,-1.6176,55.81406,37.500244,212.6166,NaN,0.0,8.0,,19 / 20,,2933,2021-05-04 15:55:50:384
0.098165,0.670397,9.823709,0.287649,0.683191,9.778594,0.003842,-0.005703,-7.97E-4,5.46,6.54,-36.3,327.7568,-4.0414,-1.6176,55.81406,37.500244,212.6166,NaN,0.0,8.0,,19 / 20,,2943,2021-05-04 15:55:50:394
0.098165,0.670397,9.823709,0.287649,0.683191,9.778594,0.003842,-0.005703,-7.97E-4,5.46,6.54,-36.3,327.7568,-4.0414,-1.6176,55.81406,37.500244,212.6166,NaN,0.0,8.0,,19 / 20,,2954,2021-05-04 15:55:50:405
0.098165,0.670397,9.823709,0.287649,0.683191,9.778594,0.003842,-0.005703,-7.97E-4,5.46,6.54,-36.3,327.7568,-4.0414,-1.6176,55.81406,37.500244,212.6166,NaN,0.0,8.0,,19 / 20,,2963,2021-05-04 15:55:50:414
0.184359,0.720677,9.759064,0.284122,0.681994,9.77878,-0.002878,-0.007536,0.002868,5.82,6.96,-36.24,323.3712,-3.9878,-1.6643,55.81406,37.500244,212.6166,NaN,0.0,8.0,,19 / 20,,2973,2021-05-04 15:55:50:424
0.383084,0.658426,9.847652,0.265719,0.676263,9.779696,-0.027312,-0.009979,0.020583,4.86,7.14,-36.42,323.3712,-3.9878,-1.6643,55.81406,37.500244,212.6166,NaN,0.0,8.0,,19 / 20,,2983,2021-05-04 15:55:50:434
0.490826,0.804476,9.787795,0.265719,0.676263,9.779696,-0.028534,-0.01059,0.002868,4.86,7.14,-36.42,323.3712,-3.9878,-1.6643,55.81406,37.500244,212.6166,NaN,0.0,8.0,,19 / 20,,2993,2021-05-04 15:55:50:444
0.490826,0.804476,9.787795,0.269709,0.674499,9.779708,-0.030978,-0.008757,-0.016069,4.62,7.02,-36.96,327.7778,-3.9542,-1.5564,55.81406,37.500244,212.6166,NaN,0.0,8.0,,19 / 20,,3004,2021-05-04 15:55:50:455
0.251399,0.699128,9.759064,0.269709,0.674499,9.779708,-0.03281,-0.008146,-0.017291,4.62,7.02,-36.96,327.7778,-3.9542,-1.5564,55.81406,37.500244,212.6166,NaN,0.0,8.0,,19 / 20,,3013,2021-05-04 15:55:50:464
0.160416,0.651243,9.794978,0.273521,0.674431,9.779607,-0.031588,-0.01059,-0.011182,4.2,6.24,-36.84,327.7778,-3.9542,-1.5564,55.81406,37.500244,212.6166,NaN,0.0,8.0,,19 / 20,,3023,2021-05-04 15:55:50:474
0.181965,0.629694,9.804555,0.273521,0.674431,9.779607,-0.030367,-0.006314,-0.001408,4.2,6.24,-36.84,327.7778,-3.9542,-1.5564,55.81406,37.500244,212.6166,NaN,0.0,8.0,,19 / 20,,3034,2021-05-04 15:55:50:485
0.220273,0.617723,9.80695,0.272632,0.673082,9.779725,-0.033421,-0.002038,0.002868,4.14,6.36,-37.26,327.7778,-3.9542,-1.5564,55.81406,37.500244,212.6166,NaN,0.0,8.0,,19 / 20,,3043,2021-05-04 15:55:50:494
0.220273,0.617723,9.80695,0.268135,0.667955,9.780201,-0.034643,-0.002038,0.010198,4.86,7.08,-36.84,327.6329,-3.9356,-1.5968,55.81406,37.500244,212.6166,NaN,0.0,8.0,,19 / 20,,3053,2021-05-04 15:55:50:504
0.311256,0.634483,9.847652,0.268135,0.667955,9.780201,-0.032199,0.002849,0.016307,4.86,7.08,-36.84,327.6329,-3.9356,-1.5968,55.81406,37.500244,212.6166,NaN,0.0,8.0,,19 / 20,,3064,2021-05-04 15:55:50:515
0.399844,0.648849,9.816526,0.265758,0.660418,9.780778,-0.040751,0.013234,0.013864,4.98,6.72,-36.3,327.6329,-3.9356,-1.5968,55.81406,37.500244,212.6166,NaN,0.0,8.0,,19 / 20,,3073,2021-05-04 15:55:50:524
0.304073,0.687157,9.828498,0.265758,0.660418,9.780778,-0.046249,0.01751,0.00409,4.98,6.72,-36.3,327.6329,-3.9356,-1.5968,55.81406,37.500244,212.6166,NaN,0.0,8.0,,19 / 20,,3083,2021-05-04 15:55:50:534
0.304073,0.687157,9.828498,0.266988,0.652305,9.781288,-0.047471,0.008347,4.25E-4,5.16,6.3,-36.24,324.5733,-3.8614,-1.5564,55.81406,37.500244,212.6166,NaN,0.0,8.0,,19 / 20,,3094,2021-05-04 15:55:50:545
0.162811,0.665608,9.792584,0.266988,0.652305,9.781288,-0.047471,-8.16E-4,0.003479,5.16,6.3,-36.24,324.5733,-3.8614,-1.5564,55.81406,37.500244,212.6166,NaN,0.0,8.0,,19 / 20,,3103,2021-05-04 15:55:50:554
0.076617,0.6273,9.835681,0.2646,0.645798,9.781785,-0.038308,-0.002649,0.007755,5.04,6.6,-36.3,324.5733,-3.8614,-1.5564,55.81406,37.500244,212.6166,NaN,0.0,8.0,,19 / 20,,3113,2021-05-04 15:55:50:564
0.146051,0.61054,9.744699,0.2646,0.645798,9.781785,-0.036475,-0.006314,0.019361,5.04,6.6,-36.3,324.5733,-3.8614,-1.5564,55.81406,37.500244,212.6166,NaN,0.0,8.0,,19 / 20,,3123,2021-05-04 15:55:50:574
0.337593,0.656031,9.703996,0.256218,0.640116,9.782382,-0.047471,-0.002649,0.026081,4.62,6.6,-36.48,327.4227,-3.7758,-1.5495,55.81406,37.500244,212.6166,NaN,0.0,8.0,,19 / 20,,3133,2021-05-04 15:55:50:584
0.337593,0.656031,9.703996,0.256218,0.640116,9.782382,-0.059688,0.004071,0.024859,4.62,6.6,-36.48,327.4227,-3.7758,-1.5495,55.81406,37.500244,212.6166,NaN,0.0,8.0,,19 / 20,,3143,2021-05-04 15:55:50:594
0.301679,0.624906,9.90272,0.252699,0.631664,9.783023,-0.055412,-2.05E-4,0.028524,4.68,6.42,-36.96,327.4227,-3.7758,-1.5495,55.81406,37.500244,212.6166,NaN,0.0,8.0,,19 / 20,,3153,2021-05-04 15:55:50:604
0.392661,0.605752,10.015251,0.252699,0.631664,9.783023,-0.03953,-0.016699,0.023027,4.68,6.42,-36.96,327.4227,-3.7758,-1.5495,55.81406,37.500244,212.6166,NaN,0.0,8.0,,19 / 20,,3164,2021-05-04 15:55:50:615
0.301679,0.605752,10.072714,0.257364,0.62477,9.783343,-0.026702,-0.009979,0.010198,4.86,6.66,-37.14,327.5391,-3.6931,-1.4796,55.81406,37.500244,212.6166,NaN,0.0,8.0,,19 / 20,,3173,2021-05-04 15:55:50:624
0.260976,0.617723,9.976943,0.257364,0.62477,9.783343,-0.01876,-0.014255,0.007755,4.86,6.66,-37.14,327.5391,-3.6931,-1.4796,55.81406,37.500244,212.6166,NaN,0.0,8.0,,19 / 20,,3184,2021-05-04 15:55:50:635
0.260976,0.617723,9.976943,0.262129,0.620389,9.783496,-0.014484,-0.020364,0.008977,5.04,6.78,-36.66,327.5391,-3.6931,-1.4796,55.81406,37.500244,212.6166,NaN,0.0,8.0,,19 / 20,,3193,2021-05-04 15:55:50:644
0.277736,0.689551,9.763853,0.262129,0.620389,9.783496,-0.022425,-0.021586,0.013864,5.04,6.78,-36.66,327.5391,-3.6931,-1.4796,55.81406,37.500244,212.6166,NaN,0.0,8.0,,19 / 20,,3203,2021-05-04 15:55:50:654
0.371113,0.701523,9.555551,0.267369,0.6192,9.783429,-0.048082,-0.009979,0.015085,5.46,6.42,-36.96,324.2496,-3.6271,-1.5348,55.81406,37.500244,212.6166,NaN,0.0,8.0,,19 / 20,,3213,2021-05-04 15:55:50:664
0.351958,0.64406,9.478934,0.267369,0.6192,9.783429,-0.084734,0.004071,0.013864,5.46,6.42,-36.96,324.2496,-3.6271,-1.5348,55.81406,37.500244,212.6166,NaN,0.0,8.0,,19 / 20,,3223,2021-05-04 15:55:50:674
0.373507,0.565049,9.404712,0.273764,0.614245,9.783566,-0.133603,0.027284,0.01814,5.28,6.72,-37.8,324.2496,-3.6271,-1.5348,55.81406,37.500244,212.6166,NaN,0.0,8.0,,19 / 20,,3234,2021-05-04 15:55:50:685
0.373507,0.565049,9.404712,0.273764,0.614245,9.783566,-0.133603,0.027284,0.01814,5.28,6.72,-37.8,324.2496,-3.6271,-1.5348,55.81406,37.500244,212.6166,NaN,0.0,8.0,,19 / 20,,3243,2021-05-04 15:55:50:694
0.215485,0.5435,9.586677,0.272136,0.590887,9.785048,-0.163535,0.043166,0.006533,4.74,7.26,-36.9,327.0117,-3.5911,-1.6028,55.81406,37.500244,212.6166,NaN,0.0,8.0,,19 / 20,,3253,2021-05-04 15:55:50:704
0.112531,0.562655,9.620196,0.272136,0.590887,9.785048,-0.176974,0.041334,0.016918,4.74,7.26,-36.9,327.0117,-3.5911,-1.6028,55.81406,37.500244,212.6166,NaN,0.0,8.0,,19 / 20,,3263,2021-05-04 15:55:50:714
0.136474,0.622511,9.385557,0.263368,0.555545,9.787359,-0.204463,0.054162,0.034633,5.58,7.5,-36.42,327.0117,-3.5911,-1.6028,55.81406,37.500244,212.6166,NaN,0.0,8.0,,19 / 20,,3273,2021-05-04 15:55:50:724
0.035914,0.672791,9.25866,0.263368,0.555545,9.787359,-0.261885,0.065768,0.038298,5.58,7.5,-36.42,327.0117,-3.5911,-1.6028,55.81406,37.500244,212.6166,NaN,0.0,8.0,,19 / 20,,3284,2021-05-04 15:55:50:735
0.035914,0.672791,9.25866,0.250726,0.504749,9.790442,-0.35779,0.084705,0.056624,5.82,7.86,-36.54,325.2308,-3.2475,-1.5414,55.81406,37.500244,212.6166,NaN,0.0,8.0,,19 / 20,,3293,2021-05-04 15:55:50:744
0.090982,0.474066,9.356826,0.250726,0.504749,9.790442,-0.450642,0.143348,0.056624,5.82,7.86,-36.54,325.2308,-3.2475,-1.5414,55.81406,37.500244,212.6166,NaN,0.0,8.0,,19 / 20,,3303,2021-05-04 15:55:50:754
0.011971,0.354353,9.531608,0.226152,0.421258,9.794988,-0.509285,0.18,0.079226,5.1,7.92,-36.24,325.2308,-3.2475,-1.5414,55.81406,37.500244,212.6166,NaN,0.0,8.0,,19 / 20,,3313,2021-05-04 15:55:50:764
0.162811,0.232245,9.72315,0.226152,0.421258,9.794988,-0.539828,0.181833,0.090222,5.1,7.92,-36.24,325.2308,-3.2475,-1.5414,55.81406,37.500244,212.6166,NaN,0.0,8.0,,19 / 20,,3324,2021-05-04 15:55:50:775
0.162811,0.268159,9.483723,0.191423,0.317344,9.799644,-0.557543,0.18,0.084724,5.04,7.26,-36.42,325.6646,-2.462,-1.3226,55.81406,37.500244,212.6166,NaN,0.0,8.0,,19 / 20,,3334,2021-05-04 15:55:50:785
0.193936,0.268159,9.483723,0.191423,0.317344,9.799644,-0.596639,0.139683,0.083502,5.04,7.26,-36.42,325.6646,-2.462,-1.3226,55.81406,37.500244,212.6166,NaN,0.0,8.0,,19 / 20,,3343,2021-05-04 15:55:50:794
0.265765,0.270553,9.134158,0.161035,0.204226,9.803201,-0.702318,0.147624,0.090222,6.0,7.8,-35.88,325.6646,-2.462,-1.3226,55.81406,37.500244,212.6166,NaN,0.0,8.0,,19 / 20,,3353,2021-05-04 15:55:50:804
0.177176,0.272947,8.865999,0.161035,0.204226,9.803201,-0.878858,0.201991,0.118322,6.0,7.8,-35.88,325.6646,-2.462,-1.3226,55.81406,37.500244,212.6166,NaN,0.0,8.0,,19 / 20,,3363,2021-05-04 15:55:50:814
-0.33041,-0.038308,8.990502,0.127104,0.049539,9.805701,-1.055399,0.316834,0.169634,6.18,8.94,-36.24,325.9314,-1.1933,-0.9411,55.81406,37.500244,212.6166,NaN,0.0,8.0,,19 / 20,,3373,2021-05-04 15:55:50:824
-0.33041,-0.038308,8.990502,0.127104,0.049539,9.805701,-1.222776,0.426179,0.227056,6.18,8.94,-36.24,325.9314,-1.1933,-0.9411,55.81406,37.500244,212.6166,NaN,0.0,8.0,,19 / 20,,3384,2021-05-04 15:55:50:835
-0.486038,-0.24661,9.613013,0.054627,-0.17196,9.80499,-1.252097,0.457333,0.250879,5.82,8.94,-36.78,325.9314,-1.1933,-0.9411,55.81406,37.500244,212.6166,NaN,0.0,8.0,,19 / 20,,3393,2021-05-04 15:55:50:844
-0.457306,-0.430969,9.979338,0.054627,-0.17196,9.80499,-1.189178,0.380364,0.250879,5.82,8.94,-36.78,325.9314,-1.1933,-0.9411,55.81406,37.500244,212.6166,NaN,0.0,8.0,,19 / 20,,3403,2021-05-04 15:55:50:854
-0.220273,-0.617723,10.35045,-0.031579,-0.41259,9.797916,-1.117707,0.300951,0.225834,6.48,9.6,-35.46,326.5727,1.0047,-0.3192,55.81406,37.500244,212.6166,NaN,0.0,8.0,,19 / 20,,3413,2021-05-04 15:55:50:864
-0.0838,-0.754197,10.874796,-0.031579,-0.41259,9.797916,-1.038294,0.263689,0.184906,6.48,9.6,-35.46,326.5727,1.0047,-0.3192,55.81406,37.500244,212.6166,NaN,0.0,8.0,,19 / 20,,3423,2021-05-04 15:55:50:874
-0.0838,-0.754197,10.874796,-0.089074,-0.62258,9.786463,-0.92895,0.263078,0.171467,6.72,11.1,-35.04,326.5727,1.0047,-0.3192,55.81406,37.500244,212.6166,NaN,0.0,8.0,,19 / 20,,3433,2021-05-04 15:55:50:884
-0.043097,-0.691945,10.913105,-0.089074,-0.62258,9.786463,-0.891076,0.277128,0.165358,6.72,11.1,-35.04,326.5727,1.0047,-0.3192,55.81406,37.500244,212.6166,NaN,0.0,8.0,,19 / 20,,3443,2021-05-04 15:55:50:894
0.06704,-0.462095,10.213976,-0.14442,-0.800206,9.772882,-0.916732,0.276517,0.153752,6.66,11.4,-35.88,322.4783,3.6399,0.5215,55.81406,37.500244,212.6166,NaN,0.0,8.0,,19 / 20,,3453,2021-05-04 15:55:50:904
0.160416,-0.483643,9.42626,-0.14442,-0.800206,9.772882,-0.996145,0.234367,0.141534,6.66,11.4,-35.88,322.4783,3.6399,0.5215,55.81406,37.500244,212.6166,NaN,0.0,8.0,,19 / 20,,3463,2021-05-04 15:55:50:914
0.160416,-0.483643,9.42626,-0.196653,-0.985284,9.755046,-1.211169,0.297286,0.148865,7.14,12.24,-35.7,322.4783,3.6399,0.5215,55.81406,37.500244,212.6166,NaN,0.0,8.0,,19 / 20,,3474,2021-05-04 15:55:50:925
-0.043097,-0.770956,9.110215,-0.196653,-0.985284,9.755046,-1.461624,0.432287,0.188571,7.14,12.24,-35.7,322.4783,3.6399,0.5215,55.81406,37.500244,212.6166,NaN,0.0,8.0,,19 / 20,,3484,2021-05-04 15:55:50:935
-0.265764,-1.127703,9.2419,-0.264091,-1.232206,9.725344,-1.676649,0.549574,0.20873,7.14,13.32,-35.7,326.0106,5.7663,1.1549,55.81406,37.500244,212.6166,NaN,0.0,8.0,,19 / 20,,3493,2021-05-04 15:55:50:944
-0.124502,-1.225869,9.500483,-0.264091,-1.232206,9.725344,-1.765224,0.542243,0.189793,7.14,13.32,-35.7,326.0106,5.7663,1.1549,55.81406,37.500244,212.6166,NaN,0.0,8.0,,19 / 20,,3503,2021-05-04 15:55:50:954
-0.019154,-1.611347,10.082292,-0.373943,-1.557909,9.674889,-1.748731,0.454889,0.129928,7.02,14.04,-35.7,326.0106,5.7663,1.1549,55.81406,37.500244,212.6166,NaN,0.0,8.0,,19 / 20,,3513,2021-05-04 15:55:50:964
-0.019154,-1.611347,10.082292,-0.373943,-1.557909,9.674889,-1.624114,0.200769,0.027303,7.02,14.04,-35.7,326.0106,5.7663,1.1549,55.81406,37.500244,212.6166,NaN,0.0,8.0,,19 / 20,,3523,2021-05-04 15:55:50:974
0.071828,-1.860351,10.776631,-0.442655,-1.882846,9.614017,-1.446352,-0.044798,-0.063105,7.56,15.3,-33.6,324.491,9.1409,2.2134,55.81406,37.500244,212.6166,NaN,0.0,8.0,,19 / 20,,3533,2021-05-04 15:55:50:984
0.162811,-1.999219,11.387171,-0.442655,-1.882846,9.614017,-1.200174,-0.240886,-0.155957,7.56,15.3,-33.6,324.491,9.1409,2.2134,55.81406,37.500244,212.6166,NaN,0.0,8.0,,19 / 20,,3543,2021-05-04 15:55:50:994
-0.004789,-2.056682,10.484529,-0.412514,-2.139563,9.56151,-1.150083,-0.317244,-0.182835,7.74,16.5,-32.76,324.491,9.1409,2.2134,55.81406,37.500244,212.6166,NaN,0.0,8.0,,19 / 20,,3553,2021-05-04 15:55:51:004
-0.471672,-2.027951,9.548368,-0.412514,-2.139563,9.56151,-1.214834,-0.336181,-0.182835,7.74,16.5,-32.76,324.491,9.1409,2.2134,55.81406,37.500244,212.6166,NaN,0.0,8.0,,19 / 20,,3564,2021-05-04 15:55:51:015
-0.471672,-2.027951,9.548368,-0.341344,-2.364666,9.511163,-1.401148,-0.256769,-0.112586,7.56,17.76,-33.42,327.4621,12.6018,2.4704,55.81406,37.500244,212.6166,NaN,0.0,8.0,,19 / 20,,3573,2021-05-04 15:55:51:024
-0.938556,-1.862746,8.411087,-0.341344,-2.364666,9.511163,-1.534317,-0.301362,-0.088151,7.56,17.76,-33.42,327.4621,12.6018,2.4704,55.81406,37.500244,212.6166,NaN,0.0,8.0,,19 / 20,,3583,2021-05-04 15:55:51:034
-0.780534,-1.908237,7.790971,-0.282723,-2.637655,9.441039,-1.76217,-0.342901,-0.068603,7.56,18.72,-32.64,327.4621,12.6018,2.4704,55.81406,37.500244,212.6166,NaN,0.0,8.0,,19 / 20,,3594,2021-05-04 15:55:51:045
-0.883487,-2.44216,7.831673,-0.282723,-2.637655,9.441039,-1.947873,-0.296475,-0.017901,7.56,18.72,-32.64,327.4621,12.6018,2.4704,55.81406,37.500244,212.6166,NaN,0.0,8.0,,19 / 20,,3604,2021-05-04 15:55:51:055
-0.476461,-2.762993,8.008849,-0.219839,-2.979967,9.340335,-2.051109,-0.327629,0.014474,7.62,19.44,-32.28,323.8437,15.6027,1.7153,55.81406,37.500244,212.6166,NaN,0.0,8.0,,19 / 20,,3614,2021-05-04 15:55:51:065
-0.476461,-2.762993,8.008849,-0.219839,-2.979967,9.340335,-2.051109,-0.327629,0.014474,7.62,19.44,-32.28,323.8437,15.6027,1.7153,55.81406,37.500244,212.6166,NaN,0.0,8.0,,19 / 20,,3623,2021-05-04 15:55:51:074
0.10056,-3.043123,8.547561,-0.147826,-3.362551,9.210959,-2.084096,-0.496839,-0.033784,7.98,20.88,-32.04,323.8437,15.6027,1.7153,55.81406,37.500244,212.6166,NaN,0.0,8.0,,19 / 20,,3635,2021-05-04 15:55:51:086
-0.01676,-3.893091,9.72315,-0.147826,-3.362551,9.210959,-2.001629,-0.516386,-0.089984,7.98,20.88,-32.04,323.8437,15.6027,1.7153,55.81406,37.500244,212.6166,NaN,0.0,8.0,,19 / 20,,3643,2021-05-04 15:55:51:094
-0.196331,-4.113364,9.77343,-0.04897,-3.726918,9.070724,-1.808595,-0.436974,-0.097925,7.8,22.44,-31.26,323.1087,20.0527,0.9195,55.81406,37.500244,212.6166,NaN,0.0,8.0,,19 / 20,,3654,2021-05-04 15:55:51:105
-0.196331,-4.113364,9.77343,-0.04897,-3.726918,9.070724,-1.721852,-0.337403,-0.113807,7.8,22.44,-31.26,323.1087,20.0527,0.9195,55.81406,37.500244,212.6166,NaN,0.0,8.0,,19 / 20,,3663,2021-05-04 15:55:51:114
-0.148445,-4.142095,9.799767,0.026667,-4.040049,8.935752,-1.64977,-0.282425,-0.140074,6.9,23.58,-30.48,323.1087,20.0527,0.9195,55.81406,37.500244,212.6166,NaN,0.0,8.0,,19 / 20,,3673,2021-05-04 15:55:51:124
-0.126897,-4.142095,10.125388,0.026667,-4.040049,8.935752,-1.53676,-0.217062,-0.178559,6.9,23.58,-30.48,323.1087,20.0527,0.9195,55.81406,37.500244,212.6166,NaN,0.0,8.0,,19 / 20,,3684,2021-05-04 15:55:51:135
0.131685,-4.16125,9.783007,0.083611,-4.315257,8.805789,-1.297912,-0.33557,-0.231704,6.24,25.02,-29.82,329.7175,24.3287,-0.171,55.81406,37.500244,212.6166,NaN,0.0,8.0,,19 / 20,,3693,2021-05-04 15:55:51:144
-0.354353,-4.350397,9.725544,0.083611,-4.315257,8.805789,-1.214834,-0.345955,-0.213989,6.24,25.02,-29.82,329.7175,24.3287,-0.171,55.81406,37.500248,212.0503,NaN,0.0,8.0,,19 / 20,,3703,2021-05-04 15:55:51:154
-0.354353,-4.350397,9.725544,0.160871,-4.536492,8.692795,-1.215445,-0.392992,-0.231093,5.76,26.4,-28.86,329.7175,24.3287,-0.171,55.81406,37.500248,212.0503,NaN,0.0,8.0,,19 / 20,,3713,2021-05-04 15:55:51:164
0.493221,-4.211529,8.523619,0.160871,-4.536492,8.692795,-1.283251,-0.467517,-0.325777,5.76,26.4,-28.86,329.7175,24.3287,-0.171,55.81406,37.500248,212.0503,NaN,0.0,8.0,,19 / 20,,3724,2021-05-04 15:55:51:175
0.411815,-4.393494,8.3225,0.259498,-4.747011,8.577231,-1.342505,-0.420481,-0.323334,5.04,27.66,-27.72,335.1561,27.5546,-1.0602,55.81406,37.500248,212.0503,NaN,0.0,8.0,,19 / 20,,3733,2021-05-04 15:55:51:184
-0.435758,-4.778972,9.402317,0.259498,-4.747011,8.577231,-1.314405,-0.226225,-0.245143,5.04,27.66,-27.72,335.1561,27.5546,-1.0602,55.81406,37.500248,212.0503,NaN,0.0,8.0,,19 / 20,,3743,2021-05-04 15:55:51:194
-0.22985,-4.745453,9.505271,0.340828,-4.971874,8.445984,-1.172074,-0.27876,-0.218265,4.8,28.2,-26.88,335.1561,27.5546,-1.0602,55.81406,37.500248,212.0503,NaN,0.0,8.0,,19 / 20,,3753,2021-05-04 15:55:51:204
-0.22985,-4.745453,9.505271,0.340828,-4.971874,8.445984,-1.057842,-0.279982,-0.190776,4.8,28.2,-26.88,335.1561,27.5546,-1.0602,55.81406,37.500248,212.0503,NaN,0.0,8.0,,19 / 20,,3763,2021-05-04 15:55:51:214
0.098165,-4.774184,9.682447,0.406893,-5.157624,8.330888,-0.974764,-0.168193,-0.154124,4.68,28.68,-26.34,333.1269,30.4636,-2.3109,55.81406,37.500248,212.0503,NaN,0.0,8.0,,19 / 20,,3773,2021-05-04 15:55:51:224
0.287313,-4.585036,10.010463,0.406893,-5.157624,8.330888,-0.85198,-0.085726,-0.137631,4.68,28.68,-26.34,333.1269,30.4636,-2.3109,55.81406,37.500248,212.0503,NaN,0.0,8.0,,19 / 20,,3784,2021-05-04 15:55:51:235
0.150839,-4.714327,9.534002,0.446633,-5.310476,8.232236,-0.709649,-0.122989,-0.099757,3.9,29.7,-26.1,333.1269,30.4636,-2.3109,55.81406,37.500248,212.0503,NaN,0.0,8.0,,19 / 20,,3794,2021-05-04 15:55:51:245
0.366324,-4.771789,9.301758,0.446633,-5.310476,8.232236,-0.639399,-0.10955,-0.085097,3.9,29.7,-26.1,333.1269,30.4636,-2.3109,55.81406,37.500248,212.0503,NaN,0.0,8.0,,19 / 20,,3803,2021-05-04 15:55:51:254
0.366324,-4.771789,9.301758,0.47428,-5.42043,8.158698,-0.567317,-0.025862,-0.106477,3.84,30.72,-25.74,335.9743,32.787,-3.1055,55.81406,37.500248,212.0503,NaN,0.0,8.0,,19 / 20,,3813,2021-05-04 15:55:51:264
0.586597,-4.661653,8.526012,0.47428,-5.42043,8.158698,-0.48424,0.058438,-0.149237,3.84,30.72,-25.74,335.9743,32.787,-3.1055,55.81406,37.500248,212.0503,NaN,0.0,8.0,,19 / 20,,3823,2021-05-04 15:55:51:274
-0.320833,-4.776578,7.652103,0.486451,-5.502977,8.102527,-0.481796,0.156176,-0.106477,3.9,31.08,-25.08,335.9743,32.787,-3.1055,55.81406,37.500248,212.0503,NaN,0.0,8.0,,19 / 20,,3833,2021-05-04 15:55:51:284
-0.804476,-4.776578,7.300144,0.486451,-5.502977,8.102527,-0.514783,0.191606,-0.028897,3.9,31.08,-25.08,335.9743,32.787,-3.1055,55.81406,37.500248,212.0503,NaN,0.0,8.0,,19 / 20,,3843,2021-05-04 15:55:51:294
-0.804476,-4.776578,7.300144,0.467089,-5.580305,8.050614,-0.530665,0.214208,0.019972,3.9,31.02,-24.6,335.0273,34.1352,-3.4357,55.81406,37.500248,212.0503,NaN,0.0,8.0,,19 / 20,,3853,2021-05-04 15:55:51:304
-0.442941,-4.63771,7.836462,0.467089,-5.580305,8.050614,-0.530665,0.214208,0.019972,3.9,31.02,-24.6,335.0273,34.1352,-3.4357,55.81406,37.500248,212.0503,NaN,0.0,8.0,,19 / 20,,3863,2021-05-04 15:55:51:314
-0.244216,-4.70475,8.444607,0.427055,-5.664564,7.993789,-0.535552,0.255747,0.056624,4.02,31.56,-24.54,335.0273,34.1352,-3.4357,55.81406,37.500248,212.0503,NaN,0.0,8.0,,19 / 20,,3873,2021-05-04 15:55:51:324
0.193936,-4.520391,8.277008,0.427055,-5.664564,7.993789,-0.479353,0.279571,0.087167,4.02,31.56,-24.54,335.0273,34.1352,-3.4357,55.81406,37.500248,212.0503,NaN,0.0,8.0,,19 / 20,,3883,2021-05-04 15:55:51:334
0.193936,-4.520391,8.277008,0.372677,-5.740393,7.942249,-0.428651,0.25025,0.095109,3.9,31.68,-23.82,336.9591,35.2837,-3.058,55.81406,37.500248,212.0503,NaN,0.0,8.0,,19 / 20,,3893,2021-05-04 15:55:51:344
0.395055,-4.855589,8.006456,0.372677,-5.740393,7.942249,-0.403605,0.304006,0.115878,3.9,31.68,-23.82,336.9591,35.2837,-3.058,55.81406,37.500248,212.0503,NaN,0.0,8.0,,19 / 20,,3903,2021-05-04 15:55:51:354
0.598569,-5.054314,7.860404,0.311612,-5.803201,7.899119,-0.374284,0.361427,0.094498,4.68,32.16,-23.16,336.9591,35.2837,-3.058,55.81406,37.500248,212.0503,NaN,0.0,8.0,,19 / 20,,3914,2021-05-04 15:55:51:365
0.742225,-5.348809,7.529995,0.311612,-5.803201,7.899119,-0.340075,0.318666,0.045629,4.68,32.16,-23.16,336.9591,35.2837,-3.058,55.81406,37.500248,212.0503,NaN,0.0,8.0,,19 / 20,,3924,2021-05-04 15:55:51:375
0.639271,-5.31529,7.441406,0.311612,-5.803201,7.899119,-0.33641,0.24353,-0.014236,4.68,32.16,-23.16,336.9591,35.2837,-3.058,55.81406,37.500248,212.0503,NaN,0.0,8.0,,19 / 20,,3934,2021-05-04 15:55:51:385
0.639271,-5.31529,7.441406,0.253934,-5.857085,7.861326,-0.448199,0.239254,-0.060662,5.34,32.34,-23.52,333.1165,36.2822,-2.2591,55.81406,37.500248,212.0503,NaN,0.0,8.0,,19 / 20,,3944,2021-05-04 15:55:51:395
0.38069,-5.375147,7.654497,0.221382,-5.916884,7.817406,-0.464081,0.214819,-0.062495,5.22,32.16,-23.64,333.1165,36.2822,-2.2591,55.81406,37.500248,212.0503,NaN,0.0,8.0,,19 / 20,,3954,2021-05-04 15:55:51:405
0.452518,-5.308107,8.27222,0.221382,-5.916884,7.817406,-0.426818,0.177557,-0.07349,5.22,32.16,-23.64,333.1165,36.2822,-2.2591,55.81406,37.500248,212.0503,NaN,0.0,8.0,,19 / 20,,3963,2021-05-04 15:55:51:414
0.371113,-5.267404,8.832479,0.19901,-5.98568,7.765459,-0.390777,0.198937,-0.058219,5.4,32.88,-23.88,334.1272,37.6162,-1.468,55.81406,37.500248,212.0503,NaN,0.0,8.0,,19 / 20,,3973,2021-05-04 15:55:51:424
0.433364,-5.466129,8.777411,0.19901,-5.98568,7.765459,-0.390777,0.198937,-0.058219,5.4,32.88,-23.88,334.1272,37.6162,-1.468,55.81406,37.500248,212.0503,NaN,0.0,8.0,,19 / 20,,3983,2021-05-04 15:55:51:434
0.433364,-5.466129,8.777411,0.172881,-6.043334,7.721305,-0.366343,0.239254,-0.040503,5.22,33.18,-23.22,334.1272,37.6162,-1.468,55.81406,37.500248,212.0503,NaN,0.0,8.0,,19 / 20,,3993,2021-05-04 15:55:51:444
0.474066,-5.600209,8.626573,0.172881,-6.043334,7.721305,-0.349238,0.270408,-0.042336,5.22,33.18,-23.22,334.1272,37.6162,-1.468,55.81406,37.500248,212.0503,NaN,0.0,8.0,,19 / 20,,4003,2021-05-04 15:55:51:454
0.464489,-5.688797,8.135746,0.137309,-6.094757,7.681496,-0.324193,0.277128,-0.064327,4.92,33.12,-22.5,336.2912,38.0427,-1.2826,55.81406,37.500248,212.0503,NaN,0.0,8.0,,19 / 20,,4014,2021-05-04 15:55:51:465
0.169994,-5.664854,8.083072,0.137309,-6.094757,7.681496,-0.312586,0.267354,-0.074101,4.92,33.12,-22.5,336.2912,38.0427,-1.2826,55.81406,37.500248,212.0503,NaN,0.0,8.0,,19 / 20,,4023,2021-05-04 15:55:51:474
-0.165205,-5.502043,8.231517,0.10724,-6.140334,7.645595,-0.296704,0.252082,-0.078377,5.46,33.54,-22.68,336.2912,38.0427,-1.2826,55.81406,37.500248,212.0503,NaN,0.0,8.0,,19 / 20,,4033,2021-05-04 15:55:51:484
-0.165205,-5.502043,8.231517,0.10724,-6.140334,7.645595,-0.277767,0.209932,-0.075323,5.46,33.54,-22.68,336.2912,38.0427,-1.2826,55.81406,37.500248,212.0503,NaN,0.0,8.0,,19 / 20,,4043,2021-05-04 15:55:51:494
-0.196331,-5.470917,8.30574,0.083854,-6.181529,7.612621,-0.288763,0.187941,-0.041114,5.82,33.9,-21.9,333.7462,38.7659,-0.8036,55.81406,37.500248,212.0503,NaN,0.0,8.0,,19 / 20,,4054,2021-05-04 15:55:51:505
0.33041,-5.389512,8.660092,0.083854,-6.181529,7.612621,-0.310754,0.186109,-0.006906,5.82,33.9,-21.9,333.7462,38.7659,-0.8036,55.81406,37.500248,212.0503,NaN,0.0,8.0,,19 / 20,,4064,2021-05-04 15:55:51:515
0.531529,-5.466129,9.119793,0.056536,-6.226315,7.576287,-0.308921,0.195272,-0.012404,5.52,33.42,-21.42,333.7462,38.7659,-0.8036,55.81406,37.500248,212.0503,NaN,0.0,8.0,,19 / 20,,4074,2021-05-04 15:55:51:525
0.31365,-5.470917,9.083879,0.056536,-6.226315,7.576287,-0.277767,0.205656,-0.03134,5.52,33.42,-21.42,333.7462,38.7659,-0.8036,55.81406,37.500248,212.0503,NaN,0.0,8.0,,19 / 20,,4083,2021-05-04 15:55:51:534
0.31365,-5.470917,9.083879,0.030606,-6.264644,7.544776,-0.218513,0.190996,-0.047223,5.4,33.48,-21.6,335.9133,39.4131,-0.4275,55.81406,37.500248,212.0503,NaN,0.0,8.0,,19 / 20,,4094,2021-05-04 15:55:51:545
-0.062251,-5.451763,8.425453,0.030606,-6.264644,7.544776,-0.168422,0.135407,-0.05211,5.4,33.48,-21.6,335.9133,39.4131,-0.4275,55.81406,37.500248,212.0503,NaN,0.0,8.0,,19 / 20,,4103,2021-05-04 15:55:51:554
-0.294496,-5.353598,8.209969,0.017581,-6.287377,7.525881,-0.132992,0.090814,-0.030119,5.4,33.54,-21.72,335.9133,39.4131,-0.4275,55.81406,37.500248,212.0503,NaN,0.0,8.0,,19 / 20,,4113,2021-05-04 15:55:51:564
-0.272947,-5.243461,7.987301,0.017581,-6.287377,7.525881,-0.143988,0.098144,0.012642,5.4,33.54,-21.72,335.9133,39.4131,-0.4275,55.81406,37.500248,212.0503,NaN,0.0,8.0,,19 / 20,,4124,2021-05-04 15:55:51:575
-0.272947,-5.243461,7.987301,0.001048,-6.307017,7.509453,-0.174531,0.106085,0.044407,5.34,33.24,-22.08,335.7769,39.8765,-0.1338,55.81406,37.500248,212.0503,NaN,0.0,8.0,,19 / 20,,4133,2021-05-04 15:55:51:584
0.433364,-5.047131,7.889136,0.001048,-6.307017,7.509453,-0.208739,0.076153,0.007144,5.34,33.24,-22.08,335.7769,39.8765,-0.1338,55.81406,37.500248,212.0503,NaN,0.0,8.0,,19 / 20,,4144,2021-05-04 15:55:51:595
0.713494,-5.039948,8.118986,-0.012982,-6.335263,7.485627,-0.20202,0.068823,-0.050888,5.04,34.08,-22.02,335.7769,39.8765,-0.1338,55.81406,37.500248,212.0503,NaN,0.0,8.0,,19 / 20,,4154,2021-05-04 15:55:51:605
0.035914,-4.838829,8.324894,-0.012982,-6.335263,7.485627,-0.163535,0.087759,-0.100979,5.04,34.08,-22.02,335.7769,39.8765,-0.1338,55.81406,37.500248,212.0503,NaN,0.0,8.0,,19 / 20,,4163,2021-05-04 15:55:51:614
0.035914,-4.838829,8.324894,-0.012943,-6.359794,7.464793,-0.132992,0.084705,-0.088151,5.1,34.74,-21.54,338.3469,40.242,0.0994,55.81406,37.500248,212.0503,NaN,0.0,8.0,,19 / 20,,4174,2021-05-04 15:55:51:625
0.026337,-4.625739,7.762239,-0.012943,-6.359794,7.464793,-0.11711,0.055994,-0.074101,5.1,34.74,-21.54,338.3469,40.242,0.0994,55.81406,37.500248,212.0503,NaN,0.0,8.0,,19 / 20,,4183,2021-05-04 15:55:51:634
0.081405,-4.575459,7.668863,-0.01276,-6.376212,7.450781,-0.136046,0.067601,-0.04539,5.22,34.5,-21.36,338.3469,40.242,0.0994,55.81406,37.500248,212.0503,NaN,0.0,8.0,,19 / 20,,4193,2021-05-04 15:55:51:644
-0.03352,-4.628133,7.738296,-0.01276,-6.376212,7.450781,-0.148264,0.081651,-0.017291,5.22,34.5,-21.36,338.3469,40.242,0.0994,55.81406,37.500248,212.0503,NaN,0.0,8.0,,19 / 20,,4204,2021-05-04 15:55:51:655
-0.007183,-4.932206,7.580274,-0.019181,-6.394514,7.435065,-0.169033,0.048664,-0.005684,5.04,34.38,-21.36,337.8141,40.5561,0.0981,55.81406,37.500248,212.0503,NaN,0.0,8.0,,19 / 20,,4213,2021-05-04 15:55:51:664
-0.007183,-4.932206,7.580274,-0.019181,-6.394514,7.435065,-0.169033,0.048664,-0.005684,5.04,34.38,-21.36,337.8141,40.5561,0.0981,55.81406,37.500248,212.0503,NaN,0.0,8.0,,19 / 20,,4224,2021-05-04 15:55:51:675
0.210696,-5.140508,7.838856,-0.023412,-6.418061,7.414732,-0.186137,0.013234,-0.017901,5.16,34.62,-21.12,337.8141,40.5561,0.0981,55.81406,37.500248,212.0503,NaN,0.0,8.0,,19 / 20,,4234,2021-05-04 15:55:51:685
0.373507,-5.221913,7.994484,-0.023412,-6.418061,7.414732,-0.200798,0.002238,-0.044169,5.16,34.62,-21.12,337.8141,40.5561,0.0981,55.81406,37.500248,212.0503,NaN,0.0,8.0,,19 / 20,,4244,2021-05-04 15:55:51:695
0.390267,-5.126142,8.174054,-0.017916,-6.445612,7.390809,-0.20935,4.06E-4,-0.069825,5.16,34.5,-21.18,338.7843,40.8787,0.1809,55.81406,37.500248,212.0503,NaN,0.0,8.0,,19 / 20,,4254,2021-05-04 15:55:51:705
0.375901,-5.095017,8.118986,-0.017916,-6.445612,7.390809,-0.218513,0.018121,-0.069825,5.16,34.5,-21.18,338.7843,40.8787,0.1809,55.81406,37.500248,212.0503,NaN,0.0,8.0,,19 / 20,,4264,2021-05-04 15:55:51:715
0.375901,-5.095017,8.118986,-0.009638,-6.474972,7.365115,-0.239893,0.009569,-0.077155,5.04,34.26,-21.36,338.7843,40.8787,0.1809,55.81406,37.500248,212.0503,NaN,0.0,8.0,,19 / 20,,4273,2021-05-04 15:55:51:724
0.433364,-5.020794,8.399116,-0.009638,-6.474972,7.365115,-0.226454,-0.033803,-0.091205,5.04,34.26,-21.36,338.7843,40.8787,0.1809,55.81406,37.500248,212.0503,NaN,0.0,8.0,,19 / 20,,4284,2021-05-04 15:55:51:735
0.076617,-4.925023,8.545167,0.004521,-6.506559,7.337232,-0.205074,-0.039301,-0.095481,4.8,34.14,-20.7,336.9131,41.32,0.075,55.81406,37.500248,212.0503,NaN,0.0,8.0,,19 / 20,,4293,2021-05-04 15:55:51:744
-0.349564,-5.049525,8.561927,0.004521,-6.506559,7.337232,-0.18797,-0.03197,-0.075323,4.8,34.14,-20.7,336.9131,41.32,0.075,55.81406,37.500248,212.0503,NaN,0.0,8.0,,19 / 20,,4303,2021-05-04 15:55:51:754
-0.349564,-5.049525,8.561927,0.020207,-6.53213,7.314454,-0.171477,-0.019142,-0.031951,4.8,34.56,-20.1,336.9131,41.32,0.075,55.81406,37.500248,212.0503,NaN,0.0,8.0,,19 / 20,,4314,2021-05-04 15:55:51:765
-0.390267,-5.174028,8.566715,0.020207,-6.53213,7.314454,-0.119553,-0.039911,-0.001408,4.8,34.56,-20.1,336.9131,41.32,0.075,55.81406,37.500248,212.0503,NaN,0.0,8.0,,19 / 20,,4324,2021-05-04 15:55:51:775
-0.110137,-5.224307,8.794171,0.026591,-6.549754,7.298651,-0.057856,-0.058237,0.007755,5.04,34.74,-20.46,338.438,41.7662,-0.1583,55.81406,37.500248,212.0503,NaN,0.0,8.0,,19 / 20,,4333,2021-05-04 15:55:51:784
0.090982,-5.415849,8.818114,0.026591,-6.549754,7.298651,-0.030367,-0.050907,0.021805,5.04,34.74,-20.46,338.438,41.7662,-0.1583,55.81406,37.500248,212.0503,NaN,0.0,8.0,,19 / 20,,4343,2021-05-04 15:55:51:794
0.026337,-5.533169,9.115005,0.03257,-6.553217,7.295516,-0.051747,-0.031359,0.031579,4.74,34.92,-20.76,338.438,41.7662,-0.1583,55.81406,37.500248,212.0503,NaN,0.0,8.0,,19 / 20,,4354,2021-05-04 15:55:51:805
-0.014366,-5.569083,9.340066,0.03257,-6.553217,7.295516,-0.062132,-0.011201,0.058457,4.74,34.92,-20.76,338.438,41.7662,-0.1583,55.81406,37.500248,212.0503,NaN,0.0,8.0,,19 / 20,,4365,2021-05-04 15:55:51:816
-0.014366,-5.569083,9.340066,0.028069,-6.558955,7.290377,-0.055412,0.005903,0.083502,4.98,35.22,-20.52,337.0343,41.9316,-0.2558,55.81406,37.500248,212.0503,NaN,0.0,8.0,,19 / 20,,4373,2021-05-04 15:55:51:824
-0.069434,-5.633728,9.579494,0.028069,-6.558955,7.290377,-0.033421,0.035836,0.110991,4.98,35.22,-20.52,337.0343,41.9316,-0.2558,55.81406,37.500248,212.0503,NaN,0.0,8.0,,19 / 20,,4383,2021-05-04 15:55:51:834
-0.047885,-5.650488,9.435837,0.010656,-6.561845,7.287826,-0.002267,0.051718,0.126874,4.98,35.1,-20.22,337.0343,41.9316,-0.2558,55.81406,37.500248,212.0503,NaN,0.0,8.0,,19 / 20,,4393,2021-05-04 15:55:51:844
-0.138868,-5.698374,9.205987,0.010656,-6.561845,7.287826,0.023389,0.050497,0.154363,4.98,35.1,-20.22,337.0343,41.9316,-0.2558,55.81406,37.500248,212.0503,NaN,0.0,8.0,,19 / 20,,4403,2021-05-04 15:55:51:854
-0.138868,-5.698374,9.205987,-0.01608,-6.556909,7.292257,0.047213,-0.013033,0.17391,4.68,35.16,-20.22,338.292,41.9993,-0.0838,55.81406,37.500248,212.0503,NaN,0.0,8.0,,19 / 20,,4413,2021-05-04 15:55:51:864
0.186753,-5.763019,8.954588,-0.01608,-6.556909,7.292257,0.032552,-0.03869,0.177575,4.68,35.16,-20.22,338.292,41.9993,-0.0838,55.81406,37.500248,212.0503,NaN,0.0,8.0,,19 / 20,,4423,2021-05-04 15:55:51:874
0.878699,-6.098218,9.131764,-0.035207,-6.548384,7.299849,-0.009597,-8.16E-4,0.156806,5.1,34.98,-20.76,338.292,41.9993,-0.0838,55.81406,37.500248,212.0503,NaN,0.0,8.0,,19 / 20,,4433,2021-05-04 15:55:51:884
0.979258,-6.177229,9.761458,-0.035207,-6.548384,7.299849,0.017892,-0.002649,0.099385,5.1,34.98,-20.76,338.292,41.9993,-0.0838,55.81406,37.500248,212.0503,NaN,0.0,8.0,,19 / 20,,4443,2021-05-04 15:55:51:894
0.524346,-6.30652,9.950606,-0.05113,-6.54526,7.302554,0.077756,-0.045409,0.049905,5.76,34.8,-20.7,333.8453,41.8936,0.2763,55.81406,37.500248,212.0503,NaN,0.0,8.0,,19 / 20,,4453,2021-05-04 15:55:51:904
0.524346,-6.30652,9.950606,-0.05113,-6.54526,7.302554,0.121739,-0.04602,0.056624,5.76,34.8,-20.7,333.8453,41.8936,0.2763,55.81406,37.500248,212.0503,NaN,0.0,8.0,,19 / 20,,4463,2021-05-04 15:55:51:914
0.0838,-6.261029,9.847652,-0.050904,-6.528866,7.317214,0.144952,-0.031359,0.109769,5.46,35.1,-20.46,333.8453,41.8936,0.2763,55.81406,37.500248,212.0503,NaN,0.0,8.0,,19 / 20,,4473,2021-05-04 15:55:51:924
-0.134079,-6.162863,9.378374,-0.050904,-6.528866,7.317214,0.127847,0.009569,0.176354,5.46,35.1,-20.46,333.8453,41.8936,0.2763,55.81406,37.500248,212.0503,NaN,0.0,8.0,,19 / 20,,4484,2021-05-04 15:55:51:935
0.059857,-6.033572,9.105427,-0.067606,-6.507248,7.33631,0.08753,0.03156,0.224001,4.92,35.82,-20.52,339.3192,41.7406,0.3986,55.81406,37.500248,212.0503,NaN,0.0,8.0,,19 / 20,,4494,2021-05-04 15:55:51:945
0.237033,-6.119766,9.189227,-0.067606,-6.507248,7.33631,0.033774,0.047442,0.236219,4.92,35.82,-20.52,339.3192,41.7406,0.3986,55.81406,37.500248,212.0503,NaN,0.0,8.0,,19 / 20,,4504,2021-05-04 15:55:51:955
0.237033,-6.119766,9.189227,-0.102371,-6.495147,7.346622,-0.016317,0.06027,0.231942,5.1,35.4,-20.76,339.3192,41.7406,0.3986,55.81406,37.500248,212.0503,NaN,0.0,8.0,,19 / 20,,4514,2021-05-04 15:55:51:965
0.763774,-6.615381,9.39274,-0.102371,-6.495147,7.346622,-0.089621,0.068823,0.163526,5.1,35.4,-20.76,339.3192,41.7406,0.3986,55.81406,37.500248,212.0503,NaN,0.0,8.0,,19 / 20,,4523,2021-05-04 15:55:51:974
0.847573,-7.539571,9.522031,-0.137768,-6.500598,7.341222,-0.135436,0.082262,0.064565,5.4,34.32,-20.1,338.8176,41.4771,0.7983,55.81406,37.500248,212.0503,NaN,0.0,8.0,,19 / 20,,4533,2021-05-04 15:55:51:984
0.079011,-8.640938,9.771035,-0.137768,-6.500598,7.341222,-0.135436,0.082262,0.064565,5.4,34.32,-20.1,338.8176,41.4771,0.7983,55.81406,37.500248,212.0503,NaN,0.0,8.0,,19 / 20,,4543,2021-05-04 15:55:51:994
-0.538712,-9.14613,9.498088,-0.154209,-6.517442,7.325948,-0.062132,0.030949,-0.008128,5.64,34.5,-19.86,338.8176,41.4771,0.7983,55.81406,37.500248,212.0503,NaN,0.0,8.0,,19 / 20,,4553,2021-05-04 15:55:52:004
-0.538712,-9.14613,9.498088,-0.154209,-6.517442,7.325948,0.068593,-0.069844,-0.025843,5.64,34.5,-19.86,338.8176,41.4771,0.7983,55.81406,37.500248,212.0503,NaN,0.0,8.0,,19 / 20,,4564,2021-05-04 15:55:52:015
-0.996018,-8.875577,9.004868,-0.142518,-6.504451,7.337721,0.23536,-0.091835,0.009588,5.82,34.56,-20.4,336.4202,41.6512,1.2059,55.81406,37.500248,212.0503,NaN,0.0,8.0,,19 / 20,,4574,2021-05-04 15:55:52:025
-0.881093,-8.068706,7.836462,-0.142518,-6.504451,7.337721,0.365474,-0.134596,0.074339,5.82,34.56,-20.4,336.4202,41.6512,1.2059,55.81406,37.500248,212.0503,NaN,0.0,8.0,,19 / 20,,4583,2021-05-04 15:55:52:034
-0.258582,-7.048745,6.95058,-0.132045,-6.452343,7.383777,0.435723,-0.153532,0.116489,6.18,34.08,-20.46,336.4202,41.6512,1.2059,55.81406,37.500248,212.0503,NaN,0.0,8.0,,19 / 20,,4593,2021-05-04 15:55:52:044
-0.112531,-6.335251,6.696787,-0.132045,-6.452343,7.383777,0.449773,-0.148645,0.125041,6.18,34.08,-20.46,336.4202,41.6512,1.2059,55.81406,37.500248,212.0503,NaN,0.0,8.0,,19 / 20,,4604,2021-05-04 15:55:52:055
-0.112531,-6.335251,6.696787,-0.1257,-6.385872,7.441448,0.416176,-0.125433,0.087778,5.88,33.96,-20.52,334.3642,41.1442,1.0245,55.81406,37.500248,212.0503,NaN,0.0,8.0,,19 / 20,,4614,2021-05-04 15:55:52:065
-0.615329,-5.899493,6.926637,-0.1257,-6.385872,7.441448,0.403958,-0.083894,0.049905,5.88,33.96,-20.52,334.3642,41.1442,1.0245,55.81406,37.500248,212.0503,NaN,0.0,8.0,,19 / 20,,4623,2021-05-04 15:55:52:074
-1.134886,-6.021601,6.969734,-0.11953,-6.32552,7.492919,0.383189,-0.030749,0.03952,5.58,33.96,-21.3,334.3642,41.1442,1.0245,55.81406,37.500248,212.0503,NaN,0.0,8.0,,19 / 20,,4634,2021-05-04 15:55:52:085
-1.1708,-6.160469,6.512428,-0.11953,-6.32552,7.492919,0.344705,0.026673,0.040742,5.58,33.96,-21.3,334.3642,41.1442,1.0245,55.81406,37.500248,212.0503,NaN,0.0,8.0,,19 / 20,,4643,2021-05-04 15:55:52:094
-1.1708,-6.160469,6.512428,-0.125062,-6.271126,7.538411,0.263459,0.051107,0.034022,5.46,34.32,-22.02,338.4012,40.1675,0.9139,55.81406,37.500248,212.0503,NaN,0.0,8.0,,19 / 20,,4654,2021-05-04 15:55:52:105
-1.15404,-6.354405,6.016813,-0.125062,-6.271126,7.538411,0.111965,0.054773,0.047461,5.46,34.32,-22.02,338.4012,40.1675,0.9139,55.81406,37.500248,212.0503,NaN,0.0,8.0,,19 / 20,,4663,2021-05-04 15:55:52:114
-1.060664,-6.478907,5.913859,-0.138983,-6.242202,7.562139,0.008118,0.028505,0.069452,5.52,34.2,-21.78,338.4012,40.1675,0.9139,55.81406,37.500248,212.0503,NaN,0.0,8.0,,19 / 20,,4674,2021-05-04 15:55:52:125
-0.612934,-6.639324,6.086247,-0.138983,-6.242202,7.562139,-0.093897,0.015066,0.076172,5.52,34.2,-21.78,338.4012,40.1675,0.9139,55.81406,37.500248,212.0503,NaN,0.0,8.0,,19 / 20,,4683,2021-05-04 15:55:52:134
-0.232245,-6.912271,6.804529,-0.152917,-6.247598,7.557411,-0.157427,0.022397,0.087778,5.64,33.6,-21.54,335.2775,39.5334,1.0529,55.81406,37.500248,212.0503,NaN,0.0,8.0,,19 / 20,,4693,2021-05-04 15:55:52:144
-0.232245,-6.912271,6.804529,-0.152917,-6.247598,7.557411,-0.132381,0.048664,0.092665,5.64,33.6,-21.54,335.2775,39.5334,1.0529,55.81406,37.500248,212.0503,NaN,0.0,8.0,,19 / 20,,4704,2021-05-04 15:55:52:155
-0.129291,-6.952974,7.419858,-0.169167,-6.270798,7.537823,-0.100005,0.057827,0.084724,5.46,33.36,-21.3,335.2775,39.5334,1.0529,55.81406,37.500248,212.0503,NaN,0.0,8.0,,19 / 20,,4713,2021-05-04 15:55:52:164
-0.22985,-6.644112,7.38155,-0.169167,-6.270798,7.537823,-0.03953,0.043166,0.09633,5.46,33.36,-21.3,335.2775,39.5334,1.0529,55.81406,37.500256,210.891,NaN,0.0,8.0,,19 / 20,,4723,2021-05-04 15:55:52:174
-0.31365,-6.057515,7.082265,-0.189221,-6.284264,7.526127,0.008729,0.033392,0.1171,5.7,33.9,-21.72,335.3394,39.7503,1.2856,55.81406,37.500256,210.891,NaN,0.0,8.0,,19 / 20,,4733,2021-05-04 15:55:52:184
-0.038308,-5.327261,6.526793,-0.189221,-6.284264,7.526127,0.017281,-0.002649,0.115878,5.7,33.9,-21.72,335.3394,39.7503,1.2856,55.81406,37.500256,210.891,NaN,0.0,8.0,,19 / 20,,4743,2021-05-04 15:55:52:194
0.047885,-4.67123,6.402291,-0.207007,-6.28252,7.527114,0.022779,-0.049074,0.109159,6.06,34.2,-21.6,335.3394,39.7503,1.2856,55.81406,37.500256,210.891,NaN,0.0,8.0,,19 / 20,,4753,2021-05-04 15:55:52:204
0.047885,-4.67123,6.402291,-0.207007,-6.28252,7.527114,0.050878,-0.124211,0.096941,6.06,34.2,-21.6,335.3394,39.7503,1.2856,55.81406,37.500256,210.891,NaN,0.0,8.0,,19 / 20,,4763,2021-05-04 15:55:52:214
0.074223,-4.266597,6.332857,-0.209473,-6.277351,7.531355,0.091195,-0.220728,0.070674,6.66,34.08,-21.12,332.8799,39.8395,1.5753,55.81406,37.500256,210.891,NaN,0.0,8.0,,19 / 20,,4773,2021-05-04 15:55:52:224
0.208302,-3.912245,6.071881,-0.209473,-6.277351,7.531355,0.081422,-0.274484,0.022416,6.66,34.08,-21.12,332.8799,39.8395,1.5753,55.81406,37.500256,210.891,NaN,0.0,8.0,,19 / 20,,4783,2021-05-04 15:55:52:234
-0.153234,-3.902668,5.619363,-0.181668,-6.263849,7.543307,0.025833,-0.281814,-0.013625,6.54,34.02,-21.3,332.8799,39.8395,1.5753,55.81406,37.500256,210.891,NaN,0.0,8.0,,19 / 20,,4793,2021-05-04 15:55:52:244
-0.153234,-3.902668,5.619363,-0.181668,-6.263849,7.543307,-0.046249,-0.292199,-0.039893,6.54,34.02,-21.3,332.8799,39.8395,1.5753,55.81406,37.500256,210.891,NaN,0.0,8.0,,19 / 20,,4804,2021-05-04 15:55:52:255
-0.591386,-4.156461,5.504438,-0.13602,-6.26283,7.545115,-0.102449,-0.314801,-0.036838,5.94,33.66,-21.9,335.0587,39.6898,1.0328,55.81406,37.500256,210.891,NaN,0.0,8.0,,19 / 20,,4814,2021-05-04 15:55:52:265
-0.706311,-4.261809,5.834848,-0.13602,-6.26283,7.545115,-0.164146,-0.31419,-0.020345,5.94,33.66,-21.9,335.0587,39.6898,1.0328,55.81406,37.500256,210.891,NaN,0.0,8.0,,19 / 20,,4823,2021-05-04 15:55:52:274
-0.361535,-4.34082,6.447782,-0.085066,-6.282059,7.529859,-0.181861,-0.279371,0.002257,5.34,33.18,-22.08,335.0587,39.6898,1.0328,55.81406,37.500256,210.891,NaN,0.0,8.0,,19 / 20,,4833,2021-05-04 15:55:52:284
0.011971,-4.415043,6.979311,-0.085066,-6.282059,7.529859,-0.178196,-0.217673,0.008977,5.34,33.18,-22.08,335.0587,39.6898,1.0328,55.81406,37.500256,210.891,NaN,0.0,8.0,,19 / 20,,4844,2021-05-04 15:55:52:295
0.011971,-4.415043,6.979311,-0.047442,-6.309307,7.507378,-0.141544,-0.196293,0.00409,4.86,33.12,-21.66,337.0345,39.836,0.6473,55.81406,37.500256,210.891,NaN,0.0,8.0,,19 / 20,,4854,2021-05-04 15:55:52:305
0.014366,-4.573065,7.23071,-0.047442,-6.309307,7.507378,-0.118942,-0.203623,-0.008738,4.86,33.12,-21.66,337.0345,39.836,0.6473,55.81406,37.500256,210.891,NaN,0.0,8.0,,19 / 20,,4865,2021-05-04 15:55:52:316
-0.079011,-4.709538,7.254653,-0.017299,-6.329445,7.490535,-0.119553,-0.187741,-0.036227,5.04,33.6,-21.36,337.0345,39.836,0.6473,55.81406,37.500256,210.891,NaN,0.0,8.0,,19 / 20,,4874,2021-05-04 15:55:52:325
-0.454912,-4.632921,7.625766,-0.017299,-6.329445,7.490535,-0.107336,-0.177967,-0.056386,5.04,33.6,-21.36,337.0345,39.836,0.6473,55.81406,37.500256,210.891,NaN,0.0,8.0,,19 / 20,,4884,2021-05-04 15:55:52:335
-0.454912,-4.632921,7.625766,0.015331,-6.346144,7.4764,-0.060299,-0.223171,-0.063105,5.94,33.84,-21.0,334.3739,40.1975,0.1323,55.81406,37.500256,210.891,NaN,0.0,8.0,,19 / 20,,4893,2021-05-04 15:55:52:344
-0.648848,-4.726298,7.735902,0.015331,-6.346144,7.4764,-0.043195,-0.228669,-0.050277,5.94,33.84,-21.0,334.3739,40.1975,0.1323,55.81406,37.500256,210.891,NaN,0.0,8.0,,19 / 20,,4903,2021-05-04 15:55:52:354
-0.69434,-5.054314,7.802942,0.055885,-6.353152,7.470253,-0.068851,-0.188352,-0.023399,5.28,33.42,-21.06,334.3739,40.1975,0.1323,55.81406,37.500256,210.891,NaN,0.0,8.0,,19 / 20,,4913,2021-05-04 15:55:52:364
-0.758985,-5.475706,8.118986,0.055885,-6.353152,7.470253,-0.085345,-0.143148,0.010198,5.28,33.42,-21.06,334.3739,40.1975,0.1323,55.81406,37.500256,210.891,NaN,0.0,8.0,,19 / 20,,4924,2021-05-04 15:55:52:375
-0.505192,-5.727105,8.442213,0.082335,-6.362747,7.461838,-0.079847,-0.139483,0.026081,4.5,33.84,-20.82,337.2871,40.379,-0.4286,55.81406,37.500256,210.891,NaN,0.0,8.0,,19 / 20,,4933,2021-05-04 15:55:52:384
-0.505192,-5.727105,8.442213,0.082335,-6.362747,7.461838,-0.041973,-0.138872,0.009588,4.5,33.84,-20.82,337.2871,40.379,-0.4286,55.81406,37.500256,210.891,NaN,0.0,8.0,,19 / 20,,4943,2021-05-04 15:55:52:394
-0.153234,-5.791751,9.12937,0.099519,-6.370895,7.454674,-0.010208,-0.113215,4.25E-4,4.92,34.38,-20.1,337.2871,40.379,-0.4286,55.81406,37.500256,210.891,NaN,0.0,8.0,,19 / 20,,4953,2021-05-04 15:55:52:404
-0.148445,-5.933013,9.658504,0.099519,-6.370895,7.454674,0.034996,-0.083894,-0.013625,4.92,34.38,-20.1,337.2871,40.379,-0.4286,55.81406,37.500256,210.891,NaN,0.0,8.0,,19 / 20,,4964,2021-05-04 15:55:52:415
-0.057463,-6.035967,10.029617,0.113731,-6.367164,7.457653,0.090585,-0.096111,-0.04539,4.86,33.96,-20.64,336.6832,40.5153,-0.7648,55.81406,37.500256,210.891,NaN,0.0,8.0,,19 / 20,,4973,2021-05-04 15:55:52:424
-0.086194,-6.337645,10.024829,0.113731,-6.367164,7.457653,0.132123,-0.105885,-0.063716,4.86,33.96,-20.64,336.6832,40.5153,-0.7648,55.81406,37.500256,210.891,NaN,0.0,8.0,,19 / 20,,4983,2021-05-04 15:55:52:434
-0.086194,-6.337645,10.024829,0.134281,-6.348867,7.472895,0.121128,-0.103441,-0.085707,4.56,33.72,-20.82,336.6832,40.5153,-0.7648,55.81406,37.500256,210.891,NaN,0.0,8.0,,19 / 20,,4994,2021-05-04 15:55:52:445
-0.141262,-6.65369,9.823709,0.134281,-6.348867,7.472895,0.103413,-0.083283,-0.111364,4.56,33.72,-20.82,336.6832,40.5153,-0.7648,55.81406,37.500256,210.891,NaN,0.0,8.0,,19 / 20,,5003,2021-05-04 15:55:52:454
-0.270553,-6.790163,9.833286,0.159579,-6.329734,7.488615,0.10158,-0.074731,-0.135188,4.5,33.84,-20.58,336.5216,40.3462,-1.0294,55.81406,37.500256,210.891,NaN,0.0,8.0,,19 / 20,,5014,2021-05-04 15:55:52:465
-0.519558,-6.785374,9.780613,0.159579,-6.329734,7.488615,0.042937,-0.045409,-0.174894,4.5,33.84,-20.58,336.5216,40.3462,-1.0294,55.81406,37.500256,210.891,NaN,0.0,8.0,,19 / 20,,5023,2021-05-04 15:55:52:474
-0.883487,-6.689604,9.433443,0.187771,-6.315713,7.49979,-0.045638,-0.033192,-0.190776,4.14,33.6,-21.0,336.5216,40.3462,-1.0294,55.81406,37.500256,210.891,NaN,0.0,8.0,,19 / 20,,5033,2021-05-04 15:55:52:484
-0.883487,-6.689604,9.433443,0.187771,-6.315713,7.49979,-0.272269,-0.00326,-0.138242,4.14,33.6,-21.0,336.5216,40.3462,-1.0294,55.81406,37.500256,210.891,NaN,0.0,8.0,,19 / 20,,5044,2021-05-04 15:55:52:495
-0.565049,-7.939415,9.093455,0.212219,-6.336144,7.481885,-0.422542,0.066379,-0.050277,4.02,33.42,-20.58,339.005,40.0925,-1.4342,55.81406,37.500256,210.891,NaN,0.0,8.0,,19 / 20,,5053,2021-05-04 15:55:52:504
0.148445,-9.553157,9.385557,0.212219,-6.336144,7.481885,-0.506842,0.136018,0.027913,4.02,33.42,-20.58,339.005,40.0925,-1.4342,55.81406,37.500256,210.891,NaN,0.0,8.0,,19 / 20,,5063,2021-05-04 15:55:52:514
0.33041,-10.642551,10.374393,0.198938,-6.40525,7.423172,-0.409714,0.149457,0.057846,3.6,33.66,-20.34,339.005,40.0925,-1.4342,55.81406,37.500256,210.891,NaN,0.0,8.0,,19 / 20,,5074,2021-05-04 15:55:52:525
0.562655,-10.903527,11.028029,0.198938,-6.40525,7.423172,-0.023647,0.131131,0.084724,3.6,33.66,-20.34,339.005,40.0925,-1.4342,55.81406,37.500256,210.891,NaN,0.0,8.0,,19 / 20,,5083,2021-05-04 15:55:52:534
0.780534,-9.859624,10.113417,0.167891,-6.444484,7.389908,0.315383,0.057216,0.035244,3.9,33.78,-20.28,340.4331,40.7798,-1.5351,55.81406,37.500256,210.891,NaN,0.0,8.0,,19 / 20,,5093,2021-05-04 15:55:52:544
0.773351,-8.174054,8.447001,0.167891,-6.444484,7.389908,0.538349,-0.018531,-0.027675,3.9,33.78,-20.28,340.4331,40.7798,-1.5351,55.81406,37.500256,210.891,NaN,0.0,8.0,,19 / 20,,5105,2021-05-04 15:55:52:556
0.773351,-8.174054,8.447001,0.159366,-6.390152,7.437129,0.600657,-0.071676,-0.074101,4.32,33.78,-20.34,340.4331,40.7798,-1.5351,55.81406,37.500256,210.891,NaN,0.0,8.0,,19 / 20,,5114,2021-05-04 15:55:52:565
0.996018,-6.828471,7.276201,0.159366,-6.390152,7.437129,0.52491,-0.0674,-0.09426,4.32,33.78,-20.34,340.4331,40.7798,-1.5351,55.81406,37.500256,210.891,NaN,0.0,8.0,,19 / 20,,5123,2021-05-04 15:55:52:574
1.422199,-5.944984,6.533976,0.179016,-6.304547,7.509394,0.374026,0.00346,-0.112586,3.54,33.84,-20.82,339.9128,40.6634,-1.2276,55.81406,37.500256,210.891,NaN,0.0,8.0,,19 / 20,,5133,2021-05-04 15:55:52:584
1.628107,-5.82527,6.328069,0.179016,-6.304547,7.509394,0.165721,0.088981,-0.147405,3.54,33.84,-20.82,339.9128,40.6634,-1.2276,55.81406,37.500256,210.891,NaN,0.0,8.0,,19 / 20,,5143,2021-05-04 15:55:52:594
1.628107,-5.82527,6.328069,0.189264,-6.262167,7.544519,0.033163,0.17328,-0.170007,3.54,33.9,-21.12,339.9128,40.6634,-1.2276,55.81406,37.500256,210.891,NaN,0.0,8.0,,19 / 20,,5154,2021-05-04 15:55:52:605
1.118126,-6.371165,6.311309,0.189264,-6.262167,7.544519,-0.111612,0.323553,-0.15107,3.54,33.9,-21.12,339.9128,40.6634,-1.2276,55.81406,37.500256,210.891,NaN,0.0,8.0,,19 / 20,,5163,2021-05-04 15:55:52:614
0.28013,-7.276201,6.387925,0.175752,-6.266548,7.541204,-0.198355,0.391359,-0.095481,3.9,33.72,-21.6,339.5226,39.6848,-1.437,55.81406,37.500256,210.891,NaN,0.0,8.0,,19 / 20,,5173,2021-05-04 15:55:52:624
0.28013,-7.276201,6.387925,0.175752,-6.266548,7.541204,-0.198355,0.391359,-0.095481,3.9,33.72,-21.6,339.5226,39.6848,-1.437,55.81406,37.500256,210.891,NaN,0.0,8.0,,19 / 20,,5183,2021-05-04 15:55:52:634
0.181965,-8.02082,6.536371,0.154532,-6.280196,7.530307,-0.263717,0.409074,-0.047223,3.6,33.6,-21.24,339.5226,39.6848,-1.437,55.81406,37.500256,210.891,NaN,0.0,8.0,,19 / 20,,5194,2021-05-04 15:55:52:645
0.622511,-8.425453,7.532389,0.095813,-6.325886,7.492951,-0.329691,0.428622,-0.004462,3.9,33.9,-20.82,339.5226,39.6848,-1.437,55.81406,37.500256,210.891,NaN,0.0,8.0,,19 / 20,,5203,2021-05-04 15:55:52:654
0.395055,-8.279402,8.090255,0.095813,-6.325886,7.492951,-0.281432,0.395635,-0.011182,3.9,33.9,-20.82,339.5226,39.6848,-1.437,55.81406,37.500256,210.891,NaN,0.0,8.0,,19 / 20,,5213,2021-05-04 15:55:52:664
0.165205,-7.434223,8.030398,0.041066,-6.366829,7.458694,-0.167811,0.333327,-0.014236,4.5,33.84,-21.0,337.1085,40.1703,-0.7326,55.81406,37.500256,210.891,NaN,0.0,8.0,,19 / 20,,5224,2021-05-04 15:55:52:675
0.165205,-7.434223,8.030398,0.041066,-6.366829,7.458694,0.013005,0.271019,0.005311,4.5,33.84,-21.0,337.1085,40.1703,-0.7326,55.81406,37.500256,210.891,NaN,0.0,8.0,,19 / 20,,5233,2021-05-04 15:55:52:684
0.332804,-6.141315,6.948186,0.001346,-6.369482,7.456541,0.098526,0.214208,-0.002019,4.5,33.9,-20.94,337.1085,40.1703,-0.7326,55.81406,37.500256,210.891,NaN,0.0,8.0,,19 / 20,,5243,2021-05-04 15:55:52:694
0.335198,-5.171633,5.95935,0.001346,-6.369482,7.456541,0.126015,0.162285,-0.024621,4.5,33.9,-20.94,337.1085,40.1703,-0.7326,55.81406,37.500256,210.891,NaN,0.0,8.0,,19 / 20,,5253,2021-05-04 15:55:52:704
-0.268159,-4.58743,5.344022,-0.020375,-6.352387,7.471086,0.120517,0.10914,-0.039282,3.96,34.08,-20.28,342.7106,40.5044,-0.0103,55.81406,37.500256,210.891,NaN,0.0,8.0,,19 / 20,,5264,2021-05-04 15:55:52:715
-0.541106,-4.201952,5.16924,-0.020375,-6.352387,7.471086,0.085698,0.050497,-0.012404,3.96,34.08,-20.28,342.7106,40.5044,-0.0103,55.81406,37.500256,210.891,NaN,0.0,8.0,,19 / 20,,5274,2021-05-04 15:55:52:725
-0.541106,-4.201952,5.16924,-0.020375,-6.352387,7.471086,0.043548,0.016288,0.043796,3.96,34.08,-20.28,342.7106,40.5044,-0.0103,55.81406,37.500256,210.891,NaN,0.0,8.0,,19 / 20,,5283,2021-05-04 15:55:52:734
-0.38069,-3.945765,5.379936,-0.027815,-6.340265,7.481354,0.041105,-0.012423,0.064565,3.9,34.62,-20.28,342.7106,40.5044,-0.0103,55.81406,37.500256,210.891,NaN,0.0,8.0,,19 / 20,,5293,2021-05-04 15:55:52:744
0.260976,-3.823657,5.602603,-0.034682,-6.333951,7.486665,0.072259,-2.05E-4,0.051126,4.38,34.2,-19.8,343.1951,40.2803,0.213,55.81406,37.500256,210.891,NaN,0.0,8.0,,19 / 20,,5303,2021-05-04 15:55:52:754
0.533923,-3.749434,5.39909,-0.034682,-6.333951,7.486665,0.105245,0.026673,-1.86E-4,4.38,34.2,-19.8,343.1951,40.2803,0.213,55.81406,37.500256,210.891,NaN,0.0,8.0,,19 / 20,,5314,2021-05-04 15:55:52:765
0.533923,-3.749434,5.39909,-0.039797,-6.320045,7.498382,0.075924,0.082262,-0.041114,5.16,33.42,-20.16,343.1951,40.2803,0.213,55.81406,37.500256,210.891,NaN,0.0,8.0,,19 / 20,,5323,2021-05-04 15:55:52:774
0.184359,-3.7638,5.463735,-0.039797,-6.320045,7.498382,0.075924,0.082262,-0.041114,5.16,33.42,-20.16,343.1951,40.2803,0.213,55.81406,37.500256,210.891,NaN,0.0,8.0,,19 / 20,,5333,2021-05-04 15:55:52:784
0.256187,-3.756617,5.643306,-0.049534,-6.310204,7.506608,-0.005932,0.169615,-0.033173,5.16,34.38,-20.58,338.5577,40.1256,0.3041,55.81406,37.500256,210.891,NaN,0.0,8.0,,19 / 20,,5344,2021-05-04 15:55:52:795
0.457306,-3.766194,6.153287,-0.059957,-6.310174,7.506562,0.005674,0.186109,-0.036227,5.16,34.38,-20.58,338.5577,40.1256,0.3041,55.81406,37.500256,210.891,NaN,0.0,8.0,,19 / 20,,5353,2021-05-04 15:55:52:804
0.672791,-3.96013,6.601016,-0.059957,-6.310174,7.506562,0.027055,0.197715,-0.034395,4.14,34.56,-20.22,338.5577,40.1256,0.3041,55.81406,37.500256,210.891,NaN,0.0,8.0,,19 / 20,,5363,2021-05-04 15:55:52:814
0.672791,-3.96013,6.601016,-0.083941,-6.308581,7.50767,0.027055,0.197715,-0.034395,4.14,34.56,-20.22,338.5577,40.1256,0.3041,55.81406,37.500256,210.891,NaN,0.0,8.0,,19 / 20,,5373,2021-05-04 15:55:52:824
0.773351,-4.16125,6.742278,-0.083941,-6.308581,7.50767,0.029498,0.18733,-0.035616,3.96,34.2,-21.12,343.23,40.0381,0.6406,55.81406,37.500256,210.891,NaN,0.0,8.0,,19 / 20,,5383,2021-05-04 15:55:52:834
0.696734,-4.448562,7.043957,-0.107511,-6.304299,7.51096,0.031331,0.18,-0.040503,3.96,34.2,-21.12,343.23,40.0381,0.6406,55.81406,37.500256,210.891,NaN,0.0,8.0,,19 / 20,,5393,2021-05-04 15:55:52:844
0.404632,-4.711932,7.228316,-0.107511,-6.304299,7.51096,0.050267,0.152511,-0.058829,4.8,34.8,-21.48,343.23,40.0381,0.6406,55.81406,37.500256,210.891,NaN,0.0,8.0,,19 / 20,,5403,2021-05-04 15:55:52:854
0.0838,-5.054314,7.362395,-0.124515,-6.297131,7.516714,0.06615,0.122579,-0.061273,4.8,34.8,-21.48,343.23,40.0381,0.6406,55.81406,37.500256,210.891,NaN,0.0,8.0,,19 / 20,,5413,2021-05-04 15:55:52:864
0.0838,-5.054314,7.362395,-0.124515,-6.297131,7.516714,0.060652,0.115248,-0.052721,5.16,34.68,-20.88,340.7165,39.9507,0.949,55.81406,37.500256,210.891,NaN,0.0,8.0,,19 / 20,,5423,2021-05-04 15:55:52:874
0.198725,-5.411061,7.565909,-0.133624,-6.287289,7.524788,0.07348,0.077986,-0.050277,5.16,34.68,-20.88,340.7165,39.9507,0.949,55.81406,37.500256,210.891,NaN,0.0,8.0,,19 / 20,,5433,2021-05-04 15:55:52:884
0.390267,-5.667248,7.948993,-0.133624,-6.287289,7.524788,0.092417,0.027895,-0.074712,5.04,34.5,-20.82,340.7165,39.9507,0.949,55.81406,37.500256,210.891,NaN,0.0,8.0,,19 / 20,,5443,2021-05-04 15:55:52:894
0.062251,-6.040755,8.662486,-0.133624,-6.287289,7.524788,0.085698,0.019342,-0.09487,5.04,34.5,-20.82,340.7165,39.9507,0.949,55.81406,37.500256,210.891,NaN,0.0,8.0,,19 / 20,,5453,2021-05-04 15:55:52:904
0.062251,-6.040755,8.662486,-0.129455,-6.273458,7.536397,0.076535,0.054162,-0.075934,5.1,34.26,-20.58,340.7165,39.9507,0.949,55.81406,37.500256,210.891,NaN,0.0,8.0,,19 / 20,,5463,2021-05-04 15:55:52:914
-0.074223,-6.610593,9.246689,-0.127292,-6.260134,7.547502,0.077146,0.08837,-0.029508,5.46,34.8,-20.4,341.6713,39.7706,0.9841,55.81406,37.500256,210.891,NaN,0.0,8.0,,19 / 20,,5473,2021-05-04 15:55:52:924
0.143657,-7.027196,9.653716,-0.127292,-6.260134,7.547502,0.071037,0.105474,0.005311,5.46,34.8,-20.4,341.6713,39.7706,0.9841,55.81406,37.500256,210.891,NaN,0.0,8.0,,19 / 20,,5483,2021-05-04 15:55:52:934
0.110137,-7.393521,10.144543,-0.140524,-6.247972,7.557342,0.082032,0.098755,0.02547,5.22,34.26,-20.22,341.6713,39.7706,0.9841,55.81406,37.500256,210.891,NaN,0.0,8.0,,19 / 20,,5494,2021-05-04 15:55:52:945
0.110137,-7.393521,10.144543,-0.140524,-6.247972,7.557342,0.114408,0.065768,0.071896,5.22,34.26,-20.22,341.6713,39.7706,0.9841,55.81406,37.500256,210.891,NaN,0.0,8.0,,19 / 20,,5503,2021-05-04 15:55:52:954
-0.014366,-7.609005,10.601849,-0.158461,-6.231924,7.570227,0.189545,0.008347,0.129928,4.86,33.96,-20.88,340.155,39.5771,1.0653,55.81406,37.500256,210.891,NaN,0.0,8.0,,19 / 20,,5513,2021-05-04 15:55:52:964
0.069434,-7.496474,10.716774,-0.158461,-6.231924,7.570227,0.253075,-0.046631,0.189182,4.86,33.96,-20.88,340.155,39.5771,1.0653,55.81406,37.500256,210.891,NaN,0.0,8.0,,19 / 20,,5523,2021-05-04 15:55:52:974
0.804476,-6.787769,10.496501,-0.175435,-6.198324,7.59739,0.244523,-0.044188,0.205064,4.68,33.96,-20.88,340.155,39.5771,1.0653,55.81406,37.500256,210.891,NaN,0.0,8.0,,19 / 20,,5533,2021-05-04 15:55:52:984
0.914613,-6.907482,10.427067,-0.175435,-6.198324,7.59739,0.129069,-0.015477,0.122598,4.68,33.96,-20.88,340.155,39.5771,1.0653,55.81406,37.500256,210.891,NaN,0.0,8.0,,19 / 20,,5544,2021-05-04 15:55:52:995
0.914613,-6.907482,10.427067,-0.192208,-6.16722,7.622254,0.028276,-0.016699,0.050516,4.44,33.66,-20.7,344.895,39.2018,1.3228,55.81406,37.500256,210.891,NaN,0.0,8.0,,19 / 20,,5553,2021-05-04 15:55:53:004
0.548289,-8.645726,10.609032,-0.192208,-6.16722,7.622254,-0.059077,0.01079,-0.069214,4.44,33.66,-20.7,344.895,39.2018,1.3228,55.81406,37.500256,210.891,NaN,0.0,8.0,,19 / 20,,5563,2021-05-04 15:55:53:014
-0.550683,-10.328901,10.929865,-0.191539,-6.169096,7.620755,0.003842,-0.01059,-0.140685,4.5,33.48,-20.94,344.895,39.2018,1.3228,55.81406,37.500256,210.891,NaN,0.0,8.0,,19 / 20,,5573,2021-05-04 15:55:53:024
-2.039922,-11.166898,11.207601,-0.191539,-6.169096,7.620755,0.003842,-0.01059,-0.140685,4.5,33.48,-20.94,344.895,39.2018,1.3228,55.81406,37.500256,210.891,NaN,0.0,8.0,,19 / 20,,5583,2021-05-04 15:55:53:034
-2.039922,-11.166898,11.207601,-0.16977,-6.158262,7.630026,0.204816,-0.082672,-0.124803,4.68,33.48,-21.3,340.1247,38.9818,1.4398,55.81406,37.500256,210.891,NaN,0.0,8.0,,19 / 20,,5593,2021-05-04 15:55:53:044
-2.581028,-10.477346,10.642551,-0.16977,-6.158262,7.630026,0.535905,-0.094278,-0.001408,4.68,33.48,-21.3,340.1247,38.9818,1.4398,55.81406,37.500256,210.891,NaN,0.0,8.0,,19 / 20,,5603,2021-05-04 15:55:53:054
-2.353572,-8.710372,8.983319,-0.154812,-6.071322,7.6997,0.785138,-0.113826,0.068231,4.98,33.96,-21.48,340.1247,38.9818,1.4398,55.81406,37.500256,210.891,NaN,0.0,8.0,,19 / 20,,5613,2021-05-04 15:55:53:064
-2.140482,-6.538764,6.304126,-0.154812,-6.071322,7.6997,0.918307,-0.146202,0.098774,4.98,33.96,-21.48,340.1247,38.9818,1.4398,55.81406,37.500256,210.891,NaN,0.0,8.0,,19 / 20,,5623,2021-05-04 15:55:53:074
-1.884294,-5.61218,4.50842,-0.144175,-5.932362,7.807472,0.854166,-0.156587,0.114045,5.16,33.72,-21.42,341.4508,38.2506,1.1518,55.81406,37.500256,210.891,NaN,0.0,8.0,,19 / 20,,5634,2021-05-04 15:55:53:085
-1.884294,-5.61218,4.50842,-0.144175,-5.932362,7.807472,0.556675,-0.161474,0.12443,5.16,33.72,-21.42,341.4508,38.2506,1.1518,55.81406,37.500256,210.891,NaN,0.0,8.0,,19 / 20,,5643,2021-05-04 15:55:53:094
-1.838803,-5.348809,3.809291,-0.135363,-5.847532,7.871367,0.17916,-0.127876,0.143367,4.74,32.46,-21.96,341.4508,38.2506,1.1518,55.81406,37.500256,210.891,NaN,0.0,8.0,,19 / 20,,5653,2021-05-04 15:55:53:104
-1.479662,-5.755836,4.321666,-0.135363,-5.847532,7.871367,-0.172087,-0.103441,0.167191,4.74,32.46,-21.96,341.4508,38.2506,1.1518,55.81406,37.500256,210.891,NaN,0.0,8.0,,19 / 20,,5663,2021-05-04 15:55:53:114
-0.943344,-6.402291,5.518804,-0.140639,-5.879622,7.847332,-0.415212,-0.094889,0.167802,3.78,32.52,-22.02,344.8069,36.6041,0.9852,55.81406,37.500256,210.891,NaN,0.0,8.0,,19 / 20,,5673,2021-05-04 15:55:53:124
-0.383084,-7.288172,6.747067,-0.140639,-5.879622,7.847332,-0.549602,-0.071676,0.178797,3.78,32.52,-22.02,344.8069,36.6041,0.9852,55.81406,37.500256,210.891,NaN,0.0,8.0,,19 / 20,,5683,2021-05-04 15:55:53:134
-0.383084,-7.288172,6.747067,-0.140639,-5.879622,7.847332,-0.589919,-0.0674,0.222169,3.78,32.52,-22.02,344.8069,36.6041,0.9852,55.81406,37.500256,210.891,NaN,0.0,8.0,,19 / 20,,5693,2021-05-04 15:55:53:144
0.244216,-7.668862,7.427041,-0.15341,-5.967039,7.780824,-0.549602,-0.088781,0.258821,4.32,33.42,-22.02,344.8069,36.6041,0.9852,55.81406,37.500256,210.891,NaN,0.0,8.0,,19 / 20,,5703,2021-05-04 15:55:53:154
0.69434,-7.49408,8.40151,-0.171912,-6.052823,7.713893,-0.452475,-0.108328,0.262486,4.74,33.36,-21.96,340.2912,37.4789,1.1295,55.814056,37.50026,210.9864,NaN,0.0,8.0,,19 / 20,,5714,2021-05-04 15:55:53:165
0.615329,-6.244269,8.406299,-0.171912,-6.052823,7.713893,-0.200798,-0.174302,0.238051,4.74,33.36,-21.96,340.2912,37.4789,1.1295,55.814056,37.50026,210.9864,NaN,0.0,8.0,,19 / 20,,5723,2021-05-04 15:55:53:174
0.615329,-6.244269,8.406299,-0.175783,-6.088679,7.685534,0.057598,-0.239054,0.203843,4.08,33.18,-21.54,340.2912,37.4789,1.1295,55.814056,37.50026,210.9864,NaN,0.0,8.0,,19 / 20,,5733,2021-05-04 15:55:53:184
0.198725,-4.91784,7.067899,-0.175783,-6.088679,7.685534,0.195043,-0.303194,0.183684,4.08,33.18,-21.54,340.2912,37.4789,1.1295,55.814056,37.50026,210.9864,NaN,0.0,8.0,,19 / 20,,5744,2021-05-04 15:55:53:195
0.143657,-3.885908,5.660066,-0.154774,-6.064728,7.704899,0.226808,-0.347788,0.14581,4.14,33.6,-21.12,345.3494,38.2016,1.1508,55.814056,37.50026,210.9864,NaN,0.0,8.0,,19 / 20,,5753,2021-05-04 15:55:53:204
0.138868,-3.292128,4.831647,-0.154774,-6.064728,7.704899,0.176717,-0.378942,0.087167,4.14,33.6,-21.12,345.3494,38.2016,1.1508,55.814056,37.50026,210.9864,NaN,0.0,8.0,,19 / 20,,5763,2021-05-04 15:55:53:214
-0.284919,-3.191568,4.63771,-0.110906,-6.035921,7.728238,0.084476,-0.345955,0.041963,4.68,33.36,-20.76,345.3494,38.2016,1.1508,55.814056,37.50026,210.9864,NaN,0.0,8.0,,19 / 20,,5774,2021-05-04 15:55:53:225
-0.284919,-3.191568,4.63771,-0.110906,-6.035921,7.728238,-0.024869,-0.284258,0.018751,4.68,33.36,-20.76,345.3494,38.2016,1.1508,55.814056,37.50026,210.9864,NaN,0.0,8.0,,19 / 20,,5783,2021-05-04 15:55:53:234
-0.684763,-3.502824,4.934601,-0.066528,-6.033915,7.730315,-0.095118,-0.251882,0.021805,5.16,33.3,-20.64,340.1873,37.9877,0.8222,55.814056,37.50026,210.9864,NaN,0.0,8.0,,19 / 20,,5793,2021-05-04 15:55:53:244
-0.806871,-3.861965,5.660066,-0.066528,-6.033915,7.730315,-0.11772,-0.214619,0.043796,5.16,33.3,-20.64,340.1873,37.9877,0.8222,55.814056,37.50026,210.9864,NaN,0.0,8.0,,19 / 20,,5803,2021-05-04 15:55:53:254
-0.392661,-4.07745,6.529187,-0.034682,-6.050791,7.717323,-0.065797,-0.177967,0.040131,4.68,33.66,-21.0,340.1873,37.9877,0.8222,55.814056,37.50026,210.9864,NaN,0.0,8.0,,19 / 20,,5813,2021-05-04 15:55:53:264
-0.126897,-4.261809,7.043957,-0.034682,-6.050791,7.717323,0.006285,-0.142537,0.034633,4.68,33.66,-21.0,340.1873,37.9877,0.8222,55.814056,37.50026,210.9864,NaN,0.0,8.0,,19 / 20,,5823,2021-05-04 15:55:53:274
0.260976,-4.154066,7.053534,-0.014086,-6.056628,7.712806,0.102802,-0.114437,0.015085,4.62,33.9,-21.18,340.412,38.0981,0.2575,55.814056,37.50026,210.9864,NaN,0.0,8.0,,19 / 20,,5834,2021-05-04 15:55:53:285
0.260976,-4.154066,7.053534,-0.014086,-6.056628,7.712806,0.102802,-0.114437,0.015085,4.62,33.9,-21.18,340.412,38.0981,0.2575,55.814056,37.50026,210.9864,NaN,0.0,8.0,,19 / 20,,5843,2021-05-04 15:55:53:294
0.270553,-4.108575,6.713547,0.002002,-6.038262,7.727209,0.168164,-0.072898,-0.022788,4.98,34.02,-21.24,340.412,38.0981,0.2575,55.814056,37.50026,210.9864,NaN,0.0,8.0,,19 / 20,,5854,2021-05-04 15:55:53:305
-0.153234,-4.072661,6.229903,0.002002,-6.038262,7.727209,0.173051,0.005293,-0.060051,4.98,34.02,-21.24,340.412,38.0981,0.2575,55.814056,37.50026,210.9864,NaN,0.0,8.0,,19 / 20,,5863,2021-05-04 15:55:53:314
-0.675185,-4.101393,6.062304,0.009547,-6.011526,7.748018,0.159002,0.029116,-0.10159,4.86,34.5,-21.54,340.3685,38.0051,-0.0148,55.814056,37.50026,210.9864,NaN,0.0,8.0,,19 / 20,,5873,2021-05-04 15:55:53:324
-0.675185,-4.101393,6.062304,0.009547,-6.011526,7.748018,0.126626,0.044388,-0.119305,4.86,34.5,-21.54,340.3685,38.0051,-0.0148,55.814056,37.50026,210.9864,NaN,0.0,8.0,,19 / 20,,5883,2021-05-04 15:55:53:334
-1.031932,-4.053507,6.220326,0.01573,-5.993509,7.761957,-4.34E-4,0.076764,-0.111364,4.56,34.26,-21.3,340.3685,38.0051,-0.0148,55.814056,37.50026,210.9864,NaN,0.0,8.0,,19 / 20,,5894,2021-05-04 15:55:53:345
