ACCELEROMETER X (m/s²),ACCELEROMETER Y (m/s²),ACCELEROMETER Z (m/s²),GRAVITY X (m/s²),GRAVITY Y (m/s²),GRAVITY Z (m/s²),GYROSCOPE X (rad/s),GYROSCOPE Y (rad/s),GYROSCOPE Z (rad/s),MAGNETIC FIELD X (μT),MAGNETIC FIELD Y (μT),MAGNETIC FIELD Z (μT),ORIENTATION Z (azimuth °),ORIENTATION X (pitch °),ORIENTATION Y (roll °),ATMOSPHERIC PRESSURE (hPa),LOCATION Latitude : ,LOCATION Longitude : ,LOCATION Altitude ( m),LOCATION Altitude-google ( m),LOCATION Altitude-atmospheric pressure ( m),LOCATION Speed ( m/s),LOCATION Accuracy ( m),LOCATION ORIENTATION (°),Satellites in range,GPS NMEA,Time since start in ms ,YYYY-MO-DD HH-MI-SS_SSS
0.26337,0.114925,9.804555,0.138291,0.106822,9.805093,-0.020873,0.006662,-0.015521,141.78,-18.42,140.52,261.6469,-0.6287,-0.8108,1002.8901,55.81401,37.500248,206.5155,NaN,,0.0,6.0,,21 / 26,,13,2021-05-11 18:52:05:812
0.275342,0.095771,9.850046,0.140179,0.105872,9.805077,-0.025149,0.013992,-0.008801,141.6,-18.42,140.4,261.6469,-0.6287,-0.8108,1002.8901,55.81401,37.500248,206.5155,NaN,,0.0,6.0,,21 / 26,,23,2021-05-11 18:52:05:822
0.203513,0.126897,9.864412,0.147246,0.102028,9.805014,-0.020262,0.009106,-0.01491,141.36,-18.78,140.64,261.5914,-0.6186,-0.8191,1002.8901,55.81401,37.500248,206.5155,NaN,,0.0,6.0,,21 / 26,,33,2021-05-11 18:52:05:832
0.203513,0.126897,9.864412,0.147246,0.102028,9.805014,-0.006823,0.006662,-0.017353,141.36,-18.78,140.64,261.5914,-0.6186,-0.8191,1002.8894,55.81401,37.500248,206.5155,NaN,,0.0,6.0,,21 / 26,,43,2021-05-11 18:52:05:842
0.141262,0.179571,9.780613,0.154247,0.102085,9.804905,0.004783,-0.01594,-0.021019,141.54,-19.38,140.64,261.5914,-0.6186,-0.8191,1002.8894,55.81401,37.500248,206.5155,NaN,,0.0,6.0,,21 / 26,,53,2021-05-11 18:52:05:852
0.105348,0.208302,9.809344,0.154247,0.102085,9.804905,0.013946,-0.007999,-0.024073,141.54,-19.38,140.64,261.5914,-0.6186,-0.8191,1002.8894,55.81401,37.500248,206.5155,NaN,,0.0,6.0,,21 / 26,,63,2021-05-11 18:52:05:862
0.112531,0.093377,9.682447,0.159498,0.110357,9.804731,-0.001936,0.007884,-0.029571,141.66,-19.2,141.66,261.6546,-0.5964,-0.9013,1002.8894,55.81401,37.500248,206.5155,NaN,,0.0,6.0,,21 / 26,,73,2021-05-11 18:52:05:872
0.062251,0.019154,9.713573,0.159498,0.110357,9.804731,-0.027593,0.00483,-0.025295,141.66,-19.2,141.66,261.6546,-0.5964,-0.9013,1002.8894,55.81401,37.500248,206.5155,NaN,,0.0,6.0,,21 / 26,,83,2021-05-11 18:52:05:882
0.062251,0.019154,9.713573,0.157179,0.111352,9.804758,-0.043475,0.012771,-0.020408,140.82,-18.84,141.6,261.6546,-0.5964,-0.9013,1002.8894,55.81401,37.500248,206.5155,NaN,,0.0,6.0,,21 / 26,,93,2021-05-11 18:52:05:892
0.047885,0.007183,9.826104,0.157179,0.111352,9.804758,-0.043475,0.012771,-0.020408,140.82,-18.84,141.6,261.6546,-0.5964,-0.9013,1002.8894,55.81401,37.500248,206.5155,NaN,,0.0,6.0,,21 / 26,,103,2021-05-11 18:52:05:902
0.126897,0.043097,9.957788,0.14972,0.100038,9.804997,-0.044086,0.007884,-0.012467,141.18,-18.9,141.06,261.5432,-0.6506,-0.9184,1002.8894,55.81401,37.500248,206.5155,NaN,,0.0,6.0,,21 / 26,,113,2021-05-11 18:52:05:912
0.215485,0.06704,9.957788,0.14972,0.100038,9.804997,-0.009267,-0.011664,-0.013077,141.18,-18.9,141.06,261.5432,-0.6506,-0.9184,1002.8894,55.81401,37.500248,206.5155,NaN,,0.0,6.0,,21 / 26,,124,2021-05-11 18:52:05:923
0.215485,0.06704,9.957788,0.146645,0.092082,9.805121,-0.009267,-0.011664,-0.013077,141.66,-18.6,140.7,261.5432,-0.6506,-0.9184,1002.8894,55.81401,37.500248,206.5155,NaN,,0.0,6.0,,21 / 26,,133,2021-05-11 18:52:05:932
0.256187,0.110137,9.929058,0.146645,0.092082,9.805121,0.001729,-0.023881,-0.019797,141.66,-18.6,140.7,261.5432,-0.6506,-0.9184,1002.8894,55.81401,37.500248,206.5155,NaN,,0.0,6.0,,21 / 26,,143,2021-05-11 18:52:05:942
0.232245,0.095771,9.897932,0.15459,0.09161,9.805003,0.013946,-0.032433,-0.020408,141.18,-18.84,140.28,261.6712,-0.538,-0.8568,1002.8894,55.81401,37.500248,206.5155,NaN,,0.0,6.0,,21 / 26,,153,2021-05-11 18:52:05:952
0.222668,0.062251,9.873989,0.15459,0.09161,9.805003,0.013946,-0.036709,-0.005747,141.18,-18.84,140.28,261.6712,-0.538,-0.8568,1002.8894,55.81401,37.500248,206.5155,NaN,,0.0,6.0,,21 / 26,,163,2021-05-11 18:52:05:962
0.220273,0.114925,9.912297,0.165636,0.092066,9.804819,0.011503,-0.025714,3.62E-4,141.72,-19.2,140.58,261.6712,-0.538,-0.8568,1002.8894,55.81401,37.500248,206.5155,NaN,,0.0,6.0,,21 / 26,,173,2021-05-11 18:52:05:972
0.210696,0.079011,9.926663,0.165636,0.092066,9.804819,0.015779,-0.005555,0.001583,141.72,-19.2,140.58,261.6712,-0.538,-0.8568,1002.8894,55.81401,37.500248,206.5155,NaN,,0.0,6.0,,21 / 26,,184,2021-05-11 18:52:05:983
0.210696,0.079011,9.926663,0.171704,0.093541,9.804701,0.027385,0.009106,-0.003304,142.62,-19.26,140.16,261.7709,-0.5379,-0.9678,1002.8894,55.81401,37.500248,206.5155,NaN,,0.0,6.0,,21 / 26,,193,2021-05-11 18:52:05:992
0.201119,0.076617,9.775824,0.171704,0.093541,9.804701,0.019444,0.01216,-0.013077,142.62,-19.26,140.16,261.7709,-0.5379,-0.9678,1002.8894,55.81401,37.500248,206.5155,NaN,,0.0,6.0,,21 / 26,,203,2021-05-11 18:52:06:002
0.141262,0.114925,9.703996,0.175491,0.095362,9.804617,0.005394,0.002997,-0.025906,143.04,-19.44,140.4,261.7709,-0.5379,-0.9678,1002.8894,55.81401,37.500248,206.5155,NaN,,0.0,6.0,,21 / 26,,213,2021-05-11 18:52:06:012
0.141262,0.114925,9.703996,0.175491,0.095362,9.804617,0.005394,0.002997,-0.025906,143.04,-19.44,140.4,261.7709,-0.5379,-0.9678,1002.8894,55.81401,37.500248,206.5155,NaN,,0.0,6.0,,21 / 26,,223,2021-05-11 18:52:06:022
0.124502,0.069434,9.732727,0.177557,0.094819,9.804584,0.001118,0.002997,-0.024684,143.1,-18.84,140.64,261.738,-0.5572,-1.0254,1002.8894,55.81401,37.500248,206.5155,NaN,,0.0,6.0,,21 / 26,,233,2021-05-11 18:52:06:032
0.158022,0.064645,9.749487,0.177557,0.094819,9.804584,-0.006212,0.010938,-0.02224,143.1,-18.84,140.64,261.738,-0.5572,-1.0254,1002.8757,55.81401,37.500248,206.5155,NaN,,0.0,6.0,,21 / 26,,243,2021-05-11 18:52:06:042
0.193936,0.062251,9.754275,0.174736,0.091418,9.804667,-0.012932,0.029264,-0.02896,142.38,-19.14,140.16,261.738,-0.5572,-1.0254,1002.8757,55.81401,37.500248,206.5155,NaN,,0.0,6.0,,21 / 26,,253,2021-05-11 18:52:06:052
0.193936,0.062251,9.754275,0.174736,0.091418,9.804667,-0.019041,0.031708,-0.024073,142.38,-19.14,140.16,261.738,-0.5572,-1.0254,1002.8757,55.81401,37.500248,206.5155,NaN,,0.0,6.0,,21 / 26,,264,2021-05-11 18:52:06:063
0.177176,0.052674,9.771035,0.174736,0.091418,9.804667,-0.017819,0.045757,-0.019186,142.08,-18.9,140.82,261.7036,-0.5341,-1.021,1002.8757,55.81401,37.500248,206.5155,NaN,,0.0,6.0,,21 / 26,,273,2021-05-11 18:52:06:072
0.203513,0.069434,9.802161,0.170436,0.085718,9.804794,-0.020262,0.039038,-0.019797,142.08,-18.9,140.82,261.7036,-0.5341,-1.021,1002.8757,55.81401,37.500248,206.5155,NaN,,0.0,6.0,,21 / 26,,283,2021-05-11 18:52:06:082
0.177176,0.031126,9.845258,0.166632,0.079511,9.804912,-0.014154,0.039038,-0.017353,142.02,-18.42,141.24,261.7036,-0.5341,-1.021,1002.8757,55.81401,37.500248,206.5155,NaN,,0.0,6.0,,21 / 26,,293,2021-05-11 18:52:06:092
0.143657,0.004789,9.838076,0.166632,0.079511,9.804912,-0.011099,0.04026,-0.017964,142.02,-18.42,141.24,261.7036,-0.5341,-1.021,1002.8757,55.81401,37.500248,206.5155,NaN,,0.0,6.0,,21 / 26,,303,2021-05-11 18:52:06:102
0.165205,0.03352,9.881172,0.162967,0.073684,9.805018,-1.04E-4,0.030486,-0.013688,141.9,-18.72,140.7,261.7808,-0.4645,-0.9736,1002.8757,55.81401,37.500248,206.5155,NaN,,0.0,6.0,,21 / 26,,313,2021-05-11 18:52:06:112
0.165205,0.03352,9.881172,0.162967,0.073684,9.805018,-1.04E-4,0.030486,-0.013688,141.9,-18.72,140.7,261.7808,-0.4645,-0.9736,1002.8757,55.81401,37.500248,206.5155,NaN,,0.0,6.0,,21 / 26,,323,2021-05-11 18:52:06:122
0.191542,0.055068,9.718362,0.160441,0.070178,9.805086,0.010892,0.017047,-0.019186,141.96,-18.96,140.94,261.7808,-0.4645,-0.9736,1002.8757,55.81401,37.500248,206.5155,NaN,,0.0,6.0,,21 / 26,,333,2021-05-11 18:52:06:132
0.162811,0.052674,9.701602,0.160441,0.070178,9.805086,0.013335,-0.010442,-0.016743,141.96,-18.96,140.94,261.7808,-0.4645,-0.9736,1002.8838,55.81401,37.500248,206.5155,NaN,,0.0,6.0,,21 / 26,,343,2021-05-11 18:52:06:142
0.134079,0.088588,9.797373,0.164007,0.069806,9.80503,0.00295,-0.016551,-0.020408,142.08,-19.26,140.76,261.8411,-0.41,-0.9374,1002.8838,55.81401,37.500248,206.5155,NaN,,0.0,6.0,,21 / 26,,353,2021-05-11 18:52:06:152
0.134079,0.088588,9.797373,0.164007,0.069806,9.80503,-0.008656,0.006662,-0.013688,142.08,-19.26,140.76,261.8411,-0.41,-0.9374,1002.8838,55.81401,37.500248,206.5155,NaN,,0.0,6.0,,21 / 26,,363,2021-05-11 18:52:06:162
0.158022,0.090982,9.775824,0.164371,0.068926,9.805031,-0.010489,0.011549,-0.010023,142.56,-19.32,140.58,261.8411,-0.41,-0.9374,1002.8838,55.81401,37.500248,206.5155,NaN,,0.0,6.0,,21 / 26,,373,2021-05-11 18:52:06:172
0.129291,0.074223,9.699207,0.161672,0.066845,9.80509,-0.010489,0.002386,-0.004525,142.08,-19.26,140.46,261.8411,-0.41,-0.9374,1002.8838,55.81401,37.500248,206.5155,NaN,,0.0,6.0,,21 / 26,,383,2021-05-11 18:52:06:182
0.237033,0.117319,9.720756,0.161672,0.066845,9.80509,-0.010489,0.002386,-0.004525,142.08,-19.26,140.46,261.8411,-0.41,-0.9374,1002.8838,55.81401,37.500248,206.5155,NaN,,0.0,6.0,,21 / 26,,393,2021-05-11 18:52:06:192
0.177176,0.076617,9.835681,0.160942,0.066577,9.805103,-0.020873,0.01216,-0.020408,142.26,-19.26,140.28,261.8655,-0.389,-0.9404,1002.8838,55.81401,37.500248,206.5155,NaN,,0.0,6.0,,21 / 26,,403,2021-05-11 18:52:06:202
0.177176,0.076617,9.835681,0.161235,0.065594,9.805105,-0.015986,0.015825,-0.019797,141.6,-19.44,140.34,261.8655,-0.389,-0.9404,1002.8838,55.81401,37.500248,206.5155,NaN,,0.0,6.0,,21 / 26,,413,2021-05-11 18:52:06:212
0.064645,0.035914,9.852441,0.161235,0.065594,9.805105,-0.012321,0.022545,-0.012467,141.6,-19.44,140.34,261.8655,-0.389,-0.9404,1002.8838,55.81401,37.500248,206.5155,NaN,,0.0,6.0,,21 / 26,,423,2021-05-11 18:52:06:222
0.112531,0.031126,9.735122,0.156093,0.064353,9.805197,-0.011099,0.021323,-0.009412,141.78,-19.5,140.58,261.8674,-0.3832,-0.9421,1002.8838,55.81401,37.500248,206.5155,NaN,,0.0,6.0,,21 / 26,,433,2021-05-11 18:52:06:232
0.112531,0.031126,9.735122,0.156093,0.064353,9.805197,-0.015375,0.009716,-0.011856,141.78,-19.5,140.58,261.8674,-0.3832,-0.9421,1002.8838,55.81401,37.500248,206.5155,NaN,,0.0,6.0,,19 / 22,,443,2021-05-11 18:52:06:242
0.102954,0.05028,9.792584,0.151863,0.061415,9.805283,-0.015986,0.003608,-0.013688,141.84,-19.26,141.06,261.8674,-0.3832,-0.9421,1002.8838,55.81401,37.500248,206.5155,NaN,,0.0,6.0,,19 / 22,,453,2021-05-11 18:52:06:252
0.007183,0.043097,9.797373,0.151863,0.061415,9.805283,-0.014765,-0.006777,-0.014299,141.84,-19.26,141.06,261.8674,-0.3832,-0.9421,1002.8838,55.81401,37.500248,206.5155,NaN,,0.0,6.0,,19 / 22,,463,2021-05-11 18:52:06:262
-0.031126,0.045491,9.926663,0.14516,0.05813,9.805404,-0.008045,-0.00189,-0.005136,141.48,-19.2,141.54,261.8391,-0.3588,-0.8873,1002.8838,55.81401,37.500248,206.5155,NaN,,0.0,6.0,,19 / 22,,473,2021-05-11 18:52:06:272
0.023943,0.021548,9.972155,0.14516,0.05813,9.805404,-1.04E-4,0.006662,0.002805,141.48,-19.2,141.54,261.8391,-0.3588,-0.8873,1002.8838,55.81401,37.500248,206.5155,NaN,,0.0,6.0,,19 / 22,,483,2021-05-11 18:52:06:282
0.023943,0.021548,9.972155,0.130959,0.056638,9.805612,0.013335,0.002997,0.015633,142.08,-19.32,141.3,261.8391,-0.3588,-0.8873,1002.8838,55.81401,37.500248,206.5155,NaN,,0.0,6.0,,19 / 22,,493,2021-05-11 18:52:06:292
0.150839,0.026337,9.960183,0.130959,0.056638,9.805612,0.026163,-0.003112,0.023575,142.08,-19.32,141.3,261.8391,-0.3588,-0.8873,1002.8838,55.81401,37.500248,206.5155,NaN,,0.0,6.0,,19 / 22,,504,2021-05-11 18:52:06:303
0.21309,0.081405,9.864412,0.130959,0.056638,9.805612,0.026774,0.01216,0.015022,142.44,-19.08,140.94,261.9461,-0.3309,-0.7652,1002.8838,55.81401,37.500248,206.5155,NaN,,0.0,6.0,,19 / 22,,513,2021-05-11 18:52:06:312
0.169994,0.131685,9.701602,0.122869,0.058713,9.805704,0.007837,0.007273,0.004638,142.44,-19.08,140.94,261.9461,-0.3309,-0.7652,1002.8838,55.81401,37.500248,206.5155,NaN,,0.0,6.0,,19 / 22,,523,2021-05-11 18:52:06:322
0.011971,0.0838,9.711179,0.121463,0.063023,9.805696,-0.006823,0.00544,0.007692,141.9,-18.6,140.46,261.9461,-0.3309,-0.7652,1002.8838,55.81401,37.500248,206.5155,NaN,,0.0,6.0,,19 / 22,,533,2021-05-11 18:52:06:332
0.011971,0.0838,9.711179,0.121463,0.063023,9.805696,-0.017208,0.006662,0.016855,141.9,-18.6,140.46,261.9461,-0.3309,-0.7652,1002.8845,55.81401,37.500248,206.5155,NaN,,0.0,6.0,,19 / 22,,543,2021-05-11 18:52:06:342
-0.019154,0.05028,9.766247,0.116379,0.063383,9.805755,-0.021484,0.007884,0.019909,141.72,-18.78,140.34,261.9203,-0.3682,-0.7097,1002.8845,55.81401,37.500248,206.5155,NaN,,0.0,6.0,,19 / 22,,553,2021-05-11 18:52:06:352
-0.021548,0.071828,9.771035,0.116379,0.063383,9.805755,-0.015375,-0.005555,0.022353,141.72,-18.78,140.34,261.9203,-0.3682,-0.7097,1002.8845,55.81401,37.500248,206.5155,NaN,,0.0,6.0,,19 / 22,,564,2021-05-11 18:52:06:363
0.0,0.076617,9.735122,0.106496,0.062261,9.805875,-0.002547,-0.034877,0.02052,141.78,-19.08,140.1,261.9203,-0.3682,-0.7097,1002.8845,55.81401,37.500248,206.5155,NaN,,0.0,6.0,,19 / 22,,573,2021-05-11 18:52:06:372
0.028731,0.086194,9.830893,0.106496,0.062261,9.805875,-0.003158,-0.048927,0.015022,141.78,-19.08,140.1,261.9203,-0.3682,-0.7097,1002.8845,55.81401,37.500248,206.5155,NaN,,0.0,6.0,,19 / 22,,584,2021-05-11 18:52:06:383
0.028731,0.086194,9.830893,0.101897,0.064398,9.805909,-0.003158,-0.048927,0.015022,141.9,-18.66,140.64,261.9344,-0.3638,-0.6222,1002.8845,55.81401,37.500248,206.5155,NaN,,0.0,6.0,,19 / 22,,593,2021-05-11 18:52:06:392
0.134079,0.069434,9.91948,0.101897,0.064398,9.805909,0.004783,-0.041596,0.008914,141.9,-18.66,140.64,261.9344,-0.3638,-0.6222,1002.8845,55.81401,37.500248,206.5155,NaN,,0.0,6.0,,19 / 22,,603,2021-05-11 18:52:06:402
0.117319,0.011971,9.93624,0.100488,0.067894,9.805901,0.012724,-0.01594,0.010135,142.5,-19.02,141.66,261.9344,-0.3638,-0.6222,1002.8845,55.81401,37.500248,206.5155,NaN,,0.0,6.0,,19 / 22,,613,2021-05-11 18:52:06:412
0.136474,-0.011971,9.931452,0.100488,0.067894,9.805901,0.010281,-0.010442,0.007692,142.5,-19.02,141.66,261.9344,-0.3638,-0.6222,1002.8845,55.81401,37.500248,206.5155,NaN,,0.0,6.0,,19 / 22,,623,2021-05-11 18:52:06:422
0.126897,-0.002394,9.957788,0.098107,0.067885,9.805924,0.013946,0.006662,0.012579,142.68,-19.32,141.66,261.962,-0.3966,-0.5732,1002.8845,55.81401,37.500248,206.5155,NaN,,0.0,6.0,,19 / 22,,633,2021-05-11 18:52:06:432
0.126897,-0.002394,9.957788,0.098107,0.067885,9.805924,0.018833,0.01216,0.017466,142.68,-19.32,141.66,261.962,-0.3966,-0.5732,1002.8818,55.81401,37.500248,206.5155,NaN,,0.0,6.0,,19 / 22,,642,2021-05-11 18:52:06:441
0.117319,0.057463,9.845258,0.095038,0.06634,9.805965,0.020666,0.007884,0.018688,142.14,-18.84,140.76,261.962,-0.3966,-0.5732,1002.8818,55.81401,37.500248,206.5155,NaN,,0.0,6.0,,19 / 22,,653,2021-05-11 18:52:06:452
0.189148,0.086194,9.713573,0.095038,0.06634,9.805965,0.017611,-0.014107,0.008303,142.14,-18.84,140.76,261.962,-0.3966,-0.5732,1002.8818,55.81401,37.500248,206.5155,NaN,,0.0,6.0,,19 / 22,,663,2021-05-11 18:52:06:462
0.189148,0.086194,9.713573,0.098036,0.06652,9.805935,0.001118,-0.026935,9.72E-4,141.36,-19.02,140.1,261.8668,-0.3876,-0.5553,1002.8818,55.81401,37.500248,206.5155,NaN,,0.0,6.0,,19 / 22,,673,2021-05-11 18:52:06:472
0.136474,0.088588,9.77343,0.098036,0.06652,9.805935,-0.001936,-0.026325,-0.001471,141.36,-19.02,140.1,261.8668,-0.3876,-0.5553,1002.8818,55.81401,37.500248,206.5155,NaN,,0.0,6.0,,19 / 22,,683,2021-05-11 18:52:06:482
0.031126,0.074223,9.751882,0.105619,0.065508,9.805862,0.001118,-0.022659,0.002194,141.12,-19.32,140.4,261.8668,-0.3876,-0.5553,1002.8818,55.81401,37.500248,206.5155,NaN,,0.0,6.0,,19 / 22,,693,2021-05-11 18:52:06:492
0.069434,0.088588,9.670476,0.105619,0.065508,9.805862,0.001118,-0.022659,0.002194,141.12,-19.32,140.4,261.8668,-0.3876,-0.5553,1002.8818,55.81401,37.500248,206.5155,NaN,,0.0,6.0,,19 / 22,,702,2021-05-11 18:52:06:501
0.148445,0.090982,9.675264,0.108155,0.066339,9.805829,-0.004991,-0.025714,0.00647,141.66,-19.26,140.82,261.9163,-0.3827,-0.6171,1002.8818,55.81401,37.500248,206.5155,NaN,,0.0,6.0,,19 / 22,,713,2021-05-11 18:52:06:512
0.148445,0.090982,9.675264,0.108155,0.066339,9.805829,-0.007434,-0.020216,0.003416,141.66,-19.26,140.82,261.9163,-0.3827,-0.6171,1002.8818,55.81401,37.500248,206.5155,NaN,,0.0,6.0,,19 / 22,,723,2021-05-11 18:52:06:522
0.217879,0.071828,9.833286,0.112646,0.066897,9.805775,0.007227,0.001775,0.002194,141.3,-19.26,140.7,261.9163,-0.3827,-0.6171,1002.8818,55.81401,37.500248,206.5155,NaN,,0.0,6.0,,19 / 22,,733,2021-05-11 18:52:06:532
0.153234,0.023943,9.763853,0.112646,0.066897,9.805775,0.018833,0.01949,0.005859,141.3,-19.26,140.7,261.9163,-0.3827,-0.6171,1002.8818,55.81401,37.500248,206.5155,NaN,,0.0,6.0,,19 / 22,,743,2021-05-11 18:52:06:542
0.090982,0.124502,9.680053,0.112646,0.066897,9.805775,0.018833,0.010327,0.003416,141.3,-19.26,140.7,261.9163,-0.3827,-0.6171,1002.8818,55.81401,37.500248,206.5155,NaN,,0.0,6.0,,19 / 22,,753,2021-05-11 18:52:06:552
0.107742,0.143657,9.692024,0.112784,0.069598,9.805754,0.018833,-0.002501,-0.002082,141.3,-19.44,140.7,261.8448,-0.3909,-0.6582,1002.8818,55.81401,37.500248,206.5155,NaN,,0.0,6.0,,19 / 22,,763,2021-05-11 18:52:06:562
0.110137,0.03352,9.689631,0.113819,0.07533,9.8057,0.009059,0.006662,-2.49E-4,141.9,-19.56,140.58,261.8448,-0.3909,-0.6582,1002.8818,55.81401,37.500248,206.5155,NaN,,0.0,6.0,,19 / 22,,773,2021-05-11 18:52:06:572
0.110137,0.03352,9.689631,0.113819,0.07533,9.8057,-0.014765,0.018879,0.004027,141.9,-19.56,140.58,261.8448,-0.3909,-0.6582,1002.8818,55.81401,37.500248,206.5155,NaN,,0.0,6.0,,19 / 22,,782,2021-05-11 18:52:06:581
0.076617,-0.002394,9.811738,0.11094,0.073776,9.805745,-0.033701,0.024988,0.008914,142.26,-19.86,140.94,261.4525,-0.4401,-0.665,1002.8818,55.81401,37.500248,206.5155,NaN,,0.0,6.0,,19 / 22,,793,2021-05-11 18:52:06:592
0.117319,-0.019154,9.957788,0.11094,0.073776,9.805745,-0.037367,0.024988,0.016244,142.26,-19.86,140.94,261.4525,-0.4401,-0.665,1002.8818,55.81401,37.500248,206.5155,NaN,,0.0,6.0,,19 / 22,,803,2021-05-11 18:52:06:602
0.117319,-0.019154,9.957788,0.11094,0.073776,9.805745,-0.017208,0.003608,0.01319,142.26,-19.86,140.94,261.4525,-0.4401,-0.665,1002.8818,55.81401,37.500248,206.5155,NaN,,0.0,6.0,,19 / 22,,813,2021-05-11 18:52:06:612
0.256187,0.086194,10.108628,0.107308,0.063671,9.805857,0.013335,-6.68E-4,0.005249,141.9,-19.8,141.24,261.4525,-0.4401,-0.665,1002.8818,55.81401,37.500248,206.5155,NaN,,0.0,6.0,,19 / 22,,824,2021-05-11 18:52:06:623
0.304073,0.107742,9.979338,0.115606,0.063296,9.805764,0.035937,-0.007388,-0.003304,141.3,-19.44,140.52,261.8684,-0.372,-0.627,1002.8818,55.81401,37.500248,206.5155,NaN,,0.0,6.0,,19 / 22,,833,2021-05-11 18:52:06:632
0.160416,0.107742,9.885961,0.115606,0.063296,9.805764,0.03777,-0.00922,-0.006358,141.3,-19.44,140.52,261.8684,-0.372,-0.627,1002.8801,55.81401,37.500248,206.5155,NaN,,0.0,6.0,,19 / 22,,844,2021-05-11 18:52:06:643
0.160416,0.107742,9.885961,0.129923,0.071233,9.805531,0.032272,-0.006777,9.72E-4,142.08,-18.72,140.64,261.8684,-0.372,-0.627,1002.8801,55.81401,37.500248,206.5155,NaN,,0.0,6.0,,19 / 22,,853,2021-05-11 18:52:06:652
0.06704,0.064645,9.840469,0.129923,0.071233,9.805531,0.027385,0.018879,0.015633,142.08,-18.72,140.64,261.8684,-0.372,-0.627,1002.8801,55.81401,37.500248,206.5155,NaN,,0.0,6.0,,19 / 22,,863,2021-05-11 18:52:06:662
0.057463,0.088588,9.75667,0.129923,0.071233,9.805531,0.013946,0.026821,0.017466,142.38,-18.72,140.82,261.8618,-0.4162,-0.7591,1002.8801,55.81401,37.500248,206.5155,NaN,,0.0,6.0,,19 / 22,,873,2021-05-11 18:52:06:672
0.064645,0.059857,9.749487,0.134802,0.07668,9.805424,0.005394,0.020712,0.021742,142.38,-18.72,140.82,261.8618,-0.4162,-0.7591,1002.8801,55.81401,37.500248,206.5155,NaN,,0.0,6.0,,19 / 22,,883,2021-05-11 18:52:06:682
0.088588,0.129291,9.854836,0.130113,0.07811,9.805476,0.004783,0.023155,0.018688,141.66,-19.26,140.46,261.8618,-0.4162,-0.7591,1002.8801,55.81401,37.500248,206.5155,NaN,,0.0,6.0,,19 / 22,,893,2021-05-11 18:52:06:692
0.088588,0.129291,9.854836,0.130113,0.07811,9.805476,0.013946,0.01949,0.014412,141.66,-19.26,140.46,261.8618,-0.4162,-0.7591,1002.8801,55.81401,37.500248,206.5155,NaN,,0.0,6.0,,19 / 22,,904,2021-05-11 18:52:06:703
0.086194,0.107742,9.847652,0.124345,0.081169,9.805526,0.013946,0.01949,0.014412,141.84,-19.2,140.58,261.8215,-0.4564,-0.7602,1002.8801,55.81401,37.500248,206.5155,NaN,,0.0,6.0,,19 / 22,,913,2021-05-11 18:52:06:712
0.06704,0.079011,9.802161,0.124345,0.081169,9.805526,0.021276,0.017047,0.010135,141.84,-19.2,140.58,261.8215,-0.4564,-0.7602,1002.8801,55.81401,37.500248,206.5155,NaN,,0.0,6.0,,19 / 22,,923,2021-05-11 18:52:06:722
0.110137,0.112531,9.852441,0.119047,0.086411,9.805547,0.017611,5.53E-4,0.007081,142.44,-19.8,140.82,261.8215,-0.4564,-0.7602,1002.8801,55.81401,37.500248,206.5155,NaN,,0.0,6.0,,19 / 22,,933,2021-05-11 18:52:06:732
0.110137,0.112531,9.852441,0.119047,0.086411,9.805547,0.017,-0.011053,0.00647,142.44,-19.8,140.82,261.8215,-0.4564,-0.7602,1002.884,55.81401,37.500248,206.5155,NaN,,0.0,6.0,,19 / 22,,943,2021-05-11 18:52:06:742
0.203513,0.138868,9.866806,0.118472,0.091295,9.80551,0.018222,-6.68E-4,0.002805,142.44,-19.56,140.46,261.3876,-0.5049,-0.6956,1002.884,55.81401,37.500248,206.5155,NaN,,0.0,6.0,,19 / 22,,953,2021-05-11 18:52:06:752
0.167599,0.124502,9.91948,0.118472,0.091295,9.80551,0.020055,0.012771,0.00647,142.44,-19.56,140.46,261.3876,-0.5049,-0.6956,1002.884,55.81401,37.500248,206.5155,NaN,,0.0,6.0,,19 / 22,,963,2021-05-11 18:52:06:762
0.167599,0.124502,9.91948,0.120067,0.097517,9.80543,0.02372,0.023766,0.004638,142.26,-19.32,140.22,261.3876,-0.5049,-0.6956,1002.884,55.81401,37.500248,206.5155,NaN,,0.0,6.0,,19 / 22,,973,2021-05-11 18:52:06:772
0.148445,0.134079,9.792584,0.119767,0.100949,9.805399,0.027996,0.017658,0.002194,142.32,-19.5,140.52,261.3876,-0.5049,-0.6956,1002.884,55.81401,37.500248,206.5155,NaN,,0.0,6.0,,19 / 22,,983,2021-05-11 18:52:06:782
0.112531,0.138868,9.720756,0.119767,0.100949,9.805399,0.014557,0.024988,-2.49E-4,142.32,-19.5,140.52,261.3876,-0.5049,-0.6956,1002.884,55.81401,37.500248,206.5155,NaN,,0.0,6.0,,19 / 22,,993,2021-05-11 18:52:06:792
0.062251,0.126897,9.670476,0.118387,0.108353,9.805337,0.008448,0.034151,0.004027,142.32,-19.62,141.12,261.2983,-0.5898,-0.6998,1002.884,55.81401,37.500248,206.5155,NaN,,0.0,6.0,,19 / 22,,1003,2021-05-11 18:52:06:802
0.043097,0.138868,9.665688,0.118387,0.108353,9.805337,0.008448,0.034151,0.004027,142.32,-19.62,141.12,261.2983,-0.5898,-0.6998,1002.884,55.81401,37.500248,206.5155,NaN,,0.0,6.0,,19 / 22,,1013,2021-05-11 18:52:06:812
0.043097,0.138868,9.665688,0.111966,0.111435,9.805378,-0.002547,0.017047,0.007692,141.42,-19.62,140.34,261.2983,-0.5898,-0.6998,1002.884,55.81401,37.500248,206.5155,NaN,,0.0,6.0,,19 / 22,,1024,2021-05-11 18:52:06:823
0.026337,0.136474,9.708784,0.109378,0.112358,9.805396,-0.001936,0.006662,0.008303,141.6,-19.56,140.58,261.2983,-0.5898,-0.6998,1002.884,55.81401,37.500248,206.5155,NaN,,0.0,6.0,,19 / 22,,1033,2021-05-11 18:52:06:832
0.107742,0.162811,9.771035,0.109378,0.112358,9.805396,-1.04E-4,0.001775,0.010746,141.6,-19.56,140.58,261.2983,-0.5898,-0.6998,1002.884,55.81401,37.500248,206.5155,NaN,,0.0,6.0,,19 / 22,,1043,2021-05-11 18:52:06:842
0.131685,0.158022,9.771035,0.109378,0.112358,9.805396,0.007227,-0.004944,0.010135,141.6,-19.56,140.58,261.2983,-0.5898,-0.6998,1002.884,55.81401,37.500248,206.5155,NaN,,0.0,6.0,,19 / 22,,1053,2021-05-11 18:52:06:852
0.06704,0.150839,9.79019,0.107128,0.116253,9.805376,0.009059,-5.7E-5,0.004638,141.66,-19.14,140.52,261.6411,-0.6565,-0.6391,1002.884,55.81401,37.500248,206.5155,NaN,,0.0,6.0,,19 / 22,,1063,2021-05-11 18:52:06:862
0.06704,0.150839,9.79019,0.105725,0.12227,9.805318,0.009059,0.001164,0.004638,141.6,-19.14,140.7,261.6411,-0.6565,-0.6391,1002.884,55.81401,37.500248,206.5155,NaN,,0.0,6.0,,19 / 22,,1073,2021-05-11 18:52:06:872
0.0,0.143657,9.816526,0.105725,0.12227,9.805318,0.020666,0.002386,0.010135,141.66,-19.38,140.82,261.6411,-0.6565,-0.6391,1002.884,55.81401,37.500248,206.5155,NaN,,0.0,6.0,,19 / 22,,1083,2021-05-11 18:52:06:882
0.035914,0.165205,9.802161,0.099375,0.129103,9.805297,0.018222,0.002997,0.003416,141.66,-19.38,140.82,261.6411,-0.6565,-0.6391,1002.884,55.81401,37.500248,206.5155,NaN,,0.0,6.0,,19 / 22,,1093,2021-05-11 18:52:06:892
0.064645,0.150839,9.821315,0.099375,0.129103,9.805297,0.006616,0.007884,0.002805,141.66,-19.98,141.06,261.155,-0.7543,-0.5807,1002.884,55.81401,37.500248,206.5155,NaN,,0.0,6.0,,19 / 22,,1103,2021-05-11 18:52:06:902
0.064645,0.150839,9.821315,0.091274,0.133791,9.805312,-0.003158,0.023155,-2.49E-4,141.66,-19.98,141.06,261.155,-0.7543,-0.5807,1002.884,55.81401,37.500248,206.5155,NaN,,0.0,6.0,,19 / 22,,1113,2021-05-11 18:52:06:912
0.0838,0.146051,9.835681,0.091274,0.133791,9.805312,-0.009267,0.024377,-0.002693,141.9,-19.98,141.18,261.155,-0.7543,-0.5807,1002.884,55.81401,37.500248,206.5155,NaN,,0.0,6.0,,19 / 22,,1123,2021-05-11 18:52:06:922
0.0838,0.131685,9.830893,0.083158,0.135054,9.805367,-0.012321,0.011549,-0.003304,142.02,-19.62,140.64,261.155,-0.7543,-0.5807,1002.884,55.81401,37.500248,206.5155,NaN,,0.0,6.0,,19 / 22,,1134,2021-05-11 18:52:06:933
0.095771,0.138868,9.909904,0.083158,0.135054,9.805367,-0.012321,0.011549,-0.003304,142.02,-19.62,140.64,261.155,-0.7543,-0.5807,1002.887,55.81401,37.500248,206.5155,NaN,,0.0,6.0,,19 / 22,,1143,2021-05-11 18:52:06:942
0.095771,0.150839,9.931452,0.080021,0.134973,9.805395,-0.002547,5.53E-4,-8.6E-4,142.56,-19.5,140.04,261.599,-0.7891,-0.4859,1002.887,55.81401,37.500248,206.5155,NaN,,0.0,6.0,,19 / 22,,1153,2021-05-11 18:52:06:952
0.079011,0.150839,9.931452,0.080021,0.134973,9.805395,0.011503,-0.006166,0.003416,142.56,-19.5,140.04,261.599,-0.7891,-0.4859,1002.887,55.81401,37.500248,206.5155,NaN,,0.0,6.0,,19 / 22,,1163,2021-05-11 18:52:06:962
0.043097,0.150839,9.840469,0.080161,0.138717,9.805342,0.018833,5.53E-4,0.005249,142.68,-19.44,139.44,261.599,-0.7891,-0.4859,1002.887,55.81401,37.500248,206.5155,NaN,,0.0,6.0,,19 / 22,,1173,2021-05-11 18:52:06:972
0.004789,0.131685,9.749487,0.080161,0.138717,9.805342,0.017,-0.002501,0.005859,142.68,-19.44,139.44,261.599,-0.7891,-0.4859,1002.887,55.81401,37.500248,206.5155,NaN,,0.0,6.0,,19 / 22,,1183,2021-05-11 18:52:06:982
-0.009577,0.095771,9.823709,0.076592,0.1419,9.805325,0.012113,-0.011053,0.013801,142.14,-19.56,139.98,261.1246,-0.8105,-0.4684,1002.887,55.81401,37.500248,206.5155,NaN,,0.0,6.0,,19 / 22,,1193,2021-05-11 18:52:06:992
0.043097,0.114925,9.917087,0.076592,0.1419,9.805325,0.018222,0.013992,0.02052,142.14,-19.56,139.98,261.1246,-0.8105,-0.4684,1002.887,55.81401,37.500248,206.5155,NaN,,0.0,6.0,,19 / 22,,1203,2021-05-11 18:52:07:002
0.043097,0.114925,9.917087,0.069597,0.142506,9.805367,0.018222,0.037816,0.019298,142.2,-19.5,140.28,261.1246,-0.8105,-0.4684,1002.887,55.81401,37.500248,206.5155,NaN,,0.0,6.0,,19 / 22,,1213,2021-05-11 18:52:07:012
0.052674,0.134079,9.893144,0.069597,0.142506,9.805367,0.024942,0.024988,0.016855,142.2,-19.5,140.28,261.1246,-0.8105,-0.4684,1002.887,55.81401,37.500248,206.5155,NaN,,0.0,6.0,,19 / 22,,1223,2021-05-11 18:52:07:022
0.112531,0.165205,9.967366,0.061101,0.143692,9.805407,0.038992,0.029875,0.009525,142.38,-19.5,140.46,261.5103,-0.8326,-0.4067,1002.887,55.81401,37.500248,206.5155,NaN,,0.0,6.0,,19 / 22,,1233,2021-05-11 18:52:07:032
0.196331,0.162811,9.883567,0.061101,0.143692,9.805407,0.038992,0.029875,0.009525,142.38,-19.5,140.46,261.5103,-0.8326,-0.4067,1002.8884,55.81401,37.500248,206.5155,NaN,,0.0,6.0,,19 / 22,,1242,2021-05-11 18:52:07:041
0.196331,0.162811,9.883567,0.059598,0.150057,9.805321,0.041435,0.021934,-2.49E-4,142.08,-19.56,140.22,261.5103,-0.8326,-0.4067,1002.8884,55.81401,37.500248,206.5155,NaN,,0.0,6.0,,19 / 22,,1253,2021-05-11 18:52:07:052
0.141262,0.237033,9.780613,0.059598,0.150057,9.805321,0.037159,0.004219,-0.006969,142.08,-19.56,140.22,261.5103,-0.8326,-0.4067,1002.8884,55.81401,37.500248,206.5155,NaN,,0.0,6.0,,19 / 22,,1263,2021-05-11 18:52:07:062
0.069434,0.26337,9.715967,0.066415,0.158677,9.805141,0.034715,-0.004944,-0.013688,141.78,-19.26,140.34,261.4767,-0.8768,-0.3482,1002.8884,55.81401,37.500248,206.5155,NaN,,0.0,6.0,,19 / 22,,1273,2021-05-11 18:52:07:072
0.007183,0.277736,9.581888,0.066415,0.158677,9.805141,0.029829,-0.010442,-0.012467,141.78,-19.26,140.34,261.4767,-0.8768,-0.3482,1002.8884,55.81401,37.500248,206.5155,NaN,,0.0,6.0,,19 / 22,,1283,2021-05-11 18:52:07:082
0.007183,0.277736,9.581888,0.066415,0.158677,9.805141,0.010892,-0.020827,-0.011245,141.78,-19.26,140.34,261.4767,-0.8768,-0.3482,1002.8884,55.81401,37.500248,206.5155,NaN,,0.0,6.0,,19 / 22,,1292,2021-05-11 18:52:07:091
-0.021548,0.282524,9.613013,0.071279,0.170035,9.804917,-0.001936,-0.007388,-0.010634,142.14,-18.9,140.76,261.4767,-0.8768,-0.3482,1002.8884,55.81401,37.500248,206.5155,NaN,,0.0,6.0,,19 / 22,,1303,2021-05-11 18:52:07:102
-0.028731,0.249005,9.61062,0.06978,0.17941,9.80476,-0.01171,0.002997,-0.002693,143.04,-18.9,140.82,261.4045,-0.9935,-0.4165,1002.8884,55.81401,37.500248,206.5155,NaN,,0.0,6.0,,19 / 22,,1313,2021-05-11 18:52:07:112
-0.047885,0.203513,9.694419,0.06978,0.17941,9.80476,-0.020262,0.010938,0.003416,143.04,-18.9,140.82,261.4045,-0.9935,-0.4165,1002.8884,55.81401,37.500248,206.5155,NaN,,0.0,6.0,,19 / 22,,1323,2021-05-11 18:52:07:122
-0.047885,0.203513,9.694419,0.06978,0.17941,9.80476,-0.020262,0.010938,0.003416,143.04,-18.9,140.82,261.4045,-0.9935,-0.4165,1002.8884,55.81401,37.500248,206.5155,NaN,,0.0,6.0,,19 / 22,,1333,2021-05-11 18:52:07:132
0.009577,0.114925,9.818921,0.060692,0.18428,9.80473,-0.017819,0.013382,0.00647,142.98,-19.62,140.64,261.4045,-0.9935,-0.4165,1002.8892,55.81401,37.500248,206.5155,NaN,,0.0,6.0,,19 / 22,,1343,2021-05-11 18:52:07:142
0.088588,0.141262,9.897932,0.052458,0.183313,9.804796,-0.003769,0.020101,9.72E-4,142.32,-20.52,140.4,260.4896,-1.0767,-0.3547,1002.8892,55.81401,37.500248,206.5155,NaN,,0.0,6.0,,19 / 22,,1353,2021-05-11 18:52:07:152
0.059857,0.124502,9.912297,0.052458,0.183313,9.804796,-0.003158,0.023155,-0.001471,142.32,-20.52,140.4,260.4896,-1.0767,-0.3547,1002.8892,55.81401,37.500248,206.5155,NaN,,0.0,6.0,,19 / 22,,1363,2021-05-11 18:52:07:162
0.014366,0.134079,9.907509,0.046138,0.180694,9.804876,0.004783,0.012771,0.001583,142.26,-19.86,141.12,260.4896,-1.0767,-0.3547,1002.8892,55.81401,37.500248,206.5155,NaN,,0.0,6.0,,19 / 22,,1373,2021-05-11 18:52:07:172
0.014366,0.134079,9.907509,0.046138,0.180694,9.804876,0.007837,0.009716,0.003416,142.38,-19.38,140.76,260.4896,-1.0767,-0.3547,1002.8892,55.81401,37.500248,206.5155,NaN,,0.0,6.0,,19 / 22,,1383,2021-05-11 18:52:07:182
0.093377,0.126897,9.864412,0.042767,0.177565,9.804949,0.013946,-0.003723,-0.003914,142.38,-19.38,140.76,260.4896,-1.0767,-0.3547,1002.8892,55.81401,37.500248,206.5155,NaN,,0.0,6.0,,19 / 22,,1393,2021-05-11 18:52:07:192
0.064645,0.162811,9.90272,0.042767,0.177565,9.804949,0.013946,-0.003723,-0.003914,142.02,-18.96,139.98,261.3366,-1.0375,-0.2499,1002.8892,55.81401,37.500248,206.5155,NaN,,0.0,6.0,,19 / 22,,1402,2021-05-11 18:52:07:201
0.019154,0.205908,9.802161,0.043468,0.176162,9.804972,0.02372,-6.68E-4,-0.004525,142.14,-18.9,139.98,261.3366,-1.0375,-0.2499,1002.8892,55.81401,37.500248,206.5155,NaN,,0.0,6.0,,19 / 22,,1413,2021-05-11 18:52:07:212
-0.009577,0.29689,9.725544,0.044128,0.178997,9.804917,0.034105,-0.006166,-0.002693,142.14,-18.9,139.98,261.3366,-1.0375,-0.2499,1002.8892,55.81401,37.500248,206.5155,NaN,,0.0,6.0,,20 / 23,,1423,2021-05-11 18:52:07:222
-0.023943,0.337593,9.644139,0.044169,0.182714,9.804848,0.02372,-0.005555,-0.005747,142.44,-19.26,139.86,261.3366,-1.0375,-0.2499,1002.8892,55.81401,37.500248,206.5155,NaN,,0.0,6.0,,20 / 23,,1433,2021-05-11 18:52:07:232
-0.023943,0.337593,9.644139,0.044169,0.182714,9.804848,0.010892,-0.007999,-0.002082,142.44,-19.26,139.86,261.3366,-1.0375,-0.2499,1002.8953,55.81401,37.500248,206.5155,NaN,,0.0,6.0,,20 / 23,,1443,2021-05-11 18:52:07:242
-0.071828,0.21309,9.732727,0.041148,0.191472,9.804694,-0.004991,0.009716,9.72E-4,141.96,-19.44,140.22,261.3061,-1.0676,-0.2581,1002.8953,55.81401,37.500248,206.5155,NaN,,0.0,6.0,,20 / 23,,1453,2021-05-11 18:52:07:252
-0.05028,0.220273,9.787795,0.041148,0.191472,9.804694,-0.012932,0.035984,0.002194,141.96,-19.44,140.22,261.3061,-1.0676,-0.2581,1002.8953,55.81401,37.500248,206.5155,NaN,,0.0,6.0,,20 / 23,,1463,2021-05-11 18:52:07:262
-0.045491,0.196331,9.771035,0.028763,0.19432,9.804683,-0.020262,0.021323,-0.001471,141.66,-19.44,140.64,261.3061,-1.0676,-0.2581,1002.8953,55.81401,37.500248,206.5155,NaN,,0.0,6.0,,20 / 23,,1473,2021-05-11 18:52:07:272
0.004789,0.203513,9.850046,0.028763,0.19432,9.804683,-0.012932,0.006051,-0.006358,141.66,-19.44,140.64,261.3061,-1.0676,-0.2581,1002.8953,55.81401,37.500248,206.5155,NaN,,0.0,6.0,,20 / 23,,1483,2021-05-11 18:52:07:282
0.004789,0.203513,9.850046,0.019879,0.195459,9.804682,-0.001936,0.00544,-0.010023,142.08,-19.8,139.86,260.8607,-1.1354,-0.1681,1002.8953,55.81401,37.500248,206.5155,NaN,,0.0,6.0,,20 / 23,,1493,2021-05-11 18:52:07:292
0.059857,0.141262,9.881172,0.019879,0.195459,9.804682,-0.001936,0.006051,-0.010023,142.08,-19.8,139.86,260.8607,-1.1354,-0.1681,1002.8953,55.81401,37.500248,206.5155,NaN,,0.0,6.0,,20 / 23,,1503,2021-05-11 18:52:07:302
0.01676,0.107742,9.895537,0.015688,0.195181,9.804695,0.00234,0.002997,0.002194,142.38,-20.1,140.1,260.8607,-1.1354,-0.1681,1002.8953,55.81401,37.500248,206.5155,NaN,,0.0,6.0,,20 / 23,,1513,2021-05-11 18:52:07:312
0.047885,0.134079,9.933846,0.015688,0.195181,9.804695,0.008448,-0.00189,0.002805,142.38,-20.1,140.1,260.8607,-1.1354,-0.1681,1002.8953,55.81401,37.500248,206.5155,NaN,,0.0,6.0,,20 / 23,,1524,2021-05-11 18:52:07:323
0.117319,0.148445,9.998491,0.015068,0.192439,9.80475,0.021276,5.53E-4,0.005859,142.56,-19.68,140.82,260.9242,-1.1404,-0.0917,1002.8953,55.81401,37.500248,206.5155,NaN,,0.0,6.0,,20 / 23,,1533,2021-05-11 18:52:07:332
0.117319,0.148445,9.998491,0.015068,0.192439,9.80475,0.021276,5.53E-4,0.005859,142.56,-19.68,140.82,260.9242,-1.1404,-0.0917,1002.8901,55.81401,37.500248,206.5155,NaN,,0.0,6.0,,20 / 23,,1543,2021-05-11 18:52:07:342
0.105348,0.162811,9.912297,0.020077,0.1926,9.804738,0.046322,-0.006166,0.002805,142.56,-20.1,140.4,260.9242,-1.1404,-0.0917,1002.8901,55.81401,37.500248,206.5155,NaN,,0.0,6.0,,20 / 23,,1553,2021-05-11 18:52:07:352
0.0838,0.196331,9.823709,0.020077,0.1926,9.804738,0.05915,-0.011664,-0.001471,142.56,-20.1,140.4,260.9242,-1.1404,-0.0917,1002.8901,55.81401,37.500248,206.5155,NaN,,0.0,6.0,,20 / 23,,1563,2021-05-11 18:52:07:362
0.057463,0.189148,9.73991,0.028888,0.197702,9.804615,0.054874,-0.00861,-0.006358,142.56,-20.22,140.7,260.9343,-1.1253,-0.1173,1002.8901,55.81401,37.500248,206.5155,NaN,,0.0,6.0,,20 / 23,,1573,2021-05-11 18:52:07:372
0.057463,0.189148,9.73991,0.028888,0.197702,9.804615,0.042657,-0.012275,-0.008801,142.56,-20.22,140.7,260.9343,-1.1253,-0.1173,1002.8901,55.81401,37.500248,206.5155,NaN,,0.0,6.0,,20 / 23,,1583,2021-05-11 18:52:07:382
-0.009577,0.220273,9.670476,0.034941,0.201158,9.804524,0.033494,-0.014718,-0.004525,142.98,-19.62,140.88,260.9343,-1.1253,-0.1173,1002.8901,55.81401,37.500248,206.5155,NaN,,0.0,6.0,,20 / 23,,1593,2021-05-11 18:52:07:392
-0.028731,0.251399,9.703996,0.034941,0.201158,9.804524,0.026163,-0.00189,-0.008801,142.98,-19.62,140.88,260.9343,-1.1253,-0.1173,1002.8901,55.81401,37.500248,206.5155,NaN,,0.0,6.0,,20 / 23,,1603,2021-05-11 18:52:07:402
0.10056,0.237033,9.663293,0.035887,0.204674,9.804449,0.011503,0.014603,-0.008801,142.86,-19.38,140.16,261.2715,-1.1754,-0.2042,1002.8901,55.81401,37.500248,206.5155,NaN,,0.0,6.0,,20 / 23,,1613,2021-05-11 18:52:07:412
0.117319,0.237033,9.651321,0.035887,0.204674,9.804449,-0.001936,0.018879,-0.005136,142.86,-19.38,140.16,261.2715,-1.1754,-0.2042,1002.8901,55.81401,37.500248,206.5155,NaN,,0.0,6.0,,20 / 23,,1623,2021-05-11 18:52:07:422
0.117319,0.237033,9.651321,0.035855,0.205923,9.804422,-0.017208,0.023155,-0.005747,142.08,-19.26,140.46,261.2715,-1.1754,-0.2042,1002.8901,55.81401,37.500248,206.5155,NaN,,0.0,6.0,,20 / 23,,1633,2021-05-11 18:52:07:432
0.124502,0.222668,9.692024,0.035855,0.205923,9.804422,-0.017208,0.023155,-0.005747,142.08,-19.26,140.46,261.2715,-1.1754,-0.2042,1002.8872,55.81401,37.500248,206.5155,NaN,,0.0,6.0,,20 / 23,,1643,2021-05-11 18:52:07:442
0.138868,0.244216,9.818921,0.035855,0.205923,9.804422,-0.025149,0.024377,-0.006358,142.08,-19.26,140.46,261.2715,-1.1754,-0.2042,1002.8872,55.81401,37.500248,206.5155,NaN,,0.0,6.0,,20 / 23,,1653,2021-05-11 18:52:07:452
0.0838,0.181965,9.818921,0.038406,0.204051,9.804452,-0.020873,0.028042,-0.011245,141.54,-19.62,140.58,260.7795,-1.2032,-0.2095,1002.8872,55.81401,37.500248,206.5155,NaN,,0.0,6.0,,20 / 23,,1663,2021-05-11 18:52:07:462
0.031126,0.196331,9.871595,0.043289,0.203417,9.804444,-0.009267,-0.003112,-0.012467,141.72,-19.74,140.34,260.7795,-1.2032,-0.2095,1002.8872,55.81401,37.500248,206.5155,NaN,,0.0,6.0,,20 / 23,,1673,2021-05-11 18:52:07:472
0.031126,0.196331,9.871595,0.043289,0.203417,9.804444,0.001118,-0.011664,-0.010023,141.72,-19.74,140.34,260.7795,-1.2032,-0.2095,1002.8872,55.81401,37.500248,206.5155,NaN,,0.0,6.0,,20 / 23,,1682,2021-05-11 18:52:07:481
0.023943,0.198725,9.912297,0.04947,0.204341,9.804397,0.011503,-0.017162,-0.011856,142.26,-19.38,140.34,261.1897,-1.1886,-0.253,1002.8872,55.81401,37.500248,206.5155,NaN,,0.0,6.0,,20 / 23,,1693,2021-05-11 18:52:07:492
0.028731,0.177176,9.823709,0.04947,0.204341,9.804397,0.020055,-0.030601,-0.00758,142.26,-19.38,140.34,261.1897,-1.1886,-0.253,1002.8872,55.81401,37.500248,206.5155,NaN,,0.0,6.0,,20 / 23,,1703,2021-05-11 18:52:07:502
0.028731,0.227456,9.747093,0.054414,0.207972,9.804294,0.022498,-0.040985,-0.010023,142.02,-19.68,140.28,261.1897,-1.1886,-0.253,1002.8872,55.81401,37.500248,206.5155,NaN,,0.0,6.0,,20 / 23,,1713,2021-05-11 18:52:07:512
0.069434,0.26337,9.703996,0.054414,0.207972,9.804294,0.015779,-0.033655,-0.006358,142.02,-19.68,140.28,261.1897,-1.1886,-0.253,1002.8872,55.81401,37.500248,206.5155,NaN,,0.0,6.0,,20 / 23,,1723,2021-05-11 18:52:07:522
0.069434,0.26337,9.703996,0.059518,0.21236,9.80417,0.015779,-0.033655,-0.006358,142.44,-19.68,140.4,260.7572,-1.2152,-0.318,1002.8872,55.81401,37.500248,206.5155,NaN,,0.0,6.0,,20 / 23,,1733,2021-05-11 18:52:07:532
0.081405,0.253793,9.629773,0.059518,0.21236,9.80417,-0.001936,-0.020827,-0.002082,142.44,-19.68,140.4,260.7572,-1.2152,-0.318,1002.8979,55.81401,37.500248,206.5155,NaN,,0.0,6.0,,20 / 23,,1743,2021-05-11 18:52:07:542
0.076617,0.268159,9.696813,0.06153,0.214219,9.804117,-0.02576,0.001164,0.001583,142.38,-19.56,140.46,260.7572,-1.2152,-0.318,1002.8979,55.81401,37.500248,206.5155,NaN,,0.0,6.0,,20 / 23,,1754,2021-05-11 18:52:07:553
0.047885,0.225062,9.799767,0.06153,0.214219,9.804117,-0.03981,0.014603,0.003416,142.38,-19.56,140.46,260.7572,-1.2152,-0.318,1002.8979,55.81401,37.500248,206.5155,NaN,,0.0,6.0,,20 / 23,,1764,2021-05-11 18:52:07:563
0.047885,0.225062,9.799767,0.058193,0.21189,9.804188,-0.039199,0.020712,3.62E-4,141.96,-20.34,140.16,260.7143,-1.2517,-0.3596,1002.8979,55.81401,37.500248,206.5155,NaN,,0.0,6.0,,20 / 23,,1773,2021-05-11 18:52:07:572
-0.028731,0.205908,9.924269,0.058193,0.21189,9.804188,-0.026982,0.025599,9.72E-4,141.96,-20.34,140.16,260.7143,-1.2517,-0.3596,1002.8979,55.81401,37.500248,206.5155,NaN,,0.0,6.0,,20 / 23,,1783,2021-05-11 18:52:07:582
-0.040703,0.165205,9.931452,0.050673,0.209726,9.804276,-0.019652,0.012771,3.62E-4,142.5,-20.34,140.04,260.7143,-1.2517,-0.3596,1002.8979,55.81401,37.500248,206.5155,NaN,,0.0,6.0,,20 / 23,,1793,2021-05-11 18:52:07:592
0.021548,0.153234,9.938635,0.050673,0.209726,9.804276,-0.007434,0.004219,3.62E-4,142.5,-20.34,140.04,260.7143,-1.2517,-0.3596,1002.8979,55.81401,37.500248,206.5155,NaN,,0.0,6.0,,20 / 23,,1803,2021-05-11 18:52:07:602
0.136474,0.222668,9.912297,0.044496,0.207869,9.804345,5.07E-4,5.53E-4,-8.6E-4,142.62,-20.1,140.52,260.8063,-1.2254,-0.2961,1002.8979,55.81401,37.500248,206.5155,NaN,,0.0,6.0,,20 / 23,,1813,2021-05-11 18:52:07:612
0.136474,0.222668,9.912297,0.044496,0.207869,9.804345,0.005394,-0.00189,-0.004525,142.62,-20.1,140.52,260.8063,-1.2254,-0.2961,1002.8979,55.81401,37.500248,206.5155,NaN,,0.0,6.0,,20 / 23,,1823,2021-05-11 18:52:07:622
0.141262,0.193936,9.852441,0.044496,0.207869,9.804345,5.07E-4,-0.006166,-0.011856,142.62,-20.1,140.52,260.8063,-1.2254,-0.2961,1002.8979,55.81401,37.500248,206.5155,NaN,,0.0,6.0,,20 / 23,,1834,2021-05-11 18:52:07:633
0.122108,0.201119,9.917087,0.046083,0.208581,9.804324,5.07E-4,-6.68E-4,-0.011245,142.74,-19.68,140.82,260.8063,-1.2254,-0.2961,1002.8977,55.81401,37.500248,206.5155,NaN,,0.0,6.0,,20 / 23,,1842,2021-05-11 18:52:07:641
0.088588,0.244216,9.823709,0.05111,0.207703,9.804317,0.003561,0.006662,-0.00758,142.02,-19.14,140.76,261.149,-1.2187,-0.2693,1002.8977,55.81401,37.500248,206.5155,NaN,,0.0,6.0,,20 / 23,,1853,2021-05-11 18:52:07:652
0.071828,0.237033,9.727939,0.05111,0.207703,9.804317,-0.003769,5.53E-4,-0.006969,142.02,-19.14,140.76,261.149,-1.2187,-0.2693,1002.8977,55.81401,37.500248,206.5155,NaN,,0.0,6.0,,20 / 23,,1863,2021-05-11 18:52:07:662
0.071828,0.237033,9.727939,0.054983,0.209137,9.804266,-0.012932,5.53E-4,-0.006969,142.02,-19.38,140.52,261.149,-1.2187,-0.2693,1002.8977,55.81401,37.500248,206.5155,NaN,,0.0,6.0,,20 / 23,,1873,2021-05-11 18:52:07:672
0.074223,0.220273,9.754275,0.054983,0.209137,9.804266,-0.016597,-0.002501,-0.004525,142.02,-19.38,140.52,261.149,-1.2187,-0.2693,1002.8977,55.81401,37.500248,206.5155,NaN,,0.0,6.0,,20 / 23,,1884,2021-05-11 18:52:07:683
0.093377,0.241822,9.804555,0.058892,0.208442,9.804257,-0.025149,0.011549,-0.011856,142.92,-20.1,140.58,260.8051,-1.222,-0.3213,1002.8977,55.81401,37.500248,206.5155,NaN,,0.0,6.0,,20 / 23,,1893,2021-05-11 18:52:07:692
0.057463,0.208302,9.80695,0.058892,0.208442,9.804257,-0.02576,0.017658,-0.006969,142.92,-20.1,140.58,260.8051,-1.222,-0.3213,1002.8977,55.81401,37.500248,206.5155,NaN,,0.0,6.0,,20 / 23,,1903,2021-05-11 18:52:07:702
0.057463,0.208302,9.80695,0.060385,0.207312,9.804273,-0.022706,0.015214,-0.003914,142.62,-20.46,140.58,260.8051,-1.222,-0.3213,1002.8977,55.81401,37.500248,206.5155,NaN,,0.0,6.0,,20 / 23,,1913,2021-05-11 18:52:07:712
0.05028,0.186753,9.914692,0.060385,0.207312,9.804273,-0.013543,0.01949,-0.010634,142.62,-20.46,140.58,260.8051,-1.222,-0.3213,1002.8977,55.81401,37.500248,206.5155,NaN,,0.0,6.0,,20 / 23,,1923,2021-05-11 18:52:07:722
0.076617,0.205908,9.938635,0.059269,0.205406,9.804319,-0.013543,0.01949,-0.010634,142.44,-19.68,140.28,260.7547,-1.2113,-0.3529,1002.8977,55.81401,37.500248,206.5155,NaN,,0.0,6.0,,20 / 23,,1933,2021-05-11 18:52:07:732
0.102954,0.191542,9.907509,0.059269,0.205406,9.804319,0.001729,0.013992,-0.010634,142.44,-19.68,140.28,260.7547,-1.2113,-0.3529,1002.895,55.81401,37.500248,206.5155,NaN,,0.0,6.0,,20 / 23,,1943,2021-05-11 18:52:07:742
0.098165,0.177176,9.883567,0.060182,0.206115,9.804299,0.007227,0.006662,-0.012467,142.74,-18.9,140.4,260.7547,-1.2113,-0.3529,1002.895,55.81401,37.500248,206.5155,NaN,,0.0,6.0,,20 / 23,,1954,2021-05-11 18:52:07:753
0.098165,0.177176,9.883567,0.060182,0.206115,9.804299,0.011503,-0.001279,-0.017353,142.74,-18.9,140.4,260.7547,-1.2113,-0.3529,1002.895,55.81401,37.500248,206.5155,NaN,,0.0,6.0,,20 / 23,,1963,2021-05-11 18:52:07:762
0.05028,0.172388,9.866806,0.063191,0.207027,9.80426,0.008448,0.015214,-0.017353,142.74,-18.9,141.24,261.21,-1.2043,-0.3517,1002.895,55.81401,37.500248,206.5155,NaN,,0.0,6.0,,20 / 23,,1973,2021-05-11 18:52:07:772
0.057463,0.179571,9.77343,0.063191,0.207027,9.80426,-0.001326,0.023766,-0.019186,142.74,-18.9,141.24,261.21,-1.2043,-0.3517,1002.895,55.81401,37.500248,206.5155,NaN,,0.0,6.0,,20 / 23,,1983,2021-05-11 18:52:07:782
0.043097,0.203513,9.75667,0.060875,0.205274,9.804313,-0.014154,0.023766,-0.016743,142.38,-18.96,140.94,261.21,-1.2043,-0.3517,1002.895,55.81401,37.500248,206.5155,NaN,,0.0,6.0,,20 / 23,,1993,2021-05-11 18:52:07:792
0.043097,0.203513,9.75667,0.060875,0.205274,9.804313,-0.022095,0.012771,-0.016132,142.38,-18.96,140.94,261.21,-1.2043,-0.3517,1002.895,55.81401,37.500248,206.5155,NaN,,0.0,6.0,,20 / 23,,2003,2021-05-11 18:52:07:802
0.014366,0.203513,9.842864,0.058692,0.200692,9.80442,-0.01171,0.002386,-0.019186,142.2,-19.14,140.76,261.1529,-1.1994,-0.3557,1002.895,55.81401,37.500248,206.5155,NaN,,0.0,6.0,,20 / 23,,2013,2021-05-11 18:52:07:812
0.009577,0.184359,9.859624,0.058692,0.200692,9.80442,5.07E-4,-0.012886,-0.016132,142.2,-19.14,140.76,261.1529,-1.1994,-0.3557,1002.895,55.81401,37.500248,206.5155,NaN,,0.0,6.0,,20 / 23,,2023,2021-05-11 18:52:07:822
0.090982,0.136474,9.885961,0.059395,0.199544,9.80444,0.015168,-0.022659,-0.016132,141.78,-18.9,141.24,261.1529,-1.1994,-0.3557,1002.895,55.81401,37.500248,206.5155,NaN,,0.0,6.0,,20 / 23,,2034,2021-05-11 18:52:07:833
0.090982,0.136474,9.885961,0.059395,0.199544,9.80444,0.018833,-0.00922,-0.01491,141.78,-18.9,141.24,261.1529,-1.1994,-0.3557,1002.8848,55.81401,37.500248,206.5155,NaN,,0.0,6.0,,20 / 23,,2043,2021-05-11 18:52:07:842
0.153234,0.124502,9.838076,0.062996,0.198826,9.804432,0.018222,0.002386,-0.016743,142.2,-18.66,140.7,261.1871,-1.1659,-0.3471,1002.8848,55.81401,37.500248,206.5155,NaN,,0.0,6.0,,20 / 23,,2053,2021-05-11 18:52:07:852
0.086194,0.136474,9.77343,0.062996,0.198826,9.804432,0.018222,0.001775,-0.008801,142.2,-18.66,140.7,261.1871,-1.1659,-0.3471,1002.8848,55.81401,37.500248,206.5155,NaN,,0.0,6.0,,20 / 23,,2063,2021-05-11 18:52:07:862
0.01676,0.220273,9.763853,0.065727,0.195742,9.804477,0.017611,0.013992,-0.010023,142.14,-18.78,140.22,261.1871,-1.1659,-0.3471,1002.8848,55.81401,37.500248,206.5155,NaN,,0.0,6.0,,20 / 23,,2074,2021-05-11 18:52:07:873
0.114925,0.29689,9.725544,0.065727,0.195742,9.804477,0.012724,0.024377,-0.021019,142.14,-18.78,140.22,261.1871,-1.1659,-0.3471,1002.8848,55.81401,37.500248,206.5155,NaN,,0.0,6.0,,20 / 23,,2083,2021-05-11 18:52:07:882
0.114925,0.29689,9.725544,0.064634,0.198063,9.804438,0.012724,0.024377,-0.021019,142.08,-18.78,140.4,261.2109,-1.1437,-0.3841,1002.8848,55.81401,37.500248,206.5155,NaN,,0.0,6.0,,20 / 23,,2093,2021-05-11 18:52:07:892
-0.014366,0.153234,9.672871,0.064634,0.198063,9.804438,-0.003769,0.032318,-0.018575,142.08,-18.78,140.4,261.2109,-1.1437,-0.3841,1002.8848,55.81401,37.500248,206.5155,NaN,,0.0,6.0,,20 / 23,,2103,2021-05-11 18:52:07:902
-0.088588,0.122108,9.742304,0.058793,0.196353,9.804508,-0.014154,0.037205,-0.014299,142.32,-18.84,140.64,261.2109,-1.1437,-0.3841,1002.8848,55.81401,37.500248,206.5155,NaN,,0.0,6.0,,20 / 23,,2113,2021-05-11 18:52:07:912
-0.071828,0.141262,9.890749,0.058793,0.196353,9.804508,-0.022095,0.024988,-0.013077,142.32,-18.84,140.64,261.2109,-1.1437,-0.3841,1002.8848,55.81401,37.500248,206.5155,NaN,,0.0,6.0,,20 / 23,,2123,2021-05-11 18:52:07:922
-0.071828,0.141262,9.890749,0.058793,0.196353,9.804508,-0.009878,0.02621,-0.002693,142.32,-18.84,140.64,261.2109,-1.1437,-0.3841,1002.8848,55.81401,37.500248,206.5155,NaN,,0.0,6.0,,20 / 23,,2133,2021-05-11 18:52:07:932
0.045491,0.150839,9.885961,0.046838,0.189403,9.804709,-0.006212,0.013382,-0.009412,141.84,-19.44,141.3,261.206,-1.1473,-0.3436,1002.8855,55.81401,37.500248,206.5155,NaN,,0.0,6.0,,20 / 23,,2143,2021-05-11 18:52:07:942
0.122108,0.234639,9.924269,0.040631,0.184894,9.804822,-0.009267,-0.00861,-0.018575,142.38,-19.14,141.66,261.206,-1.1473,-0.3436,1002.8855,55.81401,37.500248,206.5155,NaN,,0.0,6.0,,20 / 23,,2153,2021-05-11 18:52:07:952
0.172388,0.203513,9.96976,0.040631,0.184894,9.804822,0.009059,-0.007999,-0.019797,142.38,-19.14,141.66,261.206,-1.1473,-0.3436,1002.8855,55.81401,37.500248,206.5155,NaN,,0.0,6.0,,20 / 23,,2163,2021-05-11 18:52:07:962
0.172388,0.203513,9.96976,0.04545,0.185207,9.804795,0.012113,-0.003112,-0.019186,142.92,-18.84,141.0,261.3497,-1.0803,-0.2374,1002.8855,55.81401,37.500248,206.5155,NaN,,0.0,6.0,,20 / 23,,2173,2021-05-11 18:52:07:972
0.138868,0.136474,9.921875,0.04545,0.185207,9.804795,0.010892,0.002997,-0.010634,142.92,-18.84,141.0,261.3497,-1.0803,-0.2374,1002.8855,55.81401,37.500248,206.5155,NaN,,0.0,6.0,,20 / 23,,2183,2021-05-11 18:52:07:982
0.090982,0.131685,9.933846,0.053051,0.18529,9.804756,0.012724,0.015214,-0.005747,142.74,-19.32,140.94,261.3497,-1.0803,-0.2374,1002.8855,55.81401,37.500248,206.5155,NaN,,0.0,6.0,,20 / 23,,2193,2021-05-11 18:52:07:992
0.047885,0.062251,9.909904,0.053051,0.18529,9.804756,0.015779,0.02621,0.010135,142.74,-19.32,140.94,261.3497,-1.0803,-0.2374,1002.8855,55.81401,37.500248,206.5155,NaN,,0.0,6.0,,20 / 23,,2203,2021-05-11 18:52:08:002
-0.004789,0.086194,9.828498,0.054918,0.18103,9.804825,0.015779,0.02621,0.010135,142.5,-19.86,140.76,260.9422,-1.0826,-0.31,1002.8855,55.81401,37.500248,206.5155,NaN,,0.0,6.0,,20 / 23,,2213,2021-05-11 18:52:08:012
0.009577,0.158022,9.830893,0.054918,0.18103,9.804825,0.024331,0.013382,0.010135,142.5,-19.86,140.76,260.9422,-1.0826,-0.31,1002.8855,55.81401,37.500248,206.5155,NaN,,0.0,6.0,,20 / 23,,2223,2021-05-11 18:52:08:022
0.009577,0.158022,9.830893,0.05365,0.176806,9.80491,0.03105,0.014603,0.004027,142.56,-20.04,140.46,260.9422,-1.0826,-0.31,1002.8855,55.81401,37.500248,206.5155,NaN,,0.0,6.0,,20 / 23,,2234,2021-05-11 18:52:08:033
0.026337,0.205908,9.703996,0.05365,0.176806,9.80491,0.036548,0.013382,-0.005747,142.56,-20.04,140.46,260.9422,-1.0826,-0.31,1002.8887,55.81401,37.500248,206.5155,NaN,,0.0,6.0,,20 / 23,,2243,2021-05-11 18:52:08:042
-0.009577,0.174782,9.63935,0.050569,0.177807,9.804908,0.032272,-0.004333,-0.008801,142.98,-19.62,140.76,260.9896,-1.0331,-0.3135,1002.8887,55.81401,37.500248,206.5155,NaN,,0.0,6.0,,20 / 23,,2253,2021-05-11 18:52:08:052
-0.009577,0.227456,9.701602,0.050569,0.177807,9.804908,0.022498,-0.007999,-0.010634,142.98,-19.62,140.76,260.9896,-1.0331,-0.3135,1002.8887,55.81401,37.500248,206.5155,NaN,,0.0,6.0,,20 / 23,,2263,2021-05-11 18:52:08:062
0.011971,0.208302,9.694419,0.047352,0.179213,9.804898,0.020055,0.004219,-0.011856,143.1,-19.38,141.0,260.9896,-1.0331,-0.3135,1002.8887,55.81401,37.500248,206.5155,NaN,,0.0,6.0,,20 / 23,,2273,2021-05-11 18:52:08:072
0.011971,0.208302,9.694419,0.047352,0.179213,9.804898,0.00967,0.00544,-0.003914,143.1,-19.38,141.0,260.9896,-1.0331,-0.3135,1002.8887,55.81401,37.500248,206.5155,NaN,,0.0,6.0,,20 / 23,,2283,2021-05-11 18:52:08:082
0.062251,0.220273,9.62259,0.04265,0.18089,9.804889,-0.006212,0.010938,-0.003304,142.62,-19.08,140.94,261.3753,-1.0471,-0.2767,1002.8887,55.81401,37.500248,206.5155,NaN,,0.0,6.0,,20 / 23,,2293,2021-05-11 18:52:08:092
0.086194,0.239427,9.703996,0.04265,0.18089,9.804889,-0.014154,0.012771,9.72E-4,142.62,-19.08,140.94,261.3753,-1.0471,-0.2767,1002.8887,55.81401,37.500248,206.5155,NaN,,0.0,6.0,,20 / 23,,2303,2021-05-11 18:52:08:102
0.076617,0.186753,9.744699,0.040122,0.180895,9.804899,-0.024538,0.014603,0.001583,142.44,-18.84,140.88,261.3753,-1.0471,-0.2767,1002.8887,55.81401,37.500248,206.5155,NaN,,0.0,6.0,,20 / 23,,2313,2021-05-11 18:52:08:112
0.076617,0.186753,9.744699,0.040122,0.180895,9.804899,-0.026371,-6.68E-4,0.002805,142.44,-18.84,140.88,261.3753,-1.0471,-0.2767,1002.8887,55.81401,37.500248,206.5155,NaN,,0.0,6.0,,20 / 23,,2323,2021-05-11 18:52:08:122
0.052674,0.167599,9.845258,0.04117,0.179421,9.804922,-0.020873,-0.004333,-8.6E-4,142.86,-19.14,140.52,261.3753,-1.0471,-0.2767,1002.8887,55.81401,37.500248,206.5155,NaN,,0.0,6.0,,20 / 23,,2333,2021-05-11 18:52:08:132
0.047885,0.155628,9.873989,0.04117,0.179421,9.804922,-0.014154,-0.005555,-0.002693,142.92,-18.78,141.06,261.3801,-1.0483,-0.2406,1002.885,55.81401,37.500248,206.5155,NaN,,0.0,6.0,,20 / 23,,2343,2021-05-11 18:52:08:142
0.062251,0.122108,9.840469,0.04356,0.177609,9.804945,-0.009878,-0.007999,-0.004525,142.92,-19.02,141.18,261.3801,-1.0483,-0.2406,1002.885,55.81401,37.500248,206.5155,NaN,,0.0,6.0,,20 / 23,,2353,2021-05-11 18:52:08:152
0.062251,0.122108,9.840469,0.04356,0.177609,9.804945,-0.014765,-0.01594,-0.003304,142.92,-19.02,141.18,261.3801,-1.0483,-0.2406,1002.885,55.81401,37.500248,206.5155,NaN,,0.0,6.0,,20 / 23,,2363,2021-05-11 18:52:08:162
0.110137,0.167599,9.878778,0.047577,0.173806,9.804995,-0.012932,-0.009831,-0.005747,142.2,-18.84,141.42,261.3801,-1.0483,-0.2406,1002.885,55.81401,37.500248,206.5155,NaN,,0.0,6.0,,20 / 23,,2373,2021-05-11 18:52:08:172
0.069434,0.160416,9.897932,0.047577,0.173806,9.804995,-0.003769,-0.003723,-0.006969,142.2,-18.84,141.42,261.3801,-1.0483,-0.2406,1002.885,55.81401,37.500248,206.5155,NaN,,0.0,6.0,,20 / 23,,2383,2021-05-11 18:52:08:182
0.069434,0.160416,9.897932,0.051881,0.17105,9.805021,0.012113,-0.013496,-0.004525,142.26,-19.2,141.9,261.3386,-1.0155,-0.278,1002.885,55.81401,37.500248,206.5155,NaN,,0.0,6.0,,20 / 23,,2393,2021-05-11 18:52:08:192
-0.011971,0.181965,9.823709,0.051881,0.17105,9.805021,0.01639,-0.020216,-0.002693,142.26,-19.2,141.9,261.3386,-1.0155,-0.278,1002.885,55.81401,37.500248,206.5155,NaN,,0.0,6.0,,20 / 23,,2404,2021-05-11 18:52:08:203
-0.023943,0.186753,9.77343,0.053807,0.173044,9.804976,0.01639,-0.020216,-0.002693,142.44,-19.2,141.66,261.3386,-1.0155,-0.278,1002.885,55.81401,37.500248,206.5155,NaN,,0.0,6.0,,20 / 23,,2413,2021-05-11 18:52:08:212
-0.086194,0.210696,9.77343,0.053807,0.173044,9.804976,0.010281,-0.009831,-0.001471,142.44,-19.2,141.66,261.3386,-1.0155,-0.278,1002.885,55.81401,37.500248,206.5155,NaN,,0.0,6.0,,21 / 23,,2423,2021-05-11 18:52:08:222
-0.038308,0.22985,9.766247,0.048036,0.175298,9.804966,0.007227,0.004219,0.008303,142.32,-18.78,141.42,261.3442,-1.0111,-0.3144,1002.885,55.81401,37.500248,206.5155,NaN,,0.0,6.0,,21 / 23,,2434,2021-05-11 18:52:08:233
-0.038308,0.22985,9.766247,0.048036,0.175298,9.804966,5.07E-4,0.003608,0.010135,142.32,-18.78,141.42,261.3442,-1.0111,-0.3144,1002.8801,55.81401,37.500248,206.5155,NaN,,0.0,6.0,,21 / 23,,2443,2021-05-11 18:52:08:242
0.021548,0.241822,9.77343,0.038256,0.178699,9.804947,0.001118,0.00544,0.007081,142.98,-19.32,141.42,261.3442,-1.0111,-0.3144,1002.8801,55.81401,37.500248,206.5155,NaN,,0.0,6.0,,21 / 23,,2452,2021-05-11 18:52:08:251
0.059857,0.249005,9.792584,0.038256,0.178699,9.804947,0.004172,-0.018383,3.62E-4,142.98,-19.32,141.42,261.3442,-1.0111,-0.3144,1002.8801,55.81401,37.500248,206.5155,NaN,,0.0,6.0,,21 / 23,,2463,2021-05-11 18:52:08:262
0.03352,0.241822,9.787795,0.035604,0.184656,9.804847,0.003561,-0.014718,-0.00758,143.1,-19.68,141.66,260.9869,-1.0441,-0.2236,1002.8801,55.81401,37.500248,206.5155,NaN,,0.0,6.0,,21 / 23,,2473,2021-05-11 18:52:08:272
0.023943,0.184359,9.80695,0.035604,0.184656,9.804847,-0.003158,-0.014107,-0.004525,143.1,-19.68,141.66,260.9869,-1.0441,-0.2236,1002.8801,55.81401,37.500248,206.5155,NaN,,0.0,6.0,,21 / 23,,2483,2021-05-11 18:52:08:282
0.023943,0.184359,9.80695,0.034939,0.189398,9.804759,-0.01843,-5.7E-5,-2.49E-4,142.8,-19.38,141.54,260.9869,-1.0441,-0.2236,1002.8801,55.81401,37.500248,206.5155,NaN,,0.0,6.0,,21 / 23,,2493,2021-05-11 18:52:08:292
0.023943,0.181965,9.799767,0.034939,0.189398,9.804759,-0.01843,-5.7E-5,-2.49E-4,142.8,-19.38,141.54,260.9869,-1.0441,-0.2236,1002.8801,55.81401,37.500248,206.5155,NaN,,0.0,6.0,,21 / 23,,2502,2021-05-11 18:52:08:301
0.040703,0.201119,9.873989,0.032239,0.188196,9.80479,-0.023317,0.003608,-0.001471,142.62,-19.56,141.36,260.9373,-1.1066,-0.2042,1002.8801,55.81401,37.500248,206.5155,NaN,,0.0,6.0,,21 / 23,,2513,2021-05-11 18:52:08:312
0.064645,0.201119,9.933846,0.032239,0.188196,9.80479,-0.015375,-0.00189,0.002194,142.62,-19.56,141.36,260.9373,-1.1066,-0.2042,1002.8801,55.81401,37.500248,206.5155,NaN,,0.0,6.0,,21 / 23,,2523,2021-05-11 18:52:08:322
0.059857,0.203513,9.838076,0.031396,0.187664,9.804804,5.07E-4,5.53E-4,-0.004525,142.38,-19.2,141.42,260.9373,-1.1066,-0.2042,1002.8801,55.81401,37.500248,206.5155,NaN,,0.0,6.0,,21 / 23,,2533,2021-05-11 18:52:08:332
0.059857,0.203513,9.838076,0.031396,0.187664,9.804804,0.012724,-0.00922,-0.00819,142.38,-19.2,141.42,260.9373,-1.1066,-0.2042,1002.886,55.81401,37.500248,206.5155,NaN,,0.0,6.0,,21 / 23,,2543,2021-05-11 18:52:08:342
0.026337,0.198725,9.72315,0.033941,0.192081,9.80471,0.001118,-0.007999,-0.014299,142.92,-19.32,141.72,261.3352,-1.0965,-0.1835,1002.886,55.81401,37.500248,206.5155,NaN,,0.0,6.0,,21 / 23,,2553,2021-05-11 18:52:08:352
0.011971,0.196331,9.749487,0.033941,0.192081,9.80471,-0.009878,0.015214,-0.011245,142.92,-19.32,141.72,261.3352,-1.0965,-0.1835,1002.886,55.81401,37.500248,206.5155,NaN,,0.0,6.0,,21 / 23,,2564,2021-05-11 18:52:08:363
-0.009577,0.181965,9.732727,0.03252,0.192343,9.804709,-0.020873,0.023766,0.004638,142.74,-19.32,141.66,261.3352,-1.0965,-0.1835,1002.886,55.81401,37.500248,206.5155,NaN,,0.0,6.0,,21 / 23,,2573,2021-05-11 18:52:08:372
-0.007183,0.167599,9.842864,0.03252,0.192343,9.804709,-0.028204,0.020712,0.005249,142.74,-19.32,141.66,261.3352,-1.0965,-0.1835,1002.886,55.81401,37.500248,206.5155,NaN,,0.0,6.0,,21 / 23,,2583,2021-05-11 18:52:08:382
-0.007183,0.167599,9.842864,0.02769,0.187679,9.804814,-0.009267,0.011549,-0.001471,141.78,-19.26,141.18,261.255,-1.1238,-0.19,1002.886,55.81401,37.500248,206.5155,NaN,,0.0,6.0,,21 / 23,,2593,2021-05-11 18:52:08:392
-0.026337,0.155628,9.885961,0.02769,0.187679,9.804814,0.010281,0.010938,0.001583,141.78,-19.26,141.18,261.255,-1.1238,-0.19,1002.886,55.81401,37.500248,206.5155,NaN,,0.0,6.0,,21 / 23,,2603,2021-05-11 18:52:08:402
-0.023943,0.114925,9.763853,0.02769,0.187679,9.804814,0.010281,0.010938,0.001583,142.02,-19.62,140.82,261.255,-1.1238,-0.19,1002.886,55.81401,37.500248,206.5155,NaN,,0.0,6.0,,21 / 23,,2613,2021-05-11 18:52:08:412
-0.021548,0.186753,9.742304,0.022554,0.186607,9.804849,0.018222,-0.015329,0.005859,142.02,-19.62,140.82,261.255,-1.1238,-0.19,1002.886,55.81401,37.500248,206.5155,NaN,,0.0,6.0,,21 / 23,,2623,2021-05-11 18:52:08:422
-0.031126,0.21309,9.759064,0.02186,0.187376,9.804836,0.007837,-0.025103,9.72E-4,142.56,-19.14,140.52,261.3575,-1.0903,-0.1318,1002.886,55.81401,37.500248,206.5155,NaN,,0.0,6.0,,21 / 23,,2633,2021-05-11 18:52:08:432
-0.031126,0.21309,9.759064,0.02186,0.187376,9.804836,-0.006212,-0.01594,0.003416,142.56,-19.14,140.52,261.3575,-1.0903,-0.1318,1002.8809,55.81401,37.500248,206.5155,NaN,,0.0,6.0,,21 / 23,,2643,2021-05-11 18:52:08:442
-0.023943,0.215485,9.80695,0.019135,0.186559,9.804857,-0.020262,-0.003723,0.008914,142.5,-19.2,141.24,261.3575,-1.0903,-0.1318,1002.8809,55.81401,37.500248,206.5155,NaN,,0.0,6.0,,21 / 23,,2653,2021-05-11 18:52:08:452
0.028731,0.275342,9.862018,0.019135,0.186559,9.804857,-0.025149,0.013382,0.002194,142.5,-19.2,141.24,261.3575,-1.0903,-0.1318,1002.8809,55.81401,37.500248,206.5155,NaN,,0.0,6.0,,21 / 23,,2663,2021-05-11 18:52:08:462
0.047885,0.260976,9.893144,0.013391,0.18682,9.804861,-0.022706,-6.68E-4,-0.002082,142.62,-19.5,141.6,261.3535,-1.09,-0.1118,1002.8809,55.81401,37.500248,206.5155,NaN,,0.0,6.0,,21 / 23,,2673,2021-05-11 18:52:08:472
0.047885,0.260976,9.893144,0.013391,0.18682,9.804861,-0.016597,0.010327,-0.004525,142.62,-19.5,141.6,261.3535,-1.09,-0.1118,1002.8809,55.81401,37.500248,206.5155,NaN,,0.0,6.0,,21 / 23,,2683,2021-05-11 18:52:08:482
0.059857,0.239427,9.847652,0.011518,0.190138,9.8048,-0.01843,0.00483,-0.003914,142.8,-19.5,141.24,261.3535,-1.09,-0.1118,1002.8809,55.81401,37.500248,206.5155,NaN,,0.0,6.0,,21 / 23,,2692,2021-05-11 18:52:08:491
0.102954,0.174782,9.794978,0.011518,0.190138,9.8048,-0.01843,0.00483,-0.003914,142.8,-19.5,141.24,261.3535,-1.09,-0.1118,1002.8809,55.81401,37.500248,206.5155,NaN,,0.0,6.0,,21 / 23,,2703,2021-05-11 18:52:08:502
0.062251,0.153234,9.873989,0.012362,0.191993,9.804763,-0.019041,-0.006166,-0.002082,142.86,-19.68,141.0,261.3535,-1.09,-0.1118,1002.8809,55.81401,37.500248,206.5155,NaN,,0.0,6.0,,21 / 23,,2713,2021-05-11 18:52:08:512
0.047885,0.181965,9.883567,0.01708,0.192491,9.804746,-0.001326,0.006051,-0.005136,142.68,-19.8,141.06,260.9455,-1.1218,-0.0722,1002.8809,55.81401,37.500248,206.5155,NaN,,0.0,6.0,,21 / 23,,2724,2021-05-11 18:52:08:523
0.047885,0.181965,9.883567,0.01708,0.192491,9.804746,0.014557,-0.003112,-0.019797,142.68,-19.8,141.06,260.9455,-1.1218,-0.0722,1002.8809,55.81401,37.500248,206.5155,NaN,,0.0,6.0,,21 / 23,,2734,2021-05-11 18:52:08:533
-0.011971,0.282524,9.663293,0.020071,0.197501,9.804641,0.014557,-0.003112,-0.019797,142.32,-19.44,141.66,260.9455,-1.1218,-0.0722,1002.8823,55.81401,37.500248,206.5155,NaN,,0.0,6.0,,21 / 23,,2743,2021-05-11 18:52:08:542
-0.011971,0.282524,9.663293,0.020071,0.197501,9.804641,0.006005,-0.011664,-0.022851,142.32,-19.44,141.66,260.9455,-1.1218,-0.0722,1002.8823,55.81401,37.500248,206.5155,NaN,,0.0,6.0,,21 / 23,,2753,2021-05-11 18:52:08:552
-0.107742,0.114925,9.620196,0.02059,0.201191,9.804564,-0.003769,-0.006777,-0.016132,142.26,-19.44,141.96,260.9455,-1.1218,-0.0722,1002.8823,55.81401,37.500248,206.5155,NaN,,0.0,6.0,,21 / 23,,2763,2021-05-11 18:52:08:562
-0.155628,0.169994,9.924269,0.013788,0.199272,9.804615,-0.029425,0.024377,-0.003914,142.44,-19.26,142.02,261.2084,-1.1755,-0.1203,1002.8823,55.81401,37.500248,206.5155,NaN,,0.0,6.0,,21 / 23,,2773,2021-05-11 18:52:08:572
-0.086194,0.098165,9.895537,0.013788,0.199272,9.804615,-0.025149,0.020101,0.00647,142.44,-19.26,142.02,261.2084,-1.1755,-0.1203,1002.8823,55.81401,37.500248,206.5155,NaN,,0.0,6.0,,21 / 23,,2783,2021-05-11 18:52:08:582
0.0838,0.134079,9.998491,-0.004323,0.191599,9.804777,-0.025149,0.020101,0.00647,143.22,-19.2,142.14,261.2084,-1.1755,-0.1203,1002.8823,55.81401,37.500248,206.5155,NaN,,0.0,6.0,,21 / 23,,2793,2021-05-11 18:52:08:592
0.0838,0.134079,9.998491,-0.004323,0.191599,9.804777,-0.009878,-0.012275,0.003416,143.22,-19.2,142.14,261.2084,-1.1755,-0.1203,1002.8823,55.81401,37.500248,206.5155,NaN,,0.0,6.0,,21 / 23,,2803,2021-05-11 18:52:08:602
0.129291,0.179571,10.096657,-0.004777,0.186858,9.804869,0.030439,-0.002501,-0.011245,143.16,-19.08,141.72,261.3478,-1.1195,0.0253,1002.8823,55.81401,37.500248,206.5155,NaN,,0.0,6.0,,21 / 23,,2813,2021-05-11 18:52:08:612
0.10056,0.160416,10.024829,-0.004777,0.186858,9.804869,0.030439,-0.002501,-0.011245,142.92,-19.02,141.6,261.3478,-1.1195,0.0253,1002.8823,55.81401,37.500248,206.5155,NaN,,0.0,6.0,,21 / 23,,2823,2021-05-11 18:52:08:622
0.093377,0.165205,9.897932,0.001615,0.187889,9.804851,0.03105,-0.004333,-0.004525,142.92,-19.02,141.6,261.3478,-1.1195,0.0253,1002.8823,55.81401,37.500248,206.5155,NaN,,0.0,6.0,,21 / 23,,2833,2021-05-11 18:52:08:632
0.107742,0.215485,9.828498,0.001615,0.187889,9.804851,0.024331,0.003608,-0.002082,142.2,-18.9,141.48,261.3478,-1.1195,0.0253,1002.8816,55.81401,37.500248,206.5155,NaN,,0.0,6.0,,21 / 23,,2843,2021-05-11 18:52:08:642
0.107742,0.215485,9.828498,0.009667,0.18967,9.804811,0.018222,0.008495,-0.003304,142.2,-18.78,141.84,261.3031,-1.0978,-0.0094,1002.8816,55.81401,37.500248,206.5155,NaN,,0.0,6.0,,21 / 23,,2853,2021-05-11 18:52:08:652
0.088588,0.184359,9.778218,0.009667,0.18967,9.804811,0.021276,0.007273,-0.003304,142.2,-18.78,141.84,261.3031,-1.0978,-0.0094,1002.8816,55.81401,37.500248,206.5155,NaN,,0.0,6.0,,21 / 23,,2863,2021-05-11 18:52:08:662
0.045491,0.193936,9.713573,0.01734,0.191387,9.804767,0.021887,-0.001279,-0.002082,142.74,-19.2,141.42,261.3031,-1.0978,-0.0094,1002.8816,55.81401,37.500248,206.5155,NaN,,0.0,6.0,,21 / 23,,2873,2021-05-11 18:52:08:672
0.004789,0.205908,9.701602,0.01734,0.191387,9.804767,0.013946,0.002997,-0.006969,142.74,-19.2,141.42,261.3031,-1.0978,-0.0094,1002.8816,55.81401,37.500248,206.5155,NaN,,0.0,6.0,,21 / 23,,2882,2021-05-11 18:52:08:681
-0.011971,0.21309,9.656111,0.022497,0.192776,9.804729,0.013335,0.007884,-0.005747,143.16,-19.14,141.18,261.3356,-1.1183,-0.1013,1002.8816,55.81401,37.500248,206.5155,NaN,,0.0,6.0,,21 / 23,,2894,2021-05-11 18:52:08:693
-0.011971,0.21309,9.656111,0.022497,0.192776,9.804729,-1.04E-4,0.00544,-0.013077,143.16,-19.14,141.18,261.3356,-1.1183,-0.1013,1002.8816,55.81401,37.500248,206.5155,NaN,,0.0,6.0,,21 / 23,,2903,2021-05-11 18:52:08:702
0.007183,0.177176,9.624985,0.022665,0.193442,9.804716,-0.01171,-0.004944,-0.016132,143.22,-19.02,141.54,261.3356,-1.1183,-0.1013,1002.8816,55.81401,37.500248,206.5155,NaN,,0.0,6.0,,21 / 23,,2912,2021-05-11 18:52:08:711
0.06704,0.196331,9.804555,0.022665,0.193442,9.804716,-0.015375,0.006051,-0.016132,143.22,-19.02,141.54,261.3356,-1.1183,-0.1013,1002.8816,55.81401,37.500248,206.5155,NaN,,0.0,6.0,,21 / 23,,2923,2021-05-11 18:52:08:722
0.098165,0.198725,9.885961,0.024976,0.190347,9.80477,-0.008045,0.025599,-0.016132,143.1,-19.38,141.42,261.3189,-1.1303,-0.1324,1002.8816,55.81401,37.500248,206.5155,NaN,,0.0,6.0,,21 / 23,,2933,2021-05-11 18:52:08:732
0.059857,0.162811,9.838076,0.024976,0.190347,9.80477,5.07E-4,0.010938,-0.013688,143.1,-19.38,141.42,261.3189,-1.1303,-0.1324,1002.886,55.81401,37.500248,206.5155,NaN,,0.0,6.0,,21 / 23,,2943,2021-05-11 18:52:08:742
0.059857,0.162811,9.838076,0.026905,0.188876,9.804794,5.07E-4,0.010938,-0.013688,142.8,-19.86,140.88,261.3189,-1.1303,-0.1324,1002.886,55.81401,37.500248,206.5155,NaN,,0.0,6.0,,21 / 23,,2953,2021-05-11 18:52:08:752
0.002394,0.172388,9.814133,0.026905,0.188876,9.804794,0.012724,-0.012886,-0.013688,142.8,-19.86,140.88,261.3189,-1.1303,-0.1324,1002.886,55.81401,37.500248,206.5155,NaN,,0.0,6.0,,21 / 23,,2963,2021-05-11 18:52:08:762
0.040703,0.169994,9.842864,0.032723,0.18972,9.80476,0.018222,-0.022659,-0.005747,142.74,-19.74,140.88,260.9377,-1.1085,-0.1912,1002.886,55.81401,37.500248,206.5155,NaN,,0.0,6.0,,21 / 23,,2973,2021-05-11 18:52:08:772
0.028731,0.153234,9.737515,0.032723,0.18972,9.80476,0.007837,-0.004944,-0.003914,142.74,-19.74,140.88,260.9377,-1.1085,-0.1912,1002.886,55.81401,37.500248,206.5155,NaN,,0.0,6.0,,21 / 23,,2983,2021-05-11 18:52:08:782
0.002394,0.155628,9.79019,0.035198,0.188066,9.804783,-0.011099,0.002386,0.005249,142.74,-19.2,140.88,260.9377,-1.1085,-0.1912,1002.886,55.81401,37.500248,206.5155,NaN,,0.0,6.0,,21 / 23,,2993,2021-05-11 18:52:08:792
0.002394,0.155628,9.79019,0.035198,0.188066,9.804783,-0.028204,0.010327,0.010135,142.74,-19.2,140.88,260.9377,-1.1085,-0.1912,1002.886,55.81401,37.500248,206.5155,NaN,,0.0,6.0,,21 / 23,,3003,2021-05-11 18:52:08:802
0.002394,0.165205,9.828498,0.032425,0.180221,9.80494,-0.026371,0.013382,0.008914,143.1,-18.96,141.42,261.337,-1.0989,-0.2057,1002.886,55.81401,37.500248,206.5155,NaN,,0.0,6.0,,21 / 23,,3013,2021-05-11 18:52:08:812
-0.002394,0.153234,9.859624,0.032425,0.180221,9.80494,-0.019041,-6.68E-4,0.004638,143.1,-18.96,141.42,261.337,-1.0989,-0.2057,1002.886,55.81401,37.500248,206.5155,NaN,,0.0,6.0,,21 / 23,,3023,2021-05-11 18:52:08:822
-0.071828,0.184359,9.890749,0.029217,0.174372,9.805057,-0.008045,0.002997,0.001583,143.22,-19.26,141.48,261.337,-1.0989,-0.2057,1002.886,55.81401,37.500248,206.5155,NaN,,0.0,6.0,,21 / 23,,3033,2021-05-11 18:52:08:832
-0.071828,0.184359,9.890749,0.029217,0.174372,9.805057,-0.008045,0.002997,0.001583,143.22,-19.26,141.48,261.337,-1.0989,-0.2057,1002.8833,55.81401,37.500248,206.5155,NaN,,0.0,6.0,,21 / 23,,3043,2021-05-11 18:52:08:842
-0.062251,0.208302,9.696813,0.022284,0.174346,9.805075,0.007837,0.003608,0.005249,143.16,-19.5,140.76,261.4202,-1.0188,-0.1707,1002.8833,55.81401,37.500248,206.5155,NaN,,0.0,6.0,,21 / 23,,3053,2021-05-11 18:52:08:852
-0.079011,0.239427,9.718362,0.022284,0.174346,9.805075,-0.005602,-0.001279,0.008914,143.16,-19.5,140.76,261.4202,-1.0188,-0.1707,1002.8833,55.81401,37.500248,206.5155,NaN,,0.0,6.0,,21 / 23,,3063,2021-05-11 18:52:08:862
-0.079011,0.22985,9.780613,0.01375,0.175907,9.805062,-0.01171,0.004219,0.010746,142.98,-18.96,140.88,261.4202,-1.0188,-0.1707,1002.8833,55.81401,37.500248,206.5155,NaN,,0.0,6.0,,21 / 23,,3073,2021-05-11 18:52:08:872
-0.079011,0.22985,9.780613,0.01375,0.175907,9.805062,-0.011099,0.001164,0.018688,142.98,-18.96,140.88,261.4202,-1.0188,-0.1707,1002.8833,55.81401,37.500248,206.5155,NaN,,0.0,6.0,,21 / 23,,3083,2021-05-11 18:52:08:882
-0.002394,0.232245,9.799767,0.00432,0.179036,9.805015,-0.009878,-0.007999,0.01319,143.16,-18.84,141.06,261.4263,-1.0278,-0.0803,1002.8833,55.81401,37.500248,206.5155,NaN,,0.0,6.0,,21 / 23,,3093,2021-05-11 18:52:08:892
0.05028,0.237033,9.818921,0.00432,0.179036,9.805015,-0.006212,-0.014107,0.007692,143.16,-18.84,141.06,261.4263,-1.0278,-0.0803,1002.8833,55.81401,37.500248,206.5155,NaN,,0.0,6.0,,21 / 23,,3104,2021-05-11 18:52:08:903
0.023943,0.232245,9.90272,0.003361,0.183737,9.804928,-0.006823,-0.018994,0.004027,142.32,-19.38,141.18,261.4263,-1.0278,-0.0803,1002.8833,55.81401,37.500248,206.5155,NaN,,0.0,6.0,,21 / 23,,3113,2021-05-11 18:52:08:912
0.023943,0.232245,9.90272,0.003361,0.183737,9.804928,-0.009878,-0.012275,0.004027,142.32,-19.38,141.18,261.4263,-1.0278,-0.0803,1002.8833,55.81401,37.500248,206.5155,NaN,,0.0,6.0,,21 / 23,,3123,2021-05-11 18:52:08:922
-0.01676,0.21309,9.862018,0.004062,0.187872,9.80485,-0.012932,-5.7E-5,0.008914,141.66,-19.68,141.18,260.9385,-1.0736,-0.0196,1002.8833,55.81401,37.500248,206.5155,NaN,,0.0,6.0,,21 / 23,,3133,2021-05-11 18:52:08:932
-0.038308,0.210696,9.869201,0.004062,0.187872,9.80485,-0.015375,0.009106,0.013801,141.66,-19.68,141.18,260.9385,-1.0736,-0.0196,1002.8855,55.81401,37.500248,206.5155,NaN,,0.0,6.0,,21 / 23,,3143,2021-05-11 18:52:08:942
0.009577,0.205908,9.838076,1.37E-4,0.190241,9.804805,-0.012321,0.010938,0.01319,142.14,-19.62,140.52,260.9385,-1.0736,-0.0196,1002.8855,55.81401,37.500248,206.5155,NaN,,0.0,6.0,,21 / 23,,3153,2021-05-11 18:52:08:952
0.009577,0.205908,9.838076,1.37E-4,0.190241,9.804805,-0.016597,0.015214,0.010135,142.14,-19.62,140.52,260.9385,-1.0736,-0.0196,1002.8855,55.81401,37.500248,206.5155,NaN,,0.0,6.0,,21 / 23,,3163,2021-05-11 18:52:08:962
0.011971,0.167599,9.835681,1.37E-4,0.190241,9.804805,-0.022706,0.018879,0.004638,142.14,-19.62,140.52,260.9385,-1.0736,-0.0196,1002.8855,55.81401,37.500248,206.5155,NaN,,0.0,6.0,,21 / 23,,3173,2021-05-11 18:52:08:972
0.031126,0.136474,9.907509,-0.004413,0.191468,9.80478,-0.017819,0.028042,3.62E-4,142.08,-19.08,141.06,261.2988,-1.1116,-8.0E-4,1002.8855,55.81401,37.500248,206.5155,NaN,,0.0,6.0,,21 / 23,,3183,2021-05-11 18:52:08:982
-0.002394,0.138868,9.866806,-0.007913,0.188838,9.804829,-0.008045,0.023766,-0.001471,142.38,-18.6,141.42,261.2988,-1.1116,-8.0E-4,1002.8855,55.81401,37.500248,206.5155,NaN,,0.0,6.0,,21 / 23,,3194,2021-05-11 18:52:08:993
-0.014366,0.155628,9.830893,-0.007913,0.188838,9.804829,0.006005,-0.004333,-0.001471,142.38,-18.6,141.42,261.2988,-1.1116,-8.0E-4,1002.8855,55.81401,37.500248,206.5155,NaN,,0.0,6.0,,21 / 23,,3203,2021-05-11 18:52:09:002
-0.011971,0.148445,9.809344,-0.007765,0.186727,9.80487,0.030439,-0.018994,-0.001471,142.5,-18.78,140.52,261.3744,-1.1034,0.0462,1002.8855,55.81401,37.500248,206.5155,NaN,,0.0,6.0,,21 / 23,,3213,2021-05-11 18:52:09:012
-0.011971,0.148445,9.809344,-0.007765,0.186727,9.80487,0.031661,-0.018994,3.62E-4,142.5,-18.78,140.52,261.3744,-1.1034,0.0462,1002.8855,55.81401,37.500248,206.5155,NaN,,0.0,6.0,,21 / 23,,3223,2021-05-11 18:52:09:022
0.047885,0.131685,9.768641,-0.002696,0.188041,9.804847,0.031661,-0.018994,3.62E-4,142.38,-19.5,140.76,261.3744,-1.1034,0.0462,1002.8855,55.81401,37.500248,206.5155,NaN,,0.0,6.0,,21 / 23,,3233,2021-05-11 18:52:09:032
0.06704,0.153234,9.715967,-0.002696,0.188041,9.804847,0.021276,-0.009831,0.002805,142.38,-19.5,140.76,261.3744,-1.1034,0.0462,1002.8862,55.81401,37.500248,206.5155,NaN,,0.0,6.0,,21 / 23,,3243,2021-05-11 18:52:09:042
0.06704,0.153234,9.715967,0.00254,0.185981,9.804886,0.017611,-0.003112,0.005859,142.5,-19.98,141.18,260.9828,-1.0987,0.0158,1002.8862,55.81401,37.500248,206.5155,NaN,,0.0,6.0,,21 / 23,,3253,2021-05-11 18:52:09:052
0.05028,0.150839,9.692024,0.00254,0.185981,9.804886,0.012724,-0.00861,0.010746,142.5,-19.98,141.18,260.9828,-1.0987,0.0158,1002.8862,55.81401,37.500248,206.5155,NaN,,0.0,6.0,,21 / 23,,3263,2021-05-11 18:52:09:062
0.069434,0.158022,9.720756,0.00254,0.185981,9.804886,0.003561,-0.007999,0.003416,142.5,-19.98,141.18,260.9828,-1.0987,0.0158,1002.8862,55.81401,37.500248,206.5155,NaN,,0.0,6.0,,21 / 23,,3272,2021-05-11 18:52:09:071
0.057463,0.196331,9.766247,0.008214,0.181995,9.804958,5.07E-4,0.001775,0.004027,142.38,-19.62,140.76,260.9828,-1.0987,0.0158,1002.8862,55.81401,37.500248,206.5155,NaN,,0.0,6.0,,21 / 23,,3283,2021-05-11 18:52:09:082
0.019154,0.205908,9.680053,0.013205,0.178838,9.805011,0.006616,0.004219,0.004638,142.92,-18.96,140.64,261.3973,-1.0634,-0.048,1002.8862,55.81401,37.500248,206.5155,NaN,,0.0,6.0,,21 / 23,,3293,2021-05-11 18:52:09:092
0.019154,0.205908,9.680053,0.013205,0.178838,9.805011,0.004783,0.001164,-8.6E-4,142.92,-18.96,140.64,261.3973,-1.0634,-0.048,1002.8862,55.81401,37.500248,206.5155,NaN,,0.0,6.0,,21 / 23,,3303,2021-05-11 18:52:09:102
0.007183,0.191542,9.663293,0.015835,0.178329,9.805016,-0.014154,0.013382,3.62E-4,142.98,-19.14,141.12,261.3973,-1.0634,-0.048,1002.8862,55.81401,37.500248,206.5155,NaN,,0.0,6.0,,21 / 23,,3313,2021-05-11 18:52:09:112
-0.002394,0.181965,9.617802,0.015835,0.178329,9.805016,-0.014154,0.013382,3.62E-4,142.98,-19.14,141.12,261.3973,-1.0634,-0.048,1002.8862,55.81401,37.500248,206.5155,NaN,,0.0,6.0,,21 / 23,,3323,2021-05-11 18:52:09:122
0.002394,0.181965,9.648928,0.014867,0.177382,9.805035,-0.019652,0.009106,3.62E-4,142.5,-19.32,141.18,261.3973,-1.0634,-0.048,1002.8862,55.81401,37.500248,206.5155,NaN,,0.0,6.0,,21 / 23,,3333,2021-05-11 18:52:09:132
0.05028,0.150839,9.761458,0.013823,0.173908,9.805099,-0.040421,0.009106,9.72E-4,142.5,-19.02,141.3,261.4169,-1.0364,-0.0869,1002.8882,55.81401,37.500248,206.5155,NaN,,0.0,6.0,,21 / 23,,3343,2021-05-11 18:52:09:142
0.05028,0.150839,9.761458,0.013823,0.173908,9.805099,-0.042254,0.00483,3.62E-4,142.5,-19.02,141.3,261.4169,-1.0364,-0.0869,1002.8882,55.81401,37.500248,206.5155,NaN,,0.0,6.0,,21 / 23,,3353,2021-05-11 18:52:09:152
0.028731,0.148445,9.90272,0.014428,0.167345,9.805212,-0.030036,0.001164,9.72E-4,143.34,-19.2,141.24,261.4169,-1.0364,-0.0869,1002.8882,55.81401,37.500248,206.5155,NaN,,0.0,6.0,,21 / 23,,3363,2021-05-11 18:52:09:162
0.090982,0.150839,9.900327,0.014428,0.167345,9.805212,-0.010489,-0.018994,3.62E-4,143.34,-19.2,141.24,261.4169,-1.0364,-0.0869,1002.8882,55.81401,37.500248,206.5155,NaN,,0.0,6.0,,21 / 23,,3373,2021-05-11 18:52:09:172
0.126897,0.155628,9.926663,0.016753,0.166041,9.80523,0.001729,-0.019605,-0.003914,143.34,-19.2,141.0,261.4169,-1.0364,-0.0869,1002.8882,55.81401,37.500248,206.5155,NaN,,0.0,6.0,,21 / 23,,3383,2021-05-11 18:52:09:182
0.126897,0.155628,9.926663,0.016753,0.166041,9.80523,0.012113,-0.013496,-0.003914,143.34,-19.2,141.0,261.4169,-1.0364,-0.0869,1002.8882,55.81401,37.500248,206.5155,NaN,,0.0,6.0,,21 / 23,,3393,2021-05-11 18:52:09:192
0.110137,0.143657,9.871595,0.026309,0.166114,9.805208,0.021276,0.007884,-8.6E-4,143.28,-19.32,141.3,261.4696,-0.9706,-0.1537,1002.8882,55.81401,37.500248,206.5155,NaN,,0.0,6.0,,21 / 23,,3403,2021-05-11 18:52:09:202
0.038308,0.272947,9.730332,0.033438,0.169327,9.805131,0.026163,0.01949,-2.49E-4,143.16,-19.32,141.3,261.4696,-0.9706,-0.1537,1002.8882,55.81401,37.500248,206.5155,NaN,,0.0,6.0,,21 / 23,,3413,2021-05-11 18:52:09:212
0.01676,0.311256,9.57231,0.033438,0.169327,9.805131,0.019444,0.002997,-0.002693,143.16,-19.32,141.3,261.4696,-0.9706,-0.1537,1002.8882,55.81401,37.500248,206.5155,NaN,,0.0,6.0,,20 / 23,,3423,2021-05-11 18:52:09:222
0.01676,0.311256,9.57231,0.035879,0.179231,9.804947,0.001729,5.53E-4,-0.00819,142.32,-19.38,141.12,261.3852,-0.9893,-0.1954,1002.8882,55.81401,37.500248,206.5155,NaN,,0.0,6.0,,20 / 23,,3433,2021-05-11 18:52:09:232
-0.062251,0.272947,9.584282,0.035879,0.179231,9.804947,0.001729,5.53E-4,-0.00819,142.32,-19.38,141.12,261.3852,-0.9893,-0.1954,1002.8923,55.81401,37.500248,206.5155,NaN,,0.0,6.0,,20 / 23,,3443,2021-05-11 18:52:09:242
-0.105348,0.162811,9.682447,0.03379,0.188712,9.804775,-0.019041,0.01216,-0.004525,142.2,-19.32,141.54,261.3852,-0.9893,-0.1954,1002.8923,55.81401,37.500248,206.5155,NaN,,0.0,6.0,,20 / 23,,3453,2021-05-11 18:52:09:252
-0.155628,0.122108,9.852441,0.03379,0.188712,9.804775,-0.038588,0.029875,0.004027,142.2,-19.32,141.54,261.3852,-0.9893,-0.1954,1002.8923,55.81401,37.500248,206.5155,NaN,,0.0,6.0,,20 / 23,,3463,2021-05-11 18:52:09:262
-0.131685,0.122108,9.912297,0.019235,0.185806,9.804872,-0.048973,0.050034,0.004027,142.8,-18.96,141.36,261.3347,-1.1026,-0.1975,1002.8923,55.81401,37.500248,206.5155,NaN,,0.0,6.0,,20 / 23,,3472,2021-05-11 18:52:09:271
-0.131685,0.122108,9.912297,0.019235,0.185806,9.804872,-0.041643,0.029875,0.004638,142.8,-18.96,141.36,261.3347,-1.1026,-0.1975,1002.8923,55.81401,37.500248,206.5155,NaN,,0.0,6.0,,20 / 23,,3483,2021-05-11 18:52:09:282
-0.040703,0.138868,10.008069,0.001189,0.178626,9.805023,-0.028204,0.00483,0.002194,142.68,-19.14,140.82,261.3347,-1.1026,-0.1975,1002.8923,55.81401,37.500248,206.5155,NaN,,0.0,6.0,,20 / 23,,3492,2021-05-11 18:52:09:291
0.031126,0.148445,10.079897,0.001189,0.178626,9.805023,-0.006212,-0.003723,-0.002693,142.68,-19.14,140.82,261.3347,-1.1026,-0.1975,1002.8923,55.81401,37.500248,206.5155,NaN,,0.0,6.0,,20 / 23,,3503,2021-05-11 18:52:09:302
0.040703,0.167599,10.024829,-0.005148,0.175854,9.805072,0.006005,-0.004944,-0.00819,142.26,-19.5,140.76,261.3635,-1.0437,-0.007,1002.8923,55.81401,37.500248,206.5155,NaN,,0.0,6.0,,20 / 23,,3512,2021-05-11 18:52:09:311
0.052674,0.193936,9.964972,-0.005148,0.175854,9.805072,0.012724,0.006662,-0.006969,142.26,-19.5,140.76,261.3635,-1.0437,-0.007,1002.8923,55.81401,37.500248,206.5155,NaN,,0.0,6.0,,20 / 23,,3523,2021-05-11 18:52:09:322
0.045491,0.179571,9.90272,-0.007082,0.177476,9.805041,0.015168,0.010327,0.003416,142.56,-19.38,140.94,261.3635,-1.0437,-0.007,1002.8923,55.81401,37.500248,206.5155,NaN,,0.0,6.0,,20 / 23,,3533,2021-05-11 18:52:09:332
0.045491,0.179571,9.90272,-0.007082,0.177476,9.805041,0.017,0.021323,0.008303,142.56,-19.38,140.94,261.3635,-1.0437,-0.007,1002.8909,55.81401,37.500248,206.5155,NaN,,0.0,6.0,,20 / 23,,3543,2021-05-11 18:52:09:342
0.062251,0.172388,9.847652,-0.007384,0.178788,9.805017,0.012724,0.018269,0.007692,142.68,-18.96,141.0,261.4373,-1.037,0.0414,1002.8909,55.81401,37.500248,206.5155,NaN,,0.0,6.0,,20 / 23,,3553,2021-05-11 18:52:09:352
0.01676,0.177176,9.833286,-0.007384,0.178788,9.805017,0.018833,0.015214,0.004638,142.68,-18.96,141.0,261.4373,-1.037,0.0414,1002.8909,55.81401,37.500248,206.5155,NaN,,0.0,6.0,,20 / 23,,3563,2021-05-11 18:52:09:362
-0.019154,0.186753,9.778218,-0.005325,0.180291,9.804992,0.026774,0.009106,-2.49E-4,142.56,-18.96,141.18,261.4373,-1.037,0.0414,1002.8909,55.81401,37.500248,206.5155,NaN,,0.0,6.0,,20 / 23,,3573,2021-05-11 18:52:09:372
-0.040703,0.215485,9.72315,-0.005325,0.180291,9.804992,0.026774,0.006662,-0.006969,142.56,-18.96,141.18,261.4373,-1.037,0.0414,1002.8909,55.81401,37.500248,206.5155,NaN,,0.0,6.0,,20 / 23,,3583,2021-05-11 18:52:09:382
-0.040703,0.215485,9.72315,-0.004084,0.183813,9.804927,0.024942,-6.68E-4,-0.00819,142.86,-18.96,141.3,261.4199,-1.0534,0.0311,1002.8909,55.81401,37.500248,206.5155,NaN,,0.0,6.0,,20 / 23,,3593,2021-05-11 18:52:09:392
-0.081405,0.146051,9.699207,-0.004084,0.183813,9.804927,0.014557,-0.006777,-0.00819,142.86,-18.96,141.3,261.4199,-1.0534,0.0311,1002.8909,55.81401,37.500248,206.5155,NaN,,0.0,6.0,,20 / 23,,3603,2021-05-11 18:52:09:402
-0.03352,0.184359,9.708784,-0.004806,0.186085,9.804883,0.010892,-0.001279,-0.008801,142.92,-18.78,140.88,261.4199,-1.0534,0.0311,1002.8909,55.81401,37.500248,206.5155,NaN,,0.0,6.0,,20 / 23,,3613,2021-05-11 18:52:09:412
-0.007183,0.210696,9.699207,-0.004806,0.186085,9.804883,0.004172,0.002997,-0.005136,142.92,-18.78,140.88,261.4199,-1.0534,0.0311,1002.8909,55.81401,37.500248,206.5155,NaN,,0.0,6.0,,20 / 23,,3623,2021-05-11 18:52:09:422
-0.007183,0.210696,9.699207,-0.007701,0.186874,9.804866,-0.007434,0.008495,-0.011245,142.26,-19.44,140.64,261.3271,-1.0873,0.0281,1002.8909,55.81401,37.500248,206.5155,NaN,,0.0,6.0,,20 / 23,,3633,2021-05-11 18:52:09:432
-0.004789,0.241822,9.70639,-0.007701,0.186874,9.804866,-0.007434,0.008495,-0.011245,142.26,-19.44,140.64,261.3271,-1.0873,0.0281,1002.8953,55.81401,37.500248,206.5155,NaN,,0.0,6.0,,20 / 23,,3643,2021-05-11 18:52:09:442
0.004789,0.249005,9.732727,-0.010412,0.187863,9.804845,-0.014765,0.014603,-0.01491,142.26,-19.8,140.82,261.3271,-1.0873,0.0281,1002.8953,55.81401,37.500248,206.5155,NaN,,0.0,6.0,,20 / 23,,3653,2021-05-11 18:52:09:452
0.028731,0.249005,9.754275,-0.010798,0.188348,9.804835,-0.017208,0.011549,-0.015521,142.26,-19.8,140.82,261.3271,-1.0873,0.0281,1002.8953,55.81401,37.500248,206.5155,NaN,,0.0,6.0,,20 / 23,,3663,2021-05-11 18:52:09:462
-0.064645,0.208302,9.783007,-0.010798,0.188348,9.804835,-0.017208,0.021934,-0.016743,142.68,-19.32,141.3,261.3799,-1.1005,0.0631,1002.8953,55.81401,37.500248,206.5155,NaN,,0.0,6.0,,20 / 23,,3673,2021-05-11 18:52:09:472
-0.064645,0.208302,9.783007,-0.012656,0.190406,9.804793,-0.020262,0.010327,-0.011245,142.68,-19.32,141.3,261.3799,-1.1005,0.0631,1002.8953,55.81401,37.500248,206.5155,NaN,,0.0,6.0,,20 / 23,,3683,2021-05-11 18:52:09:482
-0.069434,0.153234,9.845258,-0.013678,0.189998,9.8048,-0.016597,-5.7E-5,-0.00758,142.5,-18.6,141.78,261.3799,-1.1005,0.0631,1002.8953,55.81401,37.500248,206.5155,NaN,,0.0,6.0,,20 / 23,,3693,2021-05-11 18:52:09:492
-0.03352,0.167599,9.859624,-0.013678,0.189998,9.8048,-0.009878,-6.68E-4,-0.006969,142.5,-18.6,141.78,261.3799,-1.1005,0.0631,1002.8953,55.81401,37.500248,206.5155,NaN,,0.0,6.0,,20 / 23,,3703,2021-05-11 18:52:09:502
-0.047885,0.143657,9.823709,-0.016145,0.189297,9.80481,-0.009267,-0.013496,-0.002082,142.44,-18.84,141.36,261.3137,-1.1101,0.0799,1002.8953,55.81401,37.500248,206.5155,NaN,,0.0,6.0,,20 / 23,,3713,2021-05-11 18:52:09:512
-0.047885,0.143657,9.823709,-0.016145,0.189297,9.80481,-0.009267,-0.013496,-0.002082,142.44,-18.84,141.36,261.3137,-1.1101,0.0799,1002.8953,55.81401,37.500248,206.5155,NaN,,0.0,6.0,,20 / 23,,3723,2021-05-11 18:52:09:522
-0.098165,0.143657,9.854836,-0.016696,0.188362,9.804827,-0.00438,-0.00922,-8.6E-4,142.74,-18.78,141.6,261.3137,-1.1101,0.0799,1002.8953,55.81401,37.500248,206.5155,NaN,,0.0,6.0,,20 / 23,,3733,2021-05-11 18:52:09:532
-0.06704,0.167599,9.878778,-0.019994,0.185442,9.804876,-0.005602,-0.014718,0.004638,142.86,-18.78,141.6,261.3137,-1.1101,0.0799,1002.8953,55.81401,37.500248,206.5155,NaN,,0.0,6.0,,20 / 23,,3743,2021-05-11 18:52:09:542
-0.059857,0.191542,9.888355,-0.019994,0.185442,9.804876,0.007227,-0.016551,9.72E-4,142.86,-18.78,141.6,261.3137,-1.1101,0.0799,1002.8953,55.81401,37.500248,206.5155,NaN,,0.0,6.0,,20 / 23,,3754,2021-05-11 18:52:09:553
-0.052674,0.191542,9.852441,-0.0226,0.183381,9.80491,0.007227,-0.016551,9.72E-4,142.86,-18.66,141.42,261.405,-1.0835,0.1168,1002.8953,55.81401,37.500248,206.5155,NaN,,0.0,6.0,,20 / 23,,3763,2021-05-11 18:52:09:562
-0.052674,0.191542,9.852441,-0.0226,0.183381,9.80491,0.006616,-0.010442,-8.6E-4,142.86,-18.66,141.42,261.405,-1.0835,0.1168,1002.8953,55.81401,37.500248,206.5155,NaN,,0.0,6.0,,20 / 23,,3773,2021-05-11 18:52:09:572
-0.059857,0.196331,9.821315,-0.027049,0.183573,9.804894,-0.001936,0.001164,-0.002082,142.98,-19.08,141.54,261.405,-1.0835,0.1168,1002.8953,55.81401,37.500248,206.5155,NaN,,0.0,6.0,,20 / 23,,3782,2021-05-11 18:52:09:581
-0.026337,0.189148,9.77343,-0.027049,0.183573,9.804894,-0.004991,0.004219,-0.001471,142.98,-19.08,141.54,261.405,-1.0835,0.1168,1002.8953,55.81401,37.500248,206.5155,NaN,,0.0,6.0,,20 / 23,,3793,2021-05-11 18:52:09:592
0.028731,0.198725,9.785401,-0.032068,0.1828,9.804893,-0.014154,0.009106,3.62E-4,143.76,-19.08,141.6,261.4736,-1.0726,0.1581,1002.8953,55.81401,37.500248,206.5155,NaN,,0.0,6.0,,20 / 23,,3803,2021-05-11 18:52:09:602
0.028731,0.198725,9.785401,-0.033549,0.182049,9.804902,-0.017819,0.010327,-0.00819,143.76,-18.9,140.88,261.4736,-1.0726,0.1581,1002.8953,55.81401,37.500248,206.5155,NaN,,0.0,6.0,,20 / 23,,3813,2021-05-11 18:52:09:612
0.023943,0.174782,9.818921,-0.033549,0.182049,9.804902,-0.020262,-0.001279,-0.00758,143.76,-18.9,140.88,261.4736,-1.0726,0.1581,1002.8953,55.81401,37.500248,206.5155,NaN,,0.0,6.0,,20 / 23,,3823,2021-05-11 18:52:09:622
0.028731,0.143657,9.90272,-0.030945,0.178966,9.804968,-0.012321,-0.003723,-0.00758,143.58,-18.42,140.82,261.4736,-1.0726,0.1581,1002.8953,55.81401,37.500248,206.5155,NaN,,0.0,6.0,,20 / 23,,3832,2021-05-11 18:52:09:631
0.035914,0.181965,9.917087,-0.030945,0.178966,9.804968,-0.003158,0.002997,-0.00819,143.58,-18.42,140.82,261.4736,-1.0726,0.1581,1002.8816,55.81401,37.500248,206.5155,NaN,,0.0,6.0,,20 / 23,,3843,2021-05-11 18:52:09:642
0.035914,0.181965,9.917087,-0.025853,0.177545,9.805008,0.004783,-0.003112,-0.008801,142.92,-19.02,141.48,261.4516,-1.0457,0.1808,1002.8816,55.81401,37.500248,206.5155,NaN,,0.0,6.0,,20 / 23,,3853,2021-05-11 18:52:09:652
-0.004789,0.179571,9.866806,-0.025853,0.177545,9.805008,0.007837,-0.003723,-0.00758,142.92,-19.02,141.48,261.4516,-1.0457,0.1808,1002.8816,55.81401,37.500248,206.5155,NaN,,0.0,6.0,,20 / 23,,3862,2021-05-11 18:52:09:661
-0.064645,0.169994,9.857229,-0.021142,0.177778,9.805016,0.018833,0.00483,-0.006358,142.86,-19.62,141.66,261.4516,-1.0457,0.1808,1002.8816,55.81401,37.500248,206.5155,NaN,,0.0,6.0,,20 / 23,,3873,2021-05-11 18:52:09:672
-0.064645,0.169994,9.857229,-0.021142,0.177778,9.805016,0.024942,-0.00922,9.72E-4,142.86,-19.62,141.66,261.4516,-1.0457,0.1808,1002.8816,55.81401,37.500248,206.5155,NaN,,0.0,6.0,,20 / 23,,3882,2021-05-11 18:52:09:681
-0.064645,0.165205,9.780613,-0.019871,0.180406,9.80497,0.025552,-0.011053,-8.6E-4,142.8,-19.2,141.78,261.442,-1.0387,0.1235,1002.8816,55.81401,37.500248,206.5155,NaN,,0.0,6.0,,20 / 23,,3893,2021-05-11 18:52:09:692
-0.035914,0.208302,9.794978,-0.019871,0.180406,9.80497,0.021276,-0.007999,-0.004525,142.8,-19.2,141.78,261.442,-1.0387,0.1235,1002.8816,55.81401,37.500248,206.5155,NaN,,0.0,6.0,,20 / 23,,3903,2021-05-11 18:52:09:702
-0.014366,0.215485,9.735122,-0.018525,0.183174,9.804922,0.010892,0.009716,-0.010023,142.56,-18.84,141.9,261.442,-1.0387,0.1235,1002.8816,55.81401,37.500248,206.5155,NaN,,0.0,6.0,,20 / 23,,3913,2021-05-11 18:52:09:712
-0.026337,0.184359,9.711179,-0.019498,0.183646,9.804912,-0.003769,0.01216,-0.006969,142.44,-18.9,141.66,261.442,-1.0387,0.1235,1002.8816,55.81401,37.500248,206.5155,NaN,,0.0,6.0,,20 / 23,,3923,2021-05-11 18:52:09:722
-0.026337,0.184359,9.711179,-0.019498,0.183646,9.804912,-0.030036,0.010938,-0.010634,142.44,-18.9,141.66,261.442,-1.0387,0.1235,1002.8816,55.81401,37.500248,206.5155,NaN,,0.0,6.0,,20 / 23,,3933,2021-05-11 18:52:09:732
-0.052674,0.205908,9.821315,-0.022286,0.180204,9.804969,-0.028204,0.020101,-0.010023,143.16,-19.2,141.66,261.4074,-1.073,0.1139,1002.885,55.81401,37.500248,206.5155,NaN,,0.0,6.0,,20 / 23,,3943,2021-05-11 18:52:09:742
0.009577,0.177176,9.850046,-0.022286,0.180204,9.804969,-0.028204,0.024377,-0.011856,143.16,-19.2,141.66,261.4074,-1.073,0.1139,1002.885,55.81401,37.500248,206.5155,NaN,,0.0,6.0,,20 / 23,,3953,2021-05-11 18:52:09:752
0.009577,0.177176,9.850046,-0.026751,0.176582,9.805024,-0.023928,0.01949,-0.012467,143.34,-19.26,141.78,261.4074,-1.073,0.1139,1002.885,55.81401,37.500248,206.5155,NaN,,0.0,6.0,,20 / 23,,3963,2021-05-11 18:52:09:762
-0.047885,0.184359,9.783007,-0.026751,0.176582,9.805024,-0.023928,0.01949,-0.012467,143.34,-19.26,141.78,261.4074,-1.073,0.1139,1002.885,55.81401,37.500248,206.5155,NaN,,0.0,6.0,,20 / 23,,3973,2021-05-11 18:52:09:772
-0.055068,0.198725,9.802161,-0.028069,0.175394,9.805041,-0.013543,0.00544,-0.014299,143.16,-19.2,141.48,261.461,-1.0317,0.1563,1002.885,55.81401,37.500248,206.5155,NaN,,0.0,6.0,,20 / 23,,3983,2021-05-11 18:52:09:782
-0.064645,0.165205,9.720756,-0.028767,0.176234,9.805024,0.004172,-0.009831,-0.010023,142.98,-19.2,141.78,261.461,-1.0317,0.1563,1002.885,55.81401,37.500248,206.5155,NaN,,0.0,6.0,,20 / 23,,3993,2021-05-11 18:52:09:792
-0.05028,0.136474,9.703996,-0.028767,0.176234,9.805024,0.00234,-0.014107,-0.003914,142.98,-19.2,141.78,261.461,-1.0317,0.1563,1002.885,55.81401,37.500248,206.5155,NaN,,0.0,6.0,,20 / 23,,4004,2021-05-11 18:52:09:803
-0.05028,0.136474,9.703996,-0.028238,0.17628,9.805025,-0.009267,-0.017773,-0.002082,143.04,-19.32,141.48,261.4648,-1.0297,0.1681,1002.885,55.81401,37.500248,206.5155,NaN,,0.0,6.0,,20 / 23,,4013,2021-05-11 18:52:09:812
-0.035914,0.124502,9.835681,-0.028238,0.17628,9.805025,-0.017819,-0.002501,0.003416,143.04,-19.32,141.48,261.4648,-1.0297,0.1681,1002.885,55.81401,37.500248,206.5155,NaN,,0.0,6.0,,20 / 23,,4023,2021-05-11 18:52:09:822
-0.019154,0.131685,9.941029,-0.029024,0.170527,9.805124,-0.016597,0.00483,0.002805,142.98,-19.2,141.24,261.4648,-1.0297,0.1681,1002.885,55.81401,37.500248,206.5155,NaN,,0.0,6.0,,20 / 23,,4033,2021-05-11 18:52:09:832
-0.019154,0.131685,9.941029,-0.029024,0.170527,9.805124,-0.016597,0.00483,0.002805,142.98,-19.2,141.24,261.4648,-1.0297,0.1681,1002.885,55.81401,37.500248,206.5155,NaN,,0.0,6.0,,20 / 23,,4043,2021-05-11 18:52:09:842
-0.076617,0.143657,9.909904,-0.030561,0.16767,9.805169,0.007837,-0.012275,-0.006969,143.04,-19.38,141.24,261.4648,-1.0297,0.1681,1002.885,55.81401,37.500248,206.5155,NaN,,0.0,6.0,,20 / 23,,4054,2021-05-11 18:52:09:853
-0.095771,0.189148,9.859624,-0.032577,0.165297,9.805202,0.007837,-0.012275,-0.006969,142.74,-19.32,141.72,261.5079,-0.9797,0.1786,1002.885,55.81401,37.500248,206.5155,NaN,,0.0,6.0,,20 / 23,,4063,2021-05-11 18:52:09:862
-0.095771,0.189148,9.859624,-0.034957,0.165618,9.805189,-0.003769,-0.001279,-0.005136,142.62,-19.2,141.72,261.5079,-0.9797,0.1786,1002.885,55.81401,37.500248,206.5155,NaN,,0.0,6.0,,20 / 23,,4073,2021-05-11 18:52:09:872
-0.014366,0.167599,9.792584,-0.034957,0.165618,9.805189,-0.003769,-0.001279,-0.005136,142.62,-19.2,141.72,261.5079,-0.9797,0.1786,1002.885,55.81401,37.500248,206.5155,NaN,,0.0,6.0,,20 / 23,,4083,2021-05-11 18:52:09:882
-0.026337,0.160416,9.818921,-0.039723,0.16297,9.805215,-0.024538,0.020101,9.72E-4,142.26,-18.6,141.6,261.5079,-0.9797,0.1786,1002.885,55.81401,37.500248,206.5155,NaN,,0.0,6.0,,20 / 23,,4093,2021-05-11 18:52:09:892
0.026337,0.146051,9.850046,-0.039723,0.16297,9.805215,-0.033091,0.018879,0.004638,142.26,-18.6,141.6,261.5079,-0.9797,0.1786,1002.885,55.81401,37.500248,206.5155,NaN,,0.0,6.0,,20 / 23,,4103,2021-05-11 18:52:09:902
0.071828,0.110137,9.893144,-0.042532,0.15785,9.805287,-0.022095,0.007273,0.005859,142.26,-18.6,141.66,261.4844,-0.9522,0.2321,1002.885,55.81401,37.500248,206.5155,NaN,,0.0,6.0,,20 / 23,,4113,2021-05-11 18:52:09:912
0.071828,0.110137,9.893144,-0.042532,0.15785,9.805287,-0.009267,-0.00189,0.002805,142.26,-18.6,141.66,261.4844,-0.9522,0.2321,1002.885,55.81401,37.500248,206.5155,NaN,,0.0,6.0,,20 / 23,,4122,2021-05-11 18:52:09:921
0.069434,0.150839,9.852441,-0.040254,0.15584,9.805329,0.008448,-0.006166,-2.49E-4,142.98,-19.08,141.72,261.4844,-0.9522,0.2321,1002.885,55.81401,37.500248,206.5155,NaN,,0.0,6.0,,20 / 23,,4133,2021-05-11 18:52:09:932
-0.026337,0.234639,9.692024,-0.030751,0.157405,9.805339,0.02372,-0.018383,-0.009412,142.98,-19.08,141.72,261.4844,-0.9522,0.2321,1002.8906,55.81401,37.500248,206.5155,NaN,,0.0,6.0,,20 / 23,,4142,2021-05-11 18:52:09:941
-0.117319,0.268159,9.550762,-0.030751,0.157405,9.805339,0.020055,-0.028768,-0.008801,143.34,-18.96,141.6,261.5658,-0.9197,0.1797,1002.8906,55.81401,37.500248,206.5155,NaN,,0.0,6.0,,20 / 23,,4153,2021-05-11 18:52:09:952
-0.117319,0.268159,9.550762,-0.02192,0.165494,9.805229,0.00234,-0.031212,-0.009412,143.34,-18.96,141.6,261.5658,-0.9197,0.1797,1002.8906,55.81401,37.500248,206.5155,NaN,,0.0,6.0,,20 / 23,,4163,2021-05-11 18:52:09:962
-0.095771,0.205908,9.569917,-0.02192,0.165494,9.805229,-0.026982,-0.018994,-0.00758,143.34,-18.96,141.6,261.5658,-0.9197,0.1797,1002.8906,55.81401,37.500248,206.5155,NaN,,0.0,6.0,,20 / 23,,4173,2021-05-11 18:52:09:972
-0.134079,0.155628,9.699207,-0.019842,0.16757,9.805199,-0.050195,0.00483,-8.6E-4,142.5,-19.08,142.02,261.5658,-0.9197,0.1797,1002.8906,55.81401,37.500248,206.5155,NaN,,0.0,6.0,,20 / 23,,4183,2021-05-11 18:52:09:982
-0.208302,0.095771,9.93624,-0.027778,0.16258,9.805264,-0.056303,0.031708,0.008303,142.68,-18.96,141.66,261.4983,-0.9791,0.1159,1002.8906,55.81401,37.500248,206.5155,NaN,,0.0,6.0,,20 / 23,,4193,2021-05-11 18:52:09:992
-0.114925,0.112531,9.974549,-0.027778,0.16258,9.805264,-0.040421,0.02621,0.010746,142.68,-18.96,141.66,261.4983,-0.9791,0.1159,1002.8906,55.81401,37.500248,206.5155,NaN,,0.0,6.0,,20 / 23,,4203,2021-05-11 18:52:10:002
-0.114925,0.112531,9.974549,-0.044323,0.155498,9.805317,-0.012932,-0.002501,0.007692,142.8,-18.6,141.0,261.4983,-0.9791,0.1159,1002.8906,55.81401,37.500248,206.5155,NaN,,0.0,6.0,,20 / 23,,4213,2021-05-11 18:52:10:012
0.064645,0.162811,9.979338,-0.044323,0.155498,9.805317,0.014557,-0.014718,-0.002693,142.8,-18.6,141.0,261.4983,-0.9791,0.1159,1002.8906,55.81401,37.500248,206.5155,NaN,,0.0,6.0,,20 / 23,,4223,2021-05-11 18:52:10:022
0.086194,0.141262,9.890749,-0.045169,0.156847,9.805292,0.020666,-0.023881,-0.010023,142.2,-18.84,141.54,261.531,-0.9085,0.259,1002.8906,55.81401,37.500248,206.5155,NaN,,0.0,6.0,,20 / 23,,4233,2021-05-11 18:52:10:032
0.038308,0.169994,9.835681,-0.045169,0.156847,9.805292,0.005394,-0.021438,-0.010634,142.2,-18.84,141.54,261.531,-0.9085,0.259,1002.8838,55.81401,37.500248,206.5155,NaN,,0.0,6.0,,20 / 23,,4243,2021-05-11 18:52:10:042
0.03352,0.136474,9.91948,-0.037917,0.157969,9.805305,-0.01171,-5.7E-5,0.001583,142.62,-18.48,141.96,261.531,-0.9085,0.259,1002.8838,55.81401,37.500248,206.5155,NaN,,0.0,6.0,,20 / 23,,4253,2021-05-11 18:52:10:052
0.03352,0.136474,9.91948,-0.037917,0.157969,9.805305,-0.016597,0.023766,0.004638,142.62,-18.48,141.96,261.531,-0.9085,0.259,1002.8838,55.81401,37.500248,206.5155,NaN,,0.0,6.0,,20 / 23,,4263,2021-05-11 18:52:10:062
-0.002394,0.098165,9.964972,-0.035052,0.153877,9.805381,-0.003769,0.030486,0.011968,142.8,-18.0,141.84,261.9602,-0.923,0.2216,1002.8838,55.81401,37.500248,206.5155,NaN,,0.0,6.0,,20 / 23,,4273,2021-05-11 18:52:10:072
-0.021548,0.086194,9.90272,-0.035052,0.153877,9.805381,0.014557,0.00544,0.011968,142.8,-18.0,141.84,261.9602,-0.923,0.2216,1002.8838,55.81401,37.500248,206.5155,NaN,,0.0,6.0,,20 / 23,,4283,2021-05-11 18:52:10:082
-0.007183,0.102954,9.799767,-0.032616,0.151092,9.805431,0.034105,-0.022659,0.005859,142.68,-18.6,141.96,261.9602,-0.923,0.2216,1002.8838,55.81401,37.500248,206.5155,NaN,,0.0,6.0,,20 / 23,,4292,2021-05-11 18:52:10:091
-0.014366,0.148445,9.747093,-0.032616,0.151092,9.805431,0.053652,-0.029379,-0.001471,142.68,-18.6,141.96,261.9602,-0.923,0.2216,1002.8838,55.81401,37.500248,206.5155,NaN,,0.0,6.0,,20 / 23,,4303,2021-05-11 18:52:10:102
-0.026337,0.155628,9.601042,-0.024647,0.155186,9.805391,0.043268,-0.022049,-0.003304,142.44,-19.2,142.14,261.545,-0.8828,0.1906,1002.8838,55.81401,37.500248,206.5155,NaN,,0.0,6.0,,20 / 23,,4313,2021-05-11 18:52:10:112
-0.026337,0.155628,9.601042,-0.024647,0.155186,9.805391,0.015168,-0.003112,-2.49E-4,142.44,-19.2,142.14,261.545,-0.8828,0.1906,1002.8838,55.81401,37.500248,206.5155,NaN,,0.0,6.0,,20 / 23,,4323,2021-05-11 18:52:10:122
-0.069434,0.172388,9.553157,-0.02094,0.157911,9.805356,0.015168,-0.003112,-2.49E-4,142.56,-19.38,142.02,261.545,-0.8828,0.1906,1002.8838,55.81401,37.500248,206.5155,NaN,,0.0,6.0,,20 / 23,,4333,2021-05-11 18:52:10:132
-0.055068,0.184359,9.665688,-0.02094,0.157911,9.805356,-0.030647,0.013992,0.010135,142.56,-19.38,142.02,261.545,-0.8828,0.1906,1002.8838,55.81401,37.500248,206.5155,NaN,,0.0,6.0,,20 / 23,,4344,2021-05-11 18:52:10:143
-0.055068,0.184359,9.665688,-0.023824,0.154002,9.805412,-0.030647,0.013992,0.010135,142.68,-19.56,141.72,261.1631,-0.9226,0.1224,1002.8838,55.81401,37.500248,206.5155,NaN,,0.0,6.0,,20 / 23,,4353,2021-05-11 18:52:10:152
-0.011971,0.193936,9.802161,-0.023824,0.154002,9.805412,-0.026982,0.018879,0.008303,142.68,-19.56,141.72,261.1631,-0.9226,0.1224,1002.8838,55.81401,37.500248,206.5155,NaN,,0.0,6.0,,20 / 23,,4363,2021-05-11 18:52:10:162
0.009577,0.189148,9.751882,-0.026944,0.151951,9.805436,-0.016597,-5.7E-5,0.004638,142.26,-19.38,141.42,261.1631,-0.9226,0.1224,1002.8838,55.81401,37.500248,206.5155,NaN,,0.0,6.0,,20 / 23,,4373,2021-05-11 18:52:10:172
0.009577,0.165205,9.799767,-0.026944,0.151951,9.805436,-0.006212,-0.012886,-0.002082,142.26,-19.38,141.42,261.1631,-0.9226,0.1224,1002.8838,55.81401,37.500248,206.5155,NaN,,0.0,6.0,,20 / 23,,4383,2021-05-11 18:52:10:182
0.009577,0.165205,9.799767,-0.026944,0.151951,9.805436,-0.006212,-0.009831,0.004027,142.26,-19.38,141.42,261.1631,-0.9226,0.1224,1002.8838,55.81401,37.500248,206.5155,NaN,,0.0,6.0,,20 / 23,,4393,2021-05-11 18:52:10:192
-0.01676,0.177176,9.847652,-0.023071,0.154126,9.805412,-0.012321,-0.002501,0.003416,142.5,-18.66,141.66,261.593,-0.8878,0.1574,1002.8838,55.81401,37.500248,206.5155,NaN,,0.0,6.0,,22 / 27,,4403,2021-05-11 18:52:10:202
-0.014366,0.122108,9.862018,-0.02024,0.154372,9.805414,-0.020262,-0.002501,0.007081,142.5,-18.3,142.14,261.593,-0.8878,0.1574,1002.8838,55.81401,37.500248,206.5155,NaN,,0.0,6.0,,22 / 27,,4413,2021-05-11 18:52:10:212
0.023943,0.141262,9.960183,-0.02024,0.154372,9.805414,-0.019041,-0.003723,0.003416,142.5,-18.3,142.14,261.593,-0.8878,0.1574,1002.8838,55.81401,37.500248,206.5155,NaN,,0.0,6.0,,22 / 27,,4423,2021-05-11 18:52:10:222
0.023943,0.141262,9.960183,-0.017813,0.151485,9.805464,-7.15E-4,-0.002501,9.72E-4,142.26,-18.42,142.2,261.909,-0.902,0.1183,1002.8838,55.81401,37.500248,206.5155,NaN,,0.0,6.0,,22 / 27,,4433,2021-05-11 18:52:10:232
-0.026337,0.112531,9.938635,-0.017813,0.151485,9.805464,0.008448,-0.00861,-0.006358,142.26,-18.42,142.2,261.909,-0.902,0.1183,1002.8833,55.81401,37.500248,206.5155,NaN,,0.0,6.0,,22 / 27,,4443,2021-05-11 18:52:10:242
-0.021548,0.141262,9.835681,-0.015786,0.152468,9.805452,0.008448,-0.00861,-0.006358,142.38,-18.48,141.84,261.909,-0.902,0.1183,1002.8833,55.81401,37.500248,206.5155,NaN,,0.0,6.0,,22 / 27,,4453,2021-05-11 18:52:10:252
-0.01676,0.146051,9.79019,-0.015786,0.152468,9.805452,0.00967,-0.009831,-0.001471,142.38,-18.48,141.84,261.909,-0.902,0.1183,1002.8833,55.81401,37.500248,206.5155,NaN,,0.0,6.0,,22 / 27,,4463,2021-05-11 18:52:10:262
-0.047885,0.174782,9.768641,-0.013338,0.153677,9.805437,0.006005,-0.007999,-8.6E-4,142.56,-18.66,141.18,261.5858,-0.8908,0.0922,1002.8833,55.81401,37.500248,206.5155,NaN,,0.0,6.0,,22 / 27,,4473,2021-05-11 18:52:10:272
-0.047885,0.174782,9.768641,-0.013338,0.153677,9.805437,0.007227,0.001164,0.001583,142.56,-18.66,141.18,261.5858,-0.8908,0.0922,1002.8833,55.81401,37.500248,206.5155,NaN,,0.0,6.0,,22 / 27,,4483,2021-05-11 18:52:10:282
-0.043097,0.174782,9.696813,-0.015377,0.155643,9.805403,-1.04E-4,0.006051,0.003416,142.56,-18.54,140.76,261.5858,-0.8908,0.0922,1002.8833,55.81401,37.500248,206.5155,NaN,,0.0,6.0,,22 / 27,,4493,2021-05-11 18:52:10:292
-0.043097,0.203513,9.792584,-0.015377,0.155643,9.805403,-7.15E-4,-0.00189,0.002194,142.56,-18.54,140.76,261.5858,-0.8908,0.0922,1002.8833,55.81401,37.500248,206.5155,NaN,,0.0,6.0,,22 / 27,,4503,2021-05-11 18:52:10:302
-0.026337,0.150839,9.852441,-0.017183,0.156454,9.805387,-0.001936,0.006051,-0.002693,142.38,-18.72,140.88,261.5091,-0.9094,0.0899,1002.8833,55.81401,37.500248,206.5155,NaN,,0.0,6.0,,22 / 27,,4513,2021-05-11 18:52:10:312
-0.026337,0.150839,9.852441,-0.017183,0.156454,9.805387,0.008448,0.004219,-0.003914,142.38,-18.72,140.88,261.5091,-0.9094,0.0899,1002.8833,55.81401,37.500248,206.5155,NaN,,0.0,6.0,,22 / 27,,4523,2021-05-11 18:52:10:322
-0.035914,0.181965,9.852441,-0.019594,0.158921,9.805343,0.018222,-0.007388,-0.009412,142.26,-19.08,141.3,261.5091,-0.9094,0.0899,1002.8833,55.81401,37.500248,206.5155,NaN,,0.0,6.0,,22 / 27,,4532,2021-05-11 18:52:10:331
0.01676,0.186753,9.814133,-0.019594,0.158921,9.805343,0.017,-0.012886,-0.011856,142.26,-19.08,141.3,261.5091,-0.9094,0.0899,1002.8809,55.81401,37.500248,206.5155,NaN,,0.0,6.0,,22 / 27,,4543,2021-05-11 18:52:10:342
0.021548,0.165205,9.835681,-0.018509,0.163629,9.805267,0.017,-0.012886,-0.011856,142.38,-19.02,142.02,261.4883,-0.9285,0.1145,1002.8809,55.81401,37.500248,206.5155,NaN,,0.0,6.0,,22 / 27,,4553,2021-05-11 18:52:10:352
0.021548,0.165205,9.835681,-0.018509,0.163629,9.805267,0.011503,-0.006166,-0.013688,142.38,-19.02,142.02,261.4883,-0.9285,0.1145,1002.8809,55.81401,37.500248,206.5155,NaN,,0.0,6.0,,22 / 27,,4563,2021-05-11 18:52:10:362
-0.03352,0.143657,9.804555,-0.017631,0.166334,9.805223,0.00967,0.006662,-0.011245,142.98,-18.54,142.56,261.4883,-0.9285,0.1145,1002.8809,55.81401,37.500248,206.5155,NaN,,0.0,6.0,,22 / 27,,4573,2021-05-11 18:52:10:372
0.004789,0.134079,9.771035,-0.017631,0.166334,9.805223,-0.002547,0.009716,-0.010023,142.98,-18.54,142.56,261.4883,-0.9285,0.1145,1002.8809,55.81401,37.500248,206.5155,NaN,,0.0,6.0,,22 / 27,,4583,2021-05-11 18:52:10:382
0.035914,0.153234,9.888355,-0.018418,0.165052,9.805243,-0.012932,0.021323,-0.006969,143.1,-18.54,142.32,261.5032,-0.9719,0.103,1002.8809,55.81401,37.500248,206.5155,NaN,,0.0,6.0,,22 / 27,,4593,2021-05-11 18:52:10:392
-0.007183,0.158022,9.845258,-0.018418,0.165052,9.805243,-0.004991,0.027432,-0.005136,143.1,-18.54,142.32,261.5032,-0.9719,0.103,1002.8809,55.81401,37.500248,206.5155,NaN,,0.0,6.0,,22 / 27,,4603,2021-05-11 18:52:10:402
-0.007183,0.158022,9.845258,-0.018827,0.162805,9.805281,0.007227,0.015214,-0.004525,143.04,-19.2,142.26,261.5032,-0.9719,0.103,1002.8809,55.81401,37.500248,206.5155,NaN,,0.0,6.0,,22 / 27,,4613,2021-05-11 18:52:10:412
-0.01676,0.158022,9.821315,-0.018827,0.162805,9.805281,0.013335,-0.009831,-0.006969,143.04,-19.2,142.26,261.5032,-0.9719,0.103,1002.8809,55.81401,37.500248,206.5155,NaN,,0.0,6.0,,22 / 27,,4623,2021-05-11 18:52:10:422
0.002394,0.177176,9.854836,-0.014578,0.164005,9.805267,0.021276,-0.014107,-0.005136,143.4,-19.26,141.78,261.5242,-0.9512,0.11,1002.8809,55.81401,37.500248,206.5155,NaN,,0.0,6.0,,22 / 27,,4633,2021-05-11 18:52:10:432
0.028731,0.167599,9.830893,-0.014578,0.164005,9.805267,0.019444,-0.011053,-0.003914,143.4,-19.26,141.78,261.5242,-0.9512,0.11,1002.8809,55.81401,37.500248,206.5155,NaN,,0.0,6.0,,22 / 27,,4644,2021-05-11 18:52:10:443
0.009577,0.172388,9.847652,-0.008608,0.166576,9.805231,0.014557,-0.006777,-0.006358,143.1,-19.02,141.54,261.5242,-0.9512,0.11,1002.8809,55.81401,37.500248,206.5155,NaN,,0.0,6.0,,22 / 27,,4653,2021-05-11 18:52:10:452
0.009577,0.172388,9.847652,-0.008608,0.166576,9.805231,0.010281,0.001164,-0.012467,143.1,-19.02,141.54,261.5242,-0.9512,0.11,1002.8809,55.81401,37.500248,206.5155,NaN,,0.0,6.0,,22 / 27,,4663,2021-05-11 18:52:10:462
-0.021548,0.150839,9.792584,-0.006116,0.167359,9.80522,0.006616,-0.003723,-0.016743,142.8,-18.96,142.2,261.4934,-0.9733,0.0503,1002.8809,55.81401,37.500248,206.5155,NaN,,0.0,6.0,,22 / 27,,4673,2021-05-11 18:52:10:472
-0.045491,0.186753,9.818921,-0.006116,0.167359,9.80522,0.003561,0.002386,-0.021019,142.8,-18.96,142.2,261.4934,-0.9733,0.0503,1002.8809,55.81401,37.500248,206.5155,NaN,,0.0,6.0,,22 / 27,,4683,2021-05-11 18:52:10:482
-0.052674,0.160416,9.804555,-0.005821,0.167342,9.805221,0.001729,0.001775,-0.017964,143.28,-18.72,142.74,261.4934,-0.9733,0.0503,1002.8809,55.81401,37.500248,206.5155,NaN,,0.0,6.0,,22 / 27,,4693,2021-05-11 18:52:10:492
-0.052674,0.160416,9.804555,-0.005821,0.167342,9.805221,-0.009878,0.007884,-0.00819,143.28,-18.72,142.74,261.4934,-0.9733,0.0503,1002.8809,55.81401,37.500248,206.5155,NaN,,0.0,6.0,,22 / 27,,4702,2021-05-11 18:52:10:501
-0.059857,0.172388,9.79019,-0.008685,0.166332,9.805236,-0.015375,0.009716,-0.012467,143.58,-18.6,142.86,261.538,-0.9777,0.034,1002.8809,55.81401,37.500248,206.5155,NaN,,0.0,6.0,,22 / 27,,4713,2021-05-11 18:52:10:512
-0.047885,0.186753,9.804555,-0.008685,0.166332,9.805236,-0.015375,0.009716,-0.012467,143.58,-18.6,142.86,261.538,-0.9777,0.034,1002.8809,55.81401,37.500248,206.5155,NaN,,0.0,6.0,,22 / 27,,4723,2021-05-11 18:52:10:522
-0.031126,0.205908,9.893144,-0.01203,0.165142,9.805252,-0.008045,-0.002501,-0.008801,143.16,-19.32,142.44,261.538,-0.9777,0.034,1002.8809,55.81401,37.500248,206.5155,NaN,,0.0,6.0,,22 / 27,,4733,2021-05-11 18:52:10:532
-0.031126,0.205908,9.893144,-0.01203,0.165142,9.805252,0.004783,-0.002501,-0.010023,143.16,-19.32,142.44,261.538,-0.9777,0.034,1002.8809,55.81401,37.500248,206.5155,NaN,,0.0,6.0,,22 / 27,,4742,2021-05-11 18:52:10:541
0.014366,0.184359,9.893144,-0.012824,0.166064,9.805236,0.010892,-0.002501,-0.014299,143.04,-19.44,142.44,261.538,-0.9777,0.034,1002.8816,55.81401,37.500248,206.5155,NaN,,0.0,6.0,,22 / 27,,4753,2021-05-11 18:52:10:552
-0.031126,0.174782,9.871595,-0.011999,0.17083,9.805155,0.023109,-0.013496,-0.013077,143.1,-19.26,142.44,261.5002,-0.9703,0.0749,1002.8816,55.81401,37.500248,206.5155,NaN,,0.0,6.0,,22 / 27,,4763,2021-05-11 18:52:10:562
-0.03352,0.181965,9.780613,-0.011999,0.17083,9.805155,0.023109,-0.010442,-0.011245,143.16,-18.42,141.9,261.5002,-0.9703,0.0749,1002.8816,55.81401,37.500248,206.5155,NaN,,0.0,6.0,,22 / 27,,4774,2021-05-11 18:52:10:573
-0.03352,0.181965,9.780613,-0.012085,0.173825,9.805102,0.018833,-0.016551,-0.011245,143.16,-18.42,141.9,261.5002,-0.9703,0.0749,1002.8816,55.81401,37.500248,206.5155,NaN,,0.0,6.0,,22 / 27,,4783,2021-05-11 18:52:10:582
-0.038308,0.165205,9.797373,-0.011874,0.177518,9.805036,0.005394,-0.015329,-0.003914,142.98,-18.36,142.14,261.5002,-0.9703,0.0749,1002.8816,55.81401,37.500248,206.5155,NaN,,0.0,6.0,,22 / 27,,4793,2021-05-11 18:52:10:592
-0.05028,0.153234,9.883567,-0.011874,0.177518,9.805036,0.003561,-0.011053,-0.002693,142.98,-18.36,142.14,261.5002,-0.9703,0.0749,1002.8816,55.81401,37.500248,206.5155,NaN,,0.0,6.0,,22 / 27,,4803,2021-05-11 18:52:10:602
-0.062251,0.146051,9.883567,-0.013211,0.178321,9.80502,0.004783,-0.003723,-0.002082,142.56,-19.14,142.2,261.4346,-1.0372,0.0694,1002.8816,55.81401,37.500248,206.5155,NaN,,0.0,6.0,,22 / 27,,4813,2021-05-11 18:52:10:612
-0.062251,0.146051,9.883567,-0.013211,0.178321,9.80502,0.00967,-0.015329,9.72E-4,142.56,-19.14,142.2,261.4346,-1.0372,0.0694,1002.8816,55.81401,37.500248,206.5155,NaN,,0.0,6.0,,22 / 27,,4823,2021-05-11 18:52:10:622
-0.031126,0.141262,9.878778,-0.015506,0.178654,9.805011,0.007837,-0.014107,-0.001471,142.8,-19.02,142.44,261.4346,-1.0372,0.0694,1002.8816,55.81401,37.500248,206.5155,NaN,,0.0,6.0,,22 / 27,,4833,2021-05-11 18:52:10:632
0.014366,0.153234,9.905115,-0.015506,0.178654,9.805011,0.007837,-0.014107,-0.001471,142.8,-19.02,142.44,261.4346,-1.0372,0.0694,1002.8816,55.81401,37.500248,206.5155,NaN,,0.0,6.0,,22 / 27,,4843,2021-05-11 18:52:10:642
0.086194,0.158022,9.960183,-0.016,0.178135,9.805018,0.001118,-0.007388,-0.002082,142.38,-19.26,142.56,261.4346,-1.0372,0.0694,1002.875,55.81401,37.500248,206.5155,NaN,,0.0,6.0,,22 / 27,,4853,2021-05-11 18:52:10:652
0.064645,0.155628,9.91948,-0.015772,0.174406,9.805086,-0.009878,0.015214,-0.002693,142.44,-18.54,142.26,261.3758,-1.0408,0.0935,1002.875,55.81401,37.500248,206.5155,NaN,,0.0,6.0,,22 / 27,,4863,2021-05-11 18:52:10:662
0.064645,0.155628,9.91948,-0.015772,0.174406,9.805086,-0.014154,0.01949,-0.003914,142.44,-18.54,142.26,261.3758,-1.0408,0.0935,1002.875,55.81401,37.500248,206.5155,NaN,,0.0,6.0,,22 / 27,,4873,2021-05-11 18:52:10:672
0.088588,0.160416,9.893144,-0.013421,0.169499,9.805176,-0.009878,0.011549,-0.001471,143.16,-18.6,142.32,261.3758,-1.0408,0.0935,1002.875,55.81401,37.500248,206.5155,NaN,,0.0,6.0,,22 / 27,,4883,2021-05-11 18:52:10:682
0.146051,0.167599,9.869201,-0.009129,0.168391,9.8052,0.006616,-5.7E-5,-0.003914,143.34,-18.54,141.78,261.3758,-1.0408,0.0935,1002.875,55.81401,37.500248,206.5155,NaN,,0.0,6.0,,22 / 27,,4893,2021-05-11 18:52:10:692
0.06704,0.205908,9.759064,-0.009129,0.168391,9.8052,0.017,-0.006166,-0.010634,143.34,-18.54,141.78,261.3758,-1.0408,0.0935,1002.875,55.81401,37.500248,206.5155,NaN,,0.0,6.0,,22 / 27,,4903,2021-05-11 18:52:10:702
0.06704,0.205908,9.759064,0.00265,0.170802,9.805162,0.024331,-0.011053,-0.00819,143.46,-18.84,141.78,261.4836,-0.9839,0.0533,1002.875,55.81401,37.500248,206.5155,NaN,,0.0,6.0,,22 / 27,,4912,2021-05-11 18:52:10:711
-0.021548,0.287313,9.634562,0.00265,0.170802,9.805162,0.02372,-0.017773,-0.00758,143.46,-18.84,141.78,261.4836,-0.9839,0.0533,1002.875,55.81401,37.500248,206.5155,NaN,,0.0,6.0,,22 / 27,,4923,2021-05-11 18:52:10:722
-0.086194,0.325621,9.579494,0.010513,0.179759,9.804997,0.015168,-0.026325,-0.010023,142.92,-19.32,142.74,261.4836,-0.9839,0.0533,1002.875,55.81401,37.500248,206.5155,NaN,,0.0,6.0,,22 / 27,,4933,2021-05-11 18:52:10:732
-0.086194,0.325621,9.579494,0.010513,0.179759,9.804997,0.015168,-0.026325,-0.010023,142.92,-19.32,142.74,261.4836,-0.9839,0.0533,1002.875,55.81401,37.500248,206.5155,NaN,,0.0,6.0,,22 / 27,,4943,2021-05-11 18:52:10:742
-0.098165,0.165205,9.545974,0.011087,0.186831,9.804864,-0.003769,-0.020827,-0.002082,142.56,-19.2,142.5,261.3932,-1.0503,-0.0614,1002.875,55.81401,37.500248,206.5155,NaN,,0.0,6.0,,22 / 27,,4953,2021-05-11 18:52:10:752
-0.0838,0.114925,9.785401,0.011087,0.186831,9.804864,-0.04653,0.006662,-0.005136,142.56,-19.2,142.5,261.3932,-1.0503,-0.0614,1002.875,55.81401,37.500248,206.5155,NaN,,0.0,6.0,,22 / 27,,4963,2021-05-11 18:52:10:762
-0.076617,0.153234,9.955395,0.002168,0.180416,9.80499,-0.052638,0.015825,-0.005136,142.5,-18.36,142.08,261.3932,-1.0503,-0.0614,1002.875,55.81401,37.500248,206.5155,NaN,,0.0,6.0,,22 / 27,,4974,2021-05-11 18:52:10:773
-0.035914,0.148445,9.984126,0.002168,0.180416,9.80499,-0.03981,0.013992,-0.005136,142.5,-18.36,142.08,261.3932,-1.0503,-0.0614,1002.875,55.81401,37.500248,206.5155,NaN,,0.0,6.0,,22 / 27,,4983,2021-05-11 18:52:10:782
-0.035914,0.148445,9.984126,0.002168,0.180416,9.80499,-0.015375,-0.004944,-0.010023,142.5,-18.36,142.08,261.3932,-1.0503,-0.0614,1002.875,55.81401,37.500248,206.5155,NaN,,0.0,6.0,,22 / 27,,4992,2021-05-11 18:52:10:791
0.059857,0.165205,9.941029,-0.007486,0.173031,9.805121,-0.001326,-0.030601,-0.013688,142.44,-18.66,142.26,261.3452,-1.0541,-0.0127,1002.875,55.81401,37.500248,206.5155,NaN,,0.0,6.0,,22 / 27,,5003,2021-05-11 18:52:10:802
0.057463,0.205908,9.914692,-0.005248,0.172862,9.805125,0.005394,-0.030601,-0.016132,142.08,-18.96,142.08,261.3452,-1.0541,-0.0127,1002.875,55.81401,37.500248,206.5155,NaN,,0.0,6.0,,22 / 27,,5014,2021-05-11 18:52:10:813
0.062251,0.186753,9.862018,-0.005248,0.172862,9.805125,-0.00438,-0.028768,-0.008801,142.08,-18.96,142.08,261.3452,-1.0541,-0.0127,1002.875,55.81401,37.500248,206.5155,NaN,,0.0,6.0,,22 / 27,,5023,2021-05-11 18:52:10:822
0.069434,0.134079,9.881172,0.00222,0.173742,9.805111,-0.017208,-0.022049,-0.001471,142.5,-18.9,142.44,261.4546,-1.01,0.0307,1002.875,55.81401,37.500248,206.5155,NaN,,0.0,6.0,,22 / 27,,5033,2021-05-11 18:52:10:832
0.069434,0.134079,9.881172,0.00222,0.173742,9.805111,-0.017208,-0.005555,0.007692,142.74,-18.66,143.1,261.4546,-1.01,0.0307,1002.8779,55.81401,37.500248,206.5155,NaN,,0.0,6.0,,22 / 27,,5043,2021-05-11 18:52:10:842
0.079011,0.138868,9.888355,0.00924,0.170239,9.805168,-0.01171,0.001164,0.009525,142.74,-18.66,143.1,261.4546,-1.01,0.0307,1002.8779,55.81401,37.500248,206.5155,NaN,,0.0,6.0,,22 / 27,,5053,2021-05-11 18:52:10:852
0.043097,0.136474,9.912297,0.00924,0.170239,9.805168,-7.15E-4,-0.006777,0.005859,142.62,-18.9,142.74,261.4546,-1.01,0.0307,1002.8779,55.81401,37.500248,206.5155,NaN,,0.0,6.0,,22 / 27,,5064,2021-05-11 18:52:10:863
0.05028,0.119714,9.862018,0.016587,0.167253,9.80521,0.015779,-0.014107,-0.002693,142.62,-18.9,142.74,261.4546,-1.01,0.0307,1002.8779,55.81401,37.500248,206.5155,NaN,,0.0,6.0,,22 / 27,,5073,2021-05-11 18:52:10:872
0.026337,0.153234,9.749487,0.016587,0.167253,9.80521,0.014557,-0.013496,-0.005136,142.38,-18.6,142.56,261.3995,-0.9772,-0.0969,1002.8779,55.81401,37.500248,206.5155,NaN,,0.0,6.0,,22 / 27,,5083,2021-05-11 18:52:10:882
0.026337,0.153234,9.749487,0.016587,0.167253,9.80521,0.014557,-0.013496,-0.005136,142.38,-18.6,142.56,261.3995,-0.9772,-0.0969,1002.8779,55.81401,37.500248,206.5155,NaN,,0.0,6.0,,22 / 27,,5093,2021-05-11 18:52:10:892
0.0,0.193936,9.670476,0.023478,0.167205,9.805197,0.012113,-0.016551,-0.014299,142.62,-18.66,142.86,261.3995,-0.9772,-0.0969,1002.8779,55.81401,37.500248,206.5155,NaN,,0.0,6.0,,22 / 27,,5103,2021-05-11 18:52:10:902
-0.045491,0.160416,9.718362,0.027699,0.166953,9.80519,-0.008656,-0.011664,-0.020408,141.84,-18.66,142.56,261.3995,-0.9772,-0.0969,1002.8779,55.81401,37.500248,206.5155,NaN,,0.0,6.0,,22 / 27,,5113,2021-05-11 18:52:10:912
-0.002394,0.191542,9.725544,0.027699,0.166953,9.80519,-0.022095,0.007884,-0.014299,141.84,-18.66,142.56,261.3995,-0.9772,-0.0969,1002.8779,55.81401,37.500248,206.5155,NaN,,0.0,6.0,,22 / 27,,5124,2021-05-11 18:52:10:923
0.028731,0.222668,9.771035,0.025311,0.162621,9.805269,-0.034923,0.006662,-0.013688,142.14,-18.66,142.56,261.3904,-0.9755,-0.1619,1002.8779,55.81401,37.500248,206.5155,NaN,,0.0,6.0,,22 / 27,,5133,2021-05-11 18:52:10:932
0.028731,0.222668,9.771035,0.025311,0.162621,9.805269,-0.03248,0.002386,-0.006358,142.14,-18.66,142.56,261.3904,-0.9755,-0.1619,1002.8708,55.81401,37.500248,206.5155,NaN,,0.0,6.0,,22 / 27,,5143,2021-05-11 18:52:10:942
0.038308,0.210696,9.883567,0.023547,0.160305,9.805311,-0.023317,-0.012886,-0.004525,142.5,-18.3,142.56,261.3904,-0.9755,-0.1619,1002.8708,55.81401,37.500248,206.5155,NaN,,0.0,6.0,,22 / 27,,5153,2021-05-11 18:52:10:952
0.069434,0.196331,9.897932,0.023547,0.160305,9.805311,-0.006823,-0.020827,-0.00758,142.5,-18.3,142.56,261.3904,-0.9755,-0.1619,1002.8708,55.81401,37.500248,206.5155,NaN,,0.0,6.0,,22 / 27,,5163,2021-05-11 18:52:10:962
0.002394,0.189148,9.866806,0.027042,0.163514,9.805249,-0.004991,-0.01594,-0.00819,142.68,-18.12,141.96,261.8917,-0.9366,-0.1376,1002.8708,55.81401,37.500248,206.5155,NaN,,0.0,6.0,,22 / 27,,5173,2021-05-11 18:52:10:972
0.002394,0.189148,9.866806,0.027042,0.163514,9.805249,-0.010489,-0.014107,-0.005747,142.68,-18.12,141.96,261.8917,-0.9366,-0.1376,1002.8708,55.81401,37.500248,206.5155,NaN,,0.0,6.0,,22 / 27,,5183,2021-05-11 18:52:10:982
-0.052674,0.203513,9.862018,0.028125,0.166106,9.805202,-0.017819,-0.00861,-0.004525,142.62,-18.6,141.9,261.8917,-0.9366,-0.1376,1002.8708,55.81401,37.500248,206.5155,NaN,,0.0,6.0,,22 / 27,,5193,2021-05-11 18:52:10:992
-0.026337,0.143657,9.857229,0.028125,0.166106,9.805202,-0.021484,-0.006166,-0.001471,142.62,-18.6,141.9,261.8917,-0.9366,-0.1376,1002.8708,55.81401,37.500248,206.5155,NaN,,0.0,6.0,,22 / 27,,5202,2021-05-11 18:52:11:001
-0.011971,0.172388,9.854836,0.024712,0.164943,9.805231,-0.022706,-0.009831,-0.005136,142.62,-19.32,142.08,261.4611,-0.9705,-0.1643,1002.8708,55.81401,37.500248,206.5155,NaN,,0.0,6.0,,22 / 27,,5213,2021-05-11 18:52:11:012
-0.011971,0.172388,9.854836,0.024712,0.164943,9.805231,-0.016597,-0.025714,-0.011245,142.62,-19.32,142.08,261.4611,-0.9705,-0.1643,1002.8708,55.81401,37.500248,206.5155,NaN,,0.0,6.0,,22 / 27,,5222,2021-05-11 18:52:11:021
0.01676,0.131685,9.845258,0.023808,0.163388,9.80526,-0.009267,-0.030601,-0.010023,142.98,-18.9,142.02,261.4611,-0.9705,-0.1643,1002.8708,55.81401,37.500248,206.5155,NaN,,0.0,6.0,,22 / 27,,5233,2021-05-11 18:52:11:032
0.01676,0.138868,9.80695,0.023808,0.163388,9.80526,-0.009267,-0.030601,-0.010023,142.98,-18.9,142.02,261.4611,-0.9705,-0.1643,1002.8708,55.81401,37.500248,206.5155,NaN,,0.0,6.0,,22 / 27,,5243,2021-05-11 18:52:11:042
0.002394,0.174782,9.847652,0.023808,0.163388,9.80526,-0.009267,-0.039153,-0.00758,142.32,-17.94,141.78,261.8173,-0.9546,-0.1391,1002.8708,55.81401,37.500248,206.5155,NaN,,0.0,6.0,,22 / 27,,5253,2021-05-11 18:52:11:052
0.002394,0.174782,9.847652,0.024205,0.162208,9.805279,-0.001326,-0.026935,9.72E-4,142.32,-17.94,141.78,261.8173,-0.9546,-0.1391,1002.8708,55.81401,37.500248,206.5155,NaN,,0.0,6.0,,22 / 27,,5263,2021-05-11 18:52:11:062
0.03352,0.177176,9.725544,0.024434,0.162571,9.805272,-0.002547,-0.022659,3.62E-4,142.02,-18.6,141.78,261.8173,-0.9546,-0.1391,1002.8708,55.81401,37.500248,206.5155,NaN,,0.0,6.0,,22 / 27,,5273,2021-05-11 18:52:11:072
-0.043097,0.160416,9.804555,0.024434,0.162571,9.805272,-0.009878,-0.006777,3.62E-4,142.02,-18.6,141.78,261.8173,-0.9546,-0.1391,1002.8708,55.81401,37.500248,206.5155,NaN,,0.0,6.0,,22 / 27,,5283,2021-05-11 18:52:11:082
-0.035914,0.160416,9.833286,0.021286,0.16173,9.805293,-0.011099,-0.011053,0.008303,142.92,-18.96,142.08,261.4848,-0.9499,-0.1428,1002.8708,55.81401,37.500248,206.5155,NaN,,0.0,6.0,,22 / 27,,5293,2021-05-11 18:52:11:092
-0.035914,0.160416,9.833286,0.021286,0.16173,9.805293,-0.00438,-0.017773,0.007692,142.92,-18.96,142.08,261.4848,-0.9499,-0.1428,1002.8708,55.81401,37.500248,206.5155,NaN,,0.0,6.0,,22 / 27,,5303,2021-05-11 18:52:11:102
-0.023943,0.181965,9.821315,0.016798,0.161319,9.805309,0.012113,-0.034877,0.003416,143.46,-18.78,142.62,261.4848,-0.9499,-0.1428,1002.8708,55.81401,37.500248,206.5155,NaN,,0.0,6.0,,22 / 27,,5313,2021-05-11 18:52:11:112
0.03352,0.217879,9.845258,0.016798,0.161319,9.805309,0.012113,-0.034877,0.003416,143.46,-18.78,142.62,261.4848,-0.9499,-0.1428,1002.8708,55.81401,37.500248,206.5155,NaN,,0.0,6.0,,22 / 27,,5323,2021-05-11 18:52:11:122
0.045491,0.210696,9.890749,0.019686,0.166799,9.805212,0.026774,-0.053814,-0.001471,143.46,-18.6,142.92,261.4926,-0.9426,-0.0982,1002.8708,55.81401,37.500248,206.5155,NaN,,0.0,6.0,,22 / 27,,5334,2021-05-11 18:52:11:133
0.124502,0.249005,9.804555,0.019686,0.166799,9.805212,0.034105,-0.062977,-0.00819,143.46,-18.6,142.92,261.4926,-0.9426,-0.0982,1002.8745,55.81401,37.500248,206.5155,NaN,,0.0,6.0,,22 / 27,,5343,2021-05-11 18:52:11:142
0.124502,0.249005,9.804555,0.029991,0.176618,9.805014,0.027996,-0.064198,-0.010634,143.04,-18.24,142.56,261.4926,-0.9426,-0.0982,1002.8745,55.81401,37.500248,206.5155,NaN,,0.0,6.0,,22 / 27,,5353,2021-05-11 18:52:11:152
0.181965,0.22985,9.72315,0.029991,0.176618,9.805014,0.00295,-0.061144,-0.018575,143.04,-18.24,142.56,261.4926,-0.9426,-0.0982,1002.8745,55.81401,37.500248,206.5155,NaN,,0.0,6.0,,22 / 27,,5363,2021-05-11 18:52:11:162
0.220273,0.227456,9.749487,0.045589,0.181563,9.804863,-0.02576,-0.036098,-0.020408,142.32,-18.24,142.26,261.7356,-1.032,-0.1753,1002.8745,55.81401,37.500248,206.5155,NaN,,0.0,6.0,,22 / 27,,5373,2021-05-11 18:52:11:172
0.220273,0.227456,9.749487,0.045589,0.181563,9.804863,-0.042864,0.002997,-0.013077,142.32,-18.24,142.26,261.7356,-1.032,-0.1753,1002.8745,55.81401,37.500248,206.5155,NaN,,0.0,6.0,,22 / 27,,5384,2021-05-11 18:52:11:183
0.110137,0.220273,9.811738,0.051959,0.180806,9.804846,-0.042254,0.012771,-0.006969,142.02,-18.48,141.9,261.7356,-1.032,-0.1753,1002.8745,55.81401,37.500248,206.5155,NaN,,0.0,6.0,,22 / 27,,5393,2021-05-11 18:52:11:192
0.052674,0.158022,9.768641,0.057223,0.178891,9.804851,-0.036145,0.002997,-0.004525,142.38,-18.3,142.2,261.7356,-1.032,-0.1753,1002.8745,55.81401,37.500248,206.5155,NaN,,0.0,6.0,,22 / 27,,5403,2021-05-11 18:52:11:202
0.074223,0.234639,9.75667,0.057223,0.178891,9.804851,-0.026371,-0.020216,-0.001471,142.38,-18.3,142.2,261.7356,-1.032,-0.1753,1002.8745,55.814014,37.500248,207.2259,NaN,,0.0,6.0,,22 / 27,,5413,2021-05-11 18:52:11:212
0.074223,0.234639,9.75667,0.063802,0.1778,9.804831,-0.023317,-0.027546,-0.014299,142.8,-18.84,142.08,261.3601,-1.0452,-0.3344,1002.8745,55.814014,37.500248,207.2259,NaN,,0.0,6.0,,21 / 24,,5423,2021-05-11 18:52:11:222
0.026337,0.198725,9.751882,0.063802,0.1778,9.804831,-0.012321,-0.042818,-0.017353,142.8,-18.84,142.08,261.3601,-1.0452,-0.3344,1002.8745,55.814014,37.500248,207.2259,NaN,,0.0,6.0,,21 / 24,,5433,2021-05-11 18:52:11:232
0.021548,0.198725,9.799767,0.072516,0.17966,9.804736,-0.001326,-0.062366,-0.013688,142.38,-18.78,141.84,261.3601,-1.0452,-0.3344,1002.8792,55.814014,37.500248,207.2259,NaN,,0.0,6.0,,21 / 24,,5443,2021-05-11 18:52:11:242
0.009577,0.186753,9.90272,0.072516,0.17966,9.804736,-0.004991,-0.047094,-0.016132,142.38,-18.78,141.84,261.3601,-1.0452,-0.3344,1002.8792,55.814014,37.500248,207.2259,NaN,,0.0,6.0,,21 / 24,,5453,2021-05-11 18:52:11:252
-0.002394,0.160416,9.854836,0.078089,0.182381,9.804643,-0.00438,-0.045261,-0.009412,142.08,-18.42,142.38,261.6778,-1.0497,-0.4238,1002.8792,55.814014,37.500248,207.2259,NaN,,0.0,6.0,,21 / 24,,5463,2021-05-11 18:52:11:262
-0.002394,0.160416,9.854836,0.078089,0.182381,9.804643,-0.008656,-0.025714,0.005859,142.08,-18.42,142.38,261.6778,-1.0497,-0.4238,1002.8792,55.814014,37.500248,207.2259,NaN,,0.0,6.0,,21 / 24,,5473,2021-05-11 18:52:11:272
0.035914,0.258582,9.809344,0.076527,0.182889,9.804646,-0.021484,-0.018994,0.008914,142.56,-18.54,142.14,261.6778,-1.0497,-0.4238,1002.8792,55.814014,37.500248,207.2259,NaN,,0.0,6.0,,21 / 24,,5483,2021-05-11 18:52:11:282
0.129291,0.225062,9.763853,0.076527,0.182889,9.804646,-0.021484,-0.018994,0.008914,142.56,-18.54,142.14,261.6778,-1.0497,-0.4238,1002.8792,55.814014,37.500248,207.2259,NaN,,0.0,6.0,,21 / 24,,5493,2021-05-11 18:52:11:292
0.196331,0.215485,9.897932,0.07545,0.182476,9.804662,-0.037977,-0.007999,-0.005136,142.62,-18.3,142.44,261.6778,-1.0497,-0.4238,1002.8792,55.814014,37.500248,207.2259,NaN,,0.0,6.0,,21 / 24,,5503,2021-05-11 18:52:11:302
0.193936,0.234639,9.864412,0.077935,0.179602,9.804695,-0.033701,-0.013496,-0.017353,142.08,-18.36,142.74,261.6508,-1.0662,-0.4409,1002.8792,55.814014,37.500248,207.2259,NaN,,0.0,6.0,,21 / 24,,5514,2021-05-11 18:52:11:313
