ACCELEROMETER X (m/s²),ACCELEROMETER Y (m/s²),ACCELEROMETER Z (m/s²),GRAVITY X (m/s²),GRAVITY Y (m/s²),GRAVITY Z (m/s²),GYROSCOPE X (rad/s),GYROSCOPE Y (rad/s),GYROSCOPE Z (rad/s),MAGNETIC FIELD X (μT),MAGNETIC FIELD Y (μT),MAGNETIC FIELD Z (μT),ORIENTATION Z (azimuth °),ORIENTATION X (pitch °),ORIENTATION Y (roll °),ATMOSPHERIC PRESSURE (hPa),LOCATION Latitude : ,LOCATION Longitude : ,LOCATION Altitude ( m),LOCATION Altitude-google ( m),LOCATION Altitude-atmospheric pressure ( m),LOCATION Speed ( m/s),LOCATION Accuracy ( m),LOCATION ORIENTATION (°),Satellites in range,GPS NMEA,Time since start in ms ,YYYY-MO-DD HH-MI-SS_SSS
0.122108,0.409421,9.953,4.058279,2.804698,8.475516,-0.104709,-0.030098,0.017123,6.36,4.68,-42.54,302.2681,-16.6186,-25.5862,994.2422,,,,NaN,,,,,0 / 10,,26,2021-05-16 17:47:49:489
0.122108,0.409421,9.953,4.058279,2.804698,8.475516,-0.108374,-0.021546,0.020788,6.36,4.68,-42.54,302.2681,-16.6186,-25.5862,994.2422,,,,NaN,,,,,0 / 10,,36,2021-05-16 17:47:49:499
0.090982,0.337593,10.00328,4.057621,2.782761,8.48306,-0.097379,-0.020935,0.026286,5.52,4.5,-42.06,302.2681,-16.6186,-25.5862,994.2397,,,,NaN,,,,,0 / 10,,45,2021-05-16 17:47:49:508
0.026337,0.342381,9.93624,4.057621,2.782761,8.48306,-0.070501,-0.028876,0.033616,5.52,4.5,-42.06,302.2681,-16.6186,-25.5862,994.2397,,,,NaN,,,,,0 / 10,,56,2021-05-16 17:47:49:519
0.05028,0.390267,9.943423,4.055496,2.760218,8.491437,-0.027129,-0.033152,0.034838,5.46,4.62,-42.12,303.3089,-16.3476,-25.5291,994.2397,,,,NaN,,,,,0 / 10,,66,2021-05-16 17:47:49:529
0.0838,0.533923,9.850046,4.055496,2.760218,8.491437,0.015631,-0.033763,0.033616,5.46,4.62,-42.12,303.3089,-16.3476,-25.5291,994.2397,,,,NaN,,,,,0 / 10,,76,2021-05-16 17:47:49:539
0.06704,0.553077,9.684841,4.05555,2.748445,8.495229,0.026016,-0.03132,0.027507,5.82,4.74,-42.66,303.3089,-16.3476,-25.5291,994.2397,,,,NaN,,,,,0 / 10,,86,2021-05-16 17:47:49:549
0.06704,0.553077,9.684841,4.05555,2.748445,8.495229,0.016242,-0.031931,0.033616,5.82,4.74,-42.66,303.3089,-16.3476,-25.5291,994.2397,,,,NaN,,,,,0 / 10,,95,2021-05-16 17:47:49:558
0.093377,0.5435,9.586677,4.054946,2.745765,8.496382,-8.62E-4,-0.049646,0.040335,6.3,4.44,-41.76,300.2893,-16.2596,-25.5131,994.2397,,,,NaN,,,,,0 / 10,,106,2021-05-16 17:47:49:569
0.215485,0.591386,9.699207,4.054946,2.745765,8.496382,-0.011247,-0.061863,0.040946,6.3,4.44,-41.76,300.2893,-16.2596,-25.5131,994.2397,,,,NaN,,,,,0 / 10,,115,2021-05-16 17:47:49:578
0.308861,0.675186,9.850046,4.057819,2.738514,8.497352,-0.001473,-0.067972,0.025064,6.0,4.14,-41.22,300.2893,-16.2596,-25.5131,994.2397,,,,NaN,,,,,0 / 10,,126,2021-05-16 17:47:49:589
0.308861,0.675186,9.850046,4.057819,2.738514,8.497352,0.019907,-0.07408,0.025675,6.0,4.14,-41.22,300.2893,-16.2596,-25.5131,994.2397,,,,NaN,,,,,0 / 10,,136,2021-05-16 17:47:49:599
0.28013,0.718282,9.943423,4.063395,2.73185,8.496833,0.046175,-0.06675,0.029951,6.12,4.2,-41.22,300.1611,-16.1749,-25.5583,994.2397,,,,NaN,,,,,0 / 10,,145,2021-05-16 17:47:49:608
0.217879,0.715888,10.024829,4.063395,2.73185,8.496833,0.075496,-0.055143,0.037892,6.12,4.2,-41.22,300.1611,-16.1749,-25.5583,994.2397,,,,NaN,,,,,0 / 10,,156,2021-05-16 17:47:49:619
0.172388,0.615329,10.077502,4.070155,2.73238,8.493424,0.105429,-0.040483,0.042168,6.06,4.8,-42.12,300.1611,-16.1749,-25.5583,994.2397,,,,NaN,,,,,0 / 10,,166,2021-05-16 17:47:49:629
0.172388,0.615329,10.077502,4.070155,2.73238,8.493424,0.119479,-0.022768,0.046444,6.06,4.8,-42.12,300.1611,-16.1749,-25.5583,994.2397,,,,NaN,,,,,0 / 10,,176,2021-05-16 17:47:49:639
0.126897,0.567443,10.039194,4.072175,2.741504,8.489518,0.119479,-0.022768,0.046444,5.7,4.86,-43.08,301.8497,-16.2337,-25.6257,994.2397,,,,NaN,,,,,0 / 10,,186,2021-05-16 17:47:49:649
0.186753,0.668003,9.957788,4.072175,2.741504,8.489518,0.11337,-0.016659,0.042779,5.7,4.86,-43.08,301.8497,-16.2337,-25.6257,994.2397,,,,NaN,,,,,0 / 10,,196,2021-05-16 17:47:49:659
0.222668,0.713494,9.864412,4.070736,2.753947,8.486179,0.102374,-0.030709,0.022009,5.82,3.84,-42.78,301.8497,-16.2337,-25.6257,994.2397,,,,NaN,,,,,0 / 10,,206,2021-05-16 17:47:49:669
0.222668,0.713494,9.864412,4.070736,2.753947,8.486179,0.090768,-0.047202,0.009792,5.82,3.84,-42.78,301.8497,-16.2337,-25.6257,994.2397,,,,NaN,,,,,0 / 10,,216,2021-05-16 17:47:49:679
0.282524,0.663214,9.862018,4.070407,2.765621,8.482539,0.077329,-0.057587,0.003684,6.0,3.6,-42.36,300.31,-16.3805,-25.6343,994.2397,,,,NaN,,,,,0 / 10,,226,2021-05-16 17:47:49:689
0.249005,0.706311,9.929058,4.070407,2.765621,8.482539,0.070609,-0.061863,-0.014642,6.0,3.6,-42.36,300.31,-16.3805,-25.6343,994.2397,,,,NaN,,,,,0 / 10,,236,2021-05-16 17:47:49:699
0.184359,0.6273,9.988914,4.072694,2.775027,8.478369,0.076107,-0.049646,-0.012199,6.18,4.08,-42.48,300.31,-16.3805,-25.6343,994.2424,,,,NaN,,,,,0 / 10,,246,2021-05-16 17:47:49:709
0.184359,0.6273,9.988914,4.072694,2.775027,8.478369,0.093211,-0.019102,-0.009145,6.18,4.08,-42.48,300.31,-16.3805,-25.6343,994.2424,,,,NaN,,,,,0 / 10,,256,2021-05-16 17:47:49:719
0.210696,0.617723,9.957788,4.071836,2.785436,8.475366,0.097487,0.015106,0.00124,6.18,3.24,-42.78,298.6848,-16.5012,-25.6611,994.2424,,,,NaN,,,,,0 / 10,,266,2021-05-16 17:47:49:729
0.24661,0.648849,9.862018,4.071836,2.785436,8.475366,0.087103,0.045038,0.005516,6.18,3.24,-42.78,298.6848,-16.5012,-25.6611,994.2424,,,,NaN,,,,,0 / 10,,276,2021-05-16 17:47:49:739
0.260976,0.689551,9.651321,4.062052,2.797557,8.476071,0.036401,0.068862,0.018955,5.88,3.66,-42.42,298.6848,-16.5012,-25.6611,994.2424,,,,NaN,,,,,0 / 10,,286,2021-05-16 17:47:49:749
0.299284,0.658426,9.632168,4.062052,2.797557,8.476071,-0.004527,0.06031,0.021399,5.88,3.66,-42.42,298.6848,-16.5012,-25.6611,994.2424,,,,NaN,,,,,0 / 10,,295,2021-05-16 17:47:49:758
0.299284,0.658426,9.632168,4.045316,2.79813,8.48388,-0.043012,0.035876,0.013457,5.94,4.02,-42.24,300.637,-16.5786,-25.4929,994.2424,,,,NaN,,,,,0 / 10,,306,2021-05-16 17:47:49:769
0.253793,0.663214,9.672871,4.045316,2.79813,8.48388,-0.06317,0.004721,0.009181,5.94,4.02,-42.24,300.637,-16.5786,-25.4929,994.2424,,,,NaN,,,,,0 / 10,,315,2021-05-16 17:47:49:778
0.193936,0.7111,9.692024,4.034053,2.785827,8.493287,-0.069279,-0.020935,0.007349,5.76,3.12,-42.6,300.637,-16.5786,-25.4929,994.2424,,,,NaN,,,,,0 / 10,,326,2021-05-16 17:47:49:789
0.244216,0.605752,9.732727,4.034053,2.785827,8.493287,-0.05584,-0.049035,0.00857,5.76,3.12,-42.6,300.637,-16.5786,-25.4929,994.2424,,,,NaN,,,,,0 / 10,,336,2021-05-16 17:47:49:799
0.244216,0.605752,9.732727,4.031751,2.770715,8.499324,-0.035681,-0.053311,0.006127,5.94,3.24,-42.3,298.8687,-16.5036,-25.4063,994.2417,,,,NaN,,,,,0 / 10,,346,2021-05-16 17:47:49:809
0.117319,0.57702,9.785401,4.031751,2.770715,8.499324,-0.022242,-0.036817,0.018344,5.94,3.24,-42.3,298.8687,-16.5036,-25.4063,994.2417,,,,NaN,,,,,0 / 10,,356,2021-05-16 17:47:49:819
0.284919,0.56026,9.73991,4.033483,2.760607,8.501789,9.71E-4,-0.042315,0.020788,6.54,3.78,-42.18,298.8687,-16.5036,-25.4063,994.2417,,,,NaN,,,,,0 / 10,,366,2021-05-16 17:47:49:829
0.210696,0.569837,9.768641,4.033483,2.760607,8.501789,0.008301,-0.015437,0.02262,6.54,3.78,-42.18,298.8687,-16.5036,-25.4063,994.2417,,,,NaN,,,,,0 / 10,,376,2021-05-16 17:47:49:839
0.31365,0.617723,9.689631,4.034095,2.754516,8.503473,0.005247,-0.019713,0.030562,5.76,3.66,-42.0,300.46,-16.3129,-25.3799,994.2417,,,,NaN,,,,,0 / 10,,386,2021-05-16 17:47:49:849
0.31365,0.617723,9.689631,4.034095,2.754516,8.503473,-0.012468,-0.017881,0.028118,5.76,3.66,-42.0,300.46,-16.3129,-25.3799,994.2417,,,,NaN,,,,,0 / 10,,396,2021-05-16 17:47:49:859
0.239427,0.723071,9.744699,4.032101,2.749066,8.506183,-0.035681,0.011441,0.031172,5.16,4.26,-41.94,300.46,-16.3129,-25.3799,994.2417,,,,NaN,,,,,0 / 10,,407,2021-05-16 17:47:49:870
0.177176,0.725465,9.730332,4.032101,2.749066,8.506183,-0.065614,-0.006274,0.032394,5.16,4.26,-41.94,300.46,-16.3129,-25.3799,994.2417,,,,NaN,,,,,0 / 10,,416,2021-05-16 17:47:49:879
0.239427,0.612934,9.907509,4.02568,2.736887,8.513147,-0.061338,-0.020935,0.049498,5.34,4.26,-42.24,301.6268,-16.2056,-25.3084,994.2417,,,,NaN,,,,,0 / 10,,426,2021-05-16 17:47:49:889
0.239427,0.612934,9.907509,4.02568,2.736887,8.513147,-0.061338,-0.020935,0.049498,5.34,4.26,-42.24,301.6268,-16.2056,-25.3084,994.2417,,,,NaN,,,,,0 / 10,,436,2021-05-16 17:47:49:899
0.38069,0.749408,9.933846,4.02406,2.719934,8.519345,-0.024686,-0.037428,0.035449,5.46,3.48,-42.36,301.6268,-16.2056,-25.3084,994.2417,,,,NaN,,,,,0 / 10,,446,2021-05-16 17:47:49:909
0.287313,0.648849,9.888355,4.02406,2.719934,8.519345,0.002803,-0.093628,0.034838,5.46,3.48,-42.36,301.6268,-16.2056,-25.3084,994.2417,,,,NaN,,,,,0 / 10,,456,2021-05-16 17:47:49:919
0.287313,0.648849,9.888355,4.028825,2.711363,8.519826,0.002803,-0.097293,0.051331,5.52,3.84,-42.06,300.2474,-16.0504,-25.3084,994.2417,,,,NaN,,,,,0 / 10,,466,2021-05-16 17:47:49:929
0.205908,0.701523,9.811738,4.028825,2.711363,8.519826,-0.00636,-0.133945,0.053164,5.52,3.84,-42.06,300.2474,-16.0504,-25.3084,994.2417,,,,NaN,,,,,0 / 10,,476,2021-05-16 17:47:49:939
0.162811,0.531529,10.24989,4.042186,2.703578,8.515971,0.012577,-0.132112,0.059272,5.52,4.08,-42.42,300.2474,-16.0504,-25.3084,994.2417,,,,NaN,,,,,0 / 10,,485,2021-05-16 17:47:49:948
0.225062,0.512375,10.319324,4.052014,2.699319,8.51265,0.02846,-0.113786,0.065381,5.46,3.96,-42.84,300.2474,-16.0504,-25.3084,994.2417,,,,NaN,,,,,0 / 10,,496,2021-05-16 17:47:49:959
0.24661,0.507586,10.125388,4.052014,2.699319,8.51265,0.065722,-0.028265,0.065381,5.46,3.96,-42.84,300.2474,-16.0504,-25.3084,994.2417,,,,NaN,,,,,0 / 10,,505,2021-05-16 17:47:49:968
0.24661,0.507586,10.125388,4.062716,2.697837,8.508018,0.058392,-0.009329,0.062327,5.4,4.02,-42.72,301.152,-15.9681,-25.5252,994.2417,,,,NaN,,,,,0 / 10,,516,2021-05-16 17:47:49:979
0.28013,0.553077,9.754275,4.062012,2.699521,8.507818,0.037623,-0.017881,0.061105,5.1,4.02,-42.66,301.152,-15.9681,-25.5252,994.2417,,,,NaN,,,,,0 / 10,,525,2021-05-16 17:47:49:988
0.308861,0.572232,9.766247,4.062012,2.699521,8.507818,-0.002084,-0.039261,0.064159,5.1,4.02,-42.66,301.152,-15.9681,-25.5252,994.2417,,,,NaN,,,,,0 / 10,,536,2021-05-16 17:47:49:999
0.306467,0.7111,9.862018,4.062072,2.695895,8.508941,-0.007581,-0.060641,0.067824,5.22,4.2,-42.6,301.152,-15.9681,-25.5252,994.2456,,,,NaN,,,,,0 / 10,,546,2021-05-16 17:47:50:009
0.306467,0.7111,9.862018,4.062072,2.695895,8.508941,0.016853,-0.073469,0.075155,5.22,4.2,-42.6,301.152,-15.9681,-25.5252,994.2456,,,,NaN,,,,,0 / 10,,556,2021-05-16 17:47:50:019
0.249005,0.723071,9.909904,4.067909,2.685941,8.509301,0.016853,-0.073469,0.075155,5.16,4.32,-42.84,301.1445,-15.9563,-25.5193,994.2456,,,,NaN,,,,,0 / 10,,567,2021-05-16 17:47:50:030
0.351958,0.632089,9.900327,4.067909,2.685941,8.509301,0.04251,-0.066139,0.072711,5.16,4.32,-42.84,301.1445,-15.9563,-25.5193,994.2456,,,,NaN,,,,,0 / 10,,576,2021-05-16 17:47:50:039
0.320833,0.524346,9.665688,4.076478,2.681584,8.506574,0.051062,-0.04598,0.062937,5.46,4.08,-42.6,301.1445,-15.9563,-25.5193,994.2456,,,,NaN,,,,,0 / 10,,586,2021-05-16 17:47:50:049
0.320833,0.524346,9.665688,4.076478,2.681584,8.506574,0.02907,-0.056365,0.061716,5.46,4.08,-42.6,301.1445,-15.9563,-25.5193,994.2456,,,,NaN,,,,,0 / 10,,596,2021-05-16 17:47:50:059
0.318439,0.514769,9.670476,4.082092,2.679723,8.504467,-0.013079,-0.076524,0.05744,5.4,3.66,-42.18,300.9523,-15.8581,-25.6407,994.2456,,,,NaN,,,,,0 / 10,,605,2021-05-16 17:47:50:068
0.138868,0.478855,9.883567,4.086492,2.674862,8.503884,-0.024075,-0.050867,0.059883,5.28,3.72,-42.24,300.9523,-15.8581,-25.6407,994.2456,,,,NaN,,,,,0 / 10,,616,2021-05-16 17:47:50:079
0.131685,0.474066,9.957788,4.086492,2.674862,8.503884,-0.028351,-0.059419,0.077598,5.28,3.72,-42.24,300.9523,-15.8581,-25.6407,994.2456,,,,NaN,,,,,0 / 10,,626,2021-05-16 17:47:50:089
0.040703,0.407027,10.170879,4.091834,2.66093,8.505688,-0.017355,-0.027044,0.091648,5.22,4.38,-42.24,300.9523,-15.8581,-25.6407,994.2456,,,,NaN,,,,,0 / 10,,636,2021-05-16 17:47:50:099
0.040703,0.407027,10.170879,4.09471,2.653636,8.506583,3.6E-4,-0.001998,0.106309,5.34,3.96,-42.36,300.7246,-15.6997,-25.7042,994.2441,,,,NaN,,,,,0 / 10,,646,2021-05-16 17:47:50:109
0.241822,0.488432,10.245102,4.090994,2.641541,8.512131,0.030292,0.060921,0.120359,5.4,4.32,-41.82,300.7246,-15.6997,-25.7042,994.2441,,,,NaN,,,,,0 / 10,,658,2021-05-16 17:47:50:121
0.447729,0.545895,9.873989,4.090994,2.641541,8.512131,0.032125,0.051758,0.108752,5.4,4.32,-41.82,300.7246,-15.6997,-25.7042,994.2441,,,,NaN,,,,,0 / 10,,666,2021-05-16 17:47:50:129
0.395055,0.581809,9.347249,4.090994,2.641541,8.512131,-0.002695,0.008997,0.102644,5.4,4.32,-41.82,300.7246,-15.6997,-25.7042,994.2441,,,,NaN,,,,,0 / 10,,675,2021-05-16 17:47:50:138
0.395055,0.581809,9.347249,4.080716,2.633928,8.519421,-0.074166,-0.078967,0.097146,5.1,4.2,-41.64,300.693,-15.5801,-25.5939,994.2441,,,,NaN,,,,,0 / 10,,686,2021-05-16 17:47:50:149
0.366324,0.620117,9.153313,4.081099,2.626508,8.521527,-0.074166,-0.078967,0.097146,4.44,4.02,-42.18,300.693,-15.5801,-25.5939,994.2441,,,,NaN,,,,,0 / 10,,696,2021-05-16 17:47:50:159
0.474066,0.600963,9.435837,4.081099,2.626508,8.521527,-0.159687,-0.262838,0.083096,4.44,4.02,-42.18,300.693,-15.5801,-25.5939,994.2441,,,,NaN,,,,,0 / 10,,706,2021-05-16 17:47:50:169
0.474066,0.600963,9.435837,4.10823,2.595004,8.518143,-0.196339,-0.343472,0.051331,4.62,3.72,-42.66,300.693,-15.5801,-25.5939,994.2441,,,,NaN,,,,,0 / 10,,716,2021-05-16 17:47:50:179
1.544307,-0.387873,10.393547,4.10823,2.595004,8.518143,-0.177402,-0.362409,-0.075118,4.62,3.72,-42.66,300.693,-15.5801,-25.5939,994.2441,,,,NaN,,,,,0 / 10,,726,2021-05-16 17:47:50:189
0.172388,0.778139,10.156514,4.163865,2.557907,8.502335,-0.138307,-0.085687,-0.095277,5.34,4.32,-42.72,299.7223,-15.1195,-26.0925,994.2441,,,,NaN,,,,,0 / 10,,736,2021-05-16 17:47:50:199
-0.277736,0.818842,9.783007,4.163865,2.557907,8.502335,-0.076609,-0.116841,0.004905,5.34,4.32,-42.72,299.7223,-15.1195,-26.0925,994.2378,,,,NaN,,,,,0 / 10,,746,2021-05-16 17:47:50:209
-0.277736,0.818842,9.783007,4.17271,2.5394,8.503544,-0.04912,-0.14433,0.069657,5.22,4.5,-42.3,299.7223,-15.1195,-26.0925,994.2378,,,,NaN,,,,,0 / 10,,756,2021-05-16 17:47:50:219
0.277736,0.591386,9.771035,4.184054,2.530718,8.500559,-0.056451,-0.047202,0.090426,5.16,3.96,-42.18,299.7223,-15.1195,-26.0925,994.2378,,,,NaN,,,,,0 / 10,,765,2021-05-16 17:47:50:228
0.471672,0.392661,9.979338,4.184054,2.530718,8.500559,-0.066835,0.028545,0.096535,5.16,3.96,-42.18,299.7223,-15.1195,-26.0925,994.2378,,,,NaN,,,,,0 / 10,,776,2021-05-16 17:47:50:239
0.567443,0.572232,10.225947,4.188367,2.509205,8.504812,-0.018577,0.004111,0.088594,4.44,3.84,-42.12,300.5222,-14.825,-26.2189,994.2378,,,,NaN,,,,,0 / 10,,786,2021-05-16 17:47:50:249
0.567443,0.572232,10.225947,4.188367,2.509205,8.504812,0.045564,-0.141886,0.088594,4.44,3.84,-42.12,300.5222,-14.825,-26.2189,994.2378,,,,NaN,,,,,0 / 10,,796,2021-05-16 17:47:50:259
0.67758,0.581809,9.799767,4.186326,2.494498,8.51014,0.059003,-0.299489,0.075766,4.02,3.9,-42.3,300.5222,-14.825,-26.2189,994.2378,,,,NaN,,,,,0 / 10,,807,2021-05-16 17:47:50:270
0.565049,0.502798,9.921875,4.186326,2.494498,8.51014,0.070609,-0.308652,0.048277,4.02,3.9,-42.3,300.5222,-14.825,-26.2189,994.2378,,,,NaN,,,,,0 / 10,,816,2021-05-16 17:47:50:279
0.565049,0.502798,9.921875,4.227843,2.49452,8.489585,0.070609,-0.308652,0.048277,4.8,4.14,-42.72,298.9743,-14.7363,-26.4735,994.2378,55.853035,37.4689,189.2,NaN,,,50.136,,0 / 10,,826,2021-05-16 17:47:50:289
0.565049,0.502798,9.921875,4.227843,2.49452,8.489585,0.070609,-0.308652,0.048277,4.8,4.14,-42.72,298.9743,-14.7363,-26.4735,994.2378,55.853035,37.4689,189.2,NaN,,,50.136,,0 / 10,,836,2021-05-16 17:47:50:299
0.459701,0.469278,9.854836,4.252161,2.496743,8.476775,0.069388,-0.323313,0.047055,4.62,4.26,-42.84,298.9743,-14.7363,-26.4735,994.2517,55.853035,37.4689,189.2,NaN,,,50.136,,0 / 10,,846,2021-05-16 17:47:50:309
0.737437,0.569837,9.768641,4.252161,2.496743,8.476775,0.034568,-0.521844,0.047666,4.62,4.26,-42.84,298.9743,-14.7363,-26.4735,994.2517,55.853035,37.4689,189.2,NaN,,,50.136,,0 / 10,,856,2021-05-16 17:47:50:319
0.914613,0.663214,9.914692,4.358768,2.498537,8.421925,0.039455,-0.584764,0.044001,3.42,3.96,-42.84,300.5659,-14.7605,-27.3638,994.2517,55.853035,37.4689,189.2,NaN,,,50.136,,0 / 10,,866,2021-05-16 17:47:50:329
0.972076,0.672791,9.814133,4.358768,2.498537,8.421925,0.055338,-0.572546,0.028729,3.42,3.96,-42.84,300.5659,-14.7605,-27.3638,994.2517,55.853035,37.4689,189.2,NaN,,,50.136,,0 / 10,,875,2021-05-16 17:47:50:338
0.972076,0.672791,9.814133,4.450872,2.499832,8.373225,0.040066,-0.396006,0.00857,3.06,4.2,-42.12,300.5659,-14.7605,-27.3638,994.2517,55.853035,37.4689,189.2,NaN,,,50.136,,0 / 10,,886,2021-05-16 17:47:50:349
0.782928,0.687157,9.581888,4.450872,2.499832,8.373225,-0.01369,-0.23657,0.015901,3.06,4.2,-42.12,300.5659,-14.7605,-27.3638,994.2517,55.853035,37.4689,189.2,NaN,,,50.136,,0 / 10,,896,2021-05-16 17:47:50:359
0.416604,0.646454,9.526819,4.500753,2.498635,8.34688,-0.096768,-0.074691,0.050109,2.88,4.44,-41.94,299.7921,-14.7611,-28.3342,994.2517,55.853035,37.4689,189.2,NaN,,,50.136,,0 / 10,,906,2021-05-16 17:47:50:369
0.447729,0.651243,9.543579,4.500753,2.498635,8.34688,-0.14747,0.01816,0.085539,2.88,4.44,-41.94,299.7921,-14.7611,-28.3342,994.2517,55.853035,37.4689,189.2,NaN,,,50.136,,0 / 10,,916,2021-05-16 17:47:50:379
0.447729,0.61054,9.58907,4.507309,2.473731,8.35076,-0.179845,0.126284,0.111807,2.64,4.44,-42.54,299.7921,-14.7611,-28.3342,994.2517,55.853035,37.4689,189.2,NaN,,,50.136,,0 / 10,,926,2021-05-16 17:47:50:389
0.447729,0.61054,9.58907,4.507309,2.473731,8.35076,-0.137696,0.098795,0.145404,2.64,4.44,-42.54,299.7921,-14.7611,-28.3342,994.2517,55.853035,37.4689,189.2,NaN,,,50.136,,0 / 10,,935,2021-05-16 17:47:50:398
0.766168,0.572232,10.017646,4.485534,2.431397,8.374882,-0.04912,0.001667,0.154567,2.64,4.68,-42.42,301.3141,-14.3553,-28.1732,994.2488,55.853035,37.4689,189.2,NaN,,,50.136,,0 / 10,,946,2021-05-16 17:47:50:409
1.046298,0.483644,10.161303,4.485534,2.431397,8.374882,0.062668,0.008997,0.155178,2.64,4.68,-42.42,301.3141,-14.3553,-28.1732,994.2488,55.853035,37.4689,189.2,NaN,,,50.136,,0 / 10,,955,2021-05-16 17:47:50:418
0.988836,0.409421,9.862018,4.4826,2.405272,8.383991,0.15552,0.067641,0.162508,2.82,4.5,-43.08,301.3141,-14.3553,-28.1732,994.2488,55.853256,37.469833,153.8606,NaN,,0.165,48.0,340.5932,8 / 10,,966,2021-05-16 17:47:50:429
0.988836,0.409421,9.862018,4.4826,2.405272,8.383991,0.188506,0.110401,0.1564,2.82,4.5,-43.08,301.3141,-14.3553,-28.1732,994.2488,55.853256,37.469833,153.8606,NaN,,0.165,48.0,340.5932,8 / 10,,976,2021-05-16 17:47:50:439
1.060664,0.383084,9.715967,4.472814,2.412453,8.387155,0.189117,0.104292,0.141739,3.18,4.32,-43.02,299.3442,-14.241,-28.0707,994.2488,55.853256,37.469833,153.8606,NaN,,0.165,48.0,340.5932,8 / 10,,985,2021-05-16 17:47:50:448
1.048692,0.318439,9.871595,4.463819,2.419657,8.389872,0.208665,0.061532,0.136852,3.36,3.9,-42.6,299.3442,-14.241,-28.0707,994.2488,55.853256,37.469833,153.8606,NaN,,0.165,48.0,340.5932,8 / 10,,996,2021-05-16 17:47:50:459
1.022355,0.416604,10.31693,4.463819,2.419657,8.389872,0.208665,0.061532,0.136852,3.36,3.9,-42.6,299.3442,-14.241,-28.0707,994.2488,55.853256,37.469833,153.8606,NaN,,0.165,48.0,340.5932,8 / 10,,1005,2021-05-16 17:47:50:468
1.091789,0.445335,10.340873,4.451475,2.43797,8.391129,0.253258,0.032821,0.116694,3.42,3.9,-42.18,299.3442,-14.241,-28.0707,994.2488,55.853256,37.469833,153.8606,NaN,,0.165,48.0,340.5932,8 / 10,,1016,2021-05-16 17:47:50:479
1.091789,0.445335,10.340873,4.451475,2.43797,8.391129,0.277693,0.020604,0.104476,3.42,3.9,-42.18,299.3442,-14.241,-28.0707,994.2488,55.853256,37.469833,153.8606,NaN,,0.165,48.0,340.5932,8 / 10,,1026,2021-05-16 17:47:50:489
1.065452,0.452518,10.106234,4.445744,2.469459,8.384954,0.296629,-0.036817,0.111807,3.06,3.12,-43.02,297.7564,-14.3949,-27.9458,994.2488,55.853256,37.469833,153.8606,NaN,,0.165,48.0,340.5932,8 / 10,,1036,2021-05-16 17:47:50:499
0.955316,0.608146,10.034406,4.445744,2.469459,8.384954,0.327784,-0.095461,0.101422,3.06,3.12,-43.02,297.7564,-14.3949,-27.9458,994.24,55.853256,37.469833,153.8606,NaN,,0.165,48.0,340.5932,8 / 10,,1045,2021-05-16 17:47:50:508
0.90743,0.749408,10.321719,4.455787,2.508563,8.367998,0.372377,-0.15838,0.090426,2.58,3.18,-43.2,297.7564,-14.3949,-27.9458,994.24,55.853256,37.469833,153.8606,NaN,,0.165,48.0,340.5932,8 / 10,,1056,2021-05-16 17:47:50:519
0.90743,0.749408,10.321719,4.455787,2.508563,8.367998,0.442015,-0.274444,0.091037,2.58,3.18,-43.2,297.7564,-14.3949,-27.9458,994.24,55.853256,37.469833,153.8606,NaN,,0.165,48.0,340.5932,8 / 10,,1065,2021-05-16 17:47:50:528
0.866728,0.682368,10.144543,4.487644,2.562721,8.3345,0.482943,-0.31415,0.089205,2.64,3.48,-42.78,298.1844,-14.8211,-28.0344,994.24,55.853256,37.469833,153.8606,NaN,,0.165,48.0,340.5932,8 / 10,,1076,2021-05-16 17:47:50:539
0.988836,0.603357,9.73991,4.487644,2.562721,8.3345,0.44507,-0.221299,0.069657,2.64,3.48,-42.78,298.1844,-14.8211,-28.0344,994.24,55.853256,37.469833,153.8606,NaN,,0.165,48.0,340.5932,8 / 10,,1086,2021-05-16 17:47:50:549
1.130098,0.782928,9.62259,4.532857,2.629315,8.289166,0.363825,-0.121117,0.050109,3.3,2.64,-42.6,298.1844,-14.8211,-28.0344,994.24,55.853256,37.469833,153.8606,NaN,,0.165,48.0,340.5932,8 / 10,,1095,2021-05-16 17:47:50:558
1.043904,0.833208,9.70639,4.532857,2.629315,8.289166,0.283801,-0.044759,0.042168,3.3,2.64,-42.6,298.1844,-14.8211,-28.0344,994.24,55.853256,37.469833,153.8606,NaN,,0.165,48.0,340.5932,8 / 10,,1106,2021-05-16 17:47:50:569
1.043904,0.833208,9.70639,4.546503,2.677772,8.266147,0.213552,0.05298,0.034838,3.3,2.7,-42.66,298.4786,-15.5522,-28.6717,994.24,55.853256,37.469833,153.8606,NaN,,0.165,48.0,340.5932,8 / 10,,1116,2021-05-16 17:47:50:579
0.828419,0.852362,9.775824,4.540625,2.692457,8.26461,0.183009,0.098795,0.034227,3.3,2.7,-43.02,298.4786,-15.5522,-28.6717,994.24,55.853256,37.469833,153.8606,NaN,,0.165,48.0,340.5932,8 / 10,,1126,2021-05-16 17:47:50:589
0.852362,0.969681,9.495694,4.540625,2.692457,8.26461,0.140859,0.146442,0.042779,3.3,2.7,-43.02,298.4786,-15.5522,-28.6717,994.24,55.853256,37.469833,153.8606,NaN,,0.165,48.0,340.5932,8 / 10,,1136,2021-05-16 17:47:50:599
0.732648,0.948133,9.256267,4.517348,2.713574,8.270455,0.101153,0.165379,0.055607,3.18,2.28,-42.42,298.4786,-15.5522,-28.6717,994.2334,55.853256,37.469833,153.8606,NaN,,0.165,48.0,340.5932,8 / 10,,1146,2021-05-16 17:47:50:609
0.732648,0.948133,9.256267,4.517348,2.713574,8.270455,0.066333,0.150107,0.07149,3.18,2.28,-42.42,298.4786,-15.5522,-28.6717,994.2334,55.853256,37.469833,153.8606,NaN,,0.165,48.0,340.5932,8 / 10,,1155,2021-05-16 17:47:50:618
0.866728,0.917007,9.433443,4.487256,2.721205,8.284318,0.070609,0.089021,0.063548,3.36,1.86,-43.08,297.2387,-16.0638,-28.6435,994.2334,55.853256,37.469833,153.8606,NaN,,0.165,48.0,340.5932,8 / 10,,1166,2021-05-16 17:47:50:629
1.235446,0.782928,9.615408,4.487256,2.721205,8.284318,0.090768,-0.014826,0.03667,3.36,1.86,-43.08,297.2387,-16.0638,-28.6435,994.2334,55.853256,37.469833,153.8606,NaN,,0.165,48.0,340.5932,8 / 10,,1176,2021-05-16 17:47:50:639
1.259389,0.85715,9.534002,4.468651,2.723948,8.293468,0.111537,-0.104624,0.004294,3.06,1.92,-43.56,297.2387,-16.0638,-28.6435,994.2334,55.853256,37.469833,153.8606,NaN,,0.165,48.0,340.5932,8 / 10,,1185,2021-05-16 17:47:50:648
0.998413,0.849968,9.648928,4.468651,2.723948,8.293468,0.116424,-0.099126,-0.004258,3.06,1.92,-43.56,297.2387,-16.0638,-28.6435,994.2334,55.853256,37.469833,153.8606,NaN,,0.165,48.0,340.5932,8 / 10,,1196,2021-05-16 17:47:50:659
0.90743,0.849968,9.735122,4.475836,2.73728,8.285199,0.126198,-0.082021,-0.024416,2.88,1.86,-43.44,297.594,-16.1269,-28.3165,994.2334,55.853256,37.469833,153.8606,NaN,,0.165,48.0,340.5932,8 / 10,,1206,2021-05-16 17:47:50:669
0.90743,0.849968,9.735122,4.475836,2.73728,8.285199,0.126198,-0.082021,-0.024416,2.88,1.86,-43.44,297.594,-16.1269,-28.3165,994.2334,55.853256,37.469833,153.8606,NaN,,0.165,48.0,340.5932,8 / 10,,1216,2021-05-16 17:47:50:679
0.85715,0.897853,9.730332,4.482826,2.755877,8.275251,0.137194,-0.064917,-0.026249,3.18,1.74,-43.44,297.594,-16.1269,-28.3165,994.2334,55.853256,37.469833,153.8606,NaN,,0.165,48.0,340.5932,8 / 10,,1226,2021-05-16 17:47:50:689
0.861939,0.845179,9.785401,4.482826,2.755877,8.275251,0.143913,-0.077135,-0.036023,3.18,1.74,-43.44,297.594,-16.1269,-28.3165,994.2334,55.853256,37.469833,153.8606,NaN,,0.165,48.0,340.5932,8 / 10,,1235,2021-05-16 17:47:50:698
1.005595,0.854756,9.804555,4.486509,2.778509,8.265682,0.159796,-0.186479,-0.058014,2.7,2.1,-43.38,297.7096,-16.3212,-28.4451,994.2227,55.853256,37.469833,153.8606,NaN,,0.165,48.0,340.5932,8 / 10,,1246,2021-05-16 17:47:50:709
1.005595,0.854756,9.804555,4.486509,2.778509,8.265682,0.134139,-0.148606,-0.085503,2.7,2.1,-43.38,297.7096,-16.3212,-28.4451,994.2227,55.853256,37.469833,153.8606,NaN,,0.165,48.0,340.5932,8 / 10,,1256,2021-05-16 17:47:50:719
1.027144,1.027144,9.699207,4.505767,2.806319,8.245785,0.093822,-0.110121,-0.095888,2.76,1.44,-43.26,297.7096,-16.3212,-28.4451,994.2227,55.853256,37.469833,153.8606,NaN,,0.165,48.0,340.5932,8 / 10,,1266,2021-05-16 17:47:50:729
0.806871,1.132492,9.232324,4.505767,2.806319,8.245785,0.036401,-0.098515,-0.085503,2.76,1.44,-43.26,297.7096,-16.3212,-28.4451,994.2227,55.853256,37.469833,153.8606,NaN,,0.165,48.0,340.5932,8 / 10,,1276,2021-05-16 17:47:50:739
0.945739,1.185166,8.875577,4.512776,2.826341,8.235107,-0.049731,-0.0527,-0.084281,2.52,0.72,-43.02,296.0081,-16.6285,-28.6536,994.2227,55.853256,37.469833,153.8606,NaN,,0.165,48.0,340.5932,8 / 10,,1285,2021-05-16 17:47:50:748
0.928979,1.280937,8.820508,4.512776,2.826341,8.235107,-0.152356,0.031599,-0.077562,2.52,0.72,-43.02,296.0081,-16.6285,-28.6536,994.2227,55.853256,37.469833,153.8606,NaN,,0.165,48.0,340.5932,8 / 10,,1295,2021-05-16 17:47:50:758
0.928979,1.280937,8.820508,4.510605,2.823871,8.237144,-0.247041,0.158659,-0.078172,2.16,0.72,-43.62,296.0081,-16.6285,-28.6536,994.2227,55.853256,37.469833,153.8606,NaN,,0.165,48.0,340.5932,8 / 10,,1305,2021-05-16 17:47:50:768
1.132492,1.158829,9.14613,4.510605,2.823871,8.237144,-0.320955,0.319317,-0.11177,2.16,0.72,-43.62,296.0081,-16.6285,-28.6536,994.2227,55.853256,37.469833,153.8606,NaN,,0.165,48.0,340.5932,8 / 10,,1316,2021-05-16 17:47:50:779
1.228263,1.015173,9.850046,4.475851,2.789621,8.267717,-0.350277,0.460427,-0.147811,2.28,1.26,-44.1,297.2624,-16.7356,-28.7048,994.2227,55.853256,37.469833,153.8606,NaN,,0.165,48.0,340.5932,8 / 10,,1326,2021-05-16 17:47:50:789
0.871516,1.070241,9.876384,4.475851,2.789621,8.267717,-0.330729,0.45554,-0.176522,2.28,1.26,-44.1,297.2624,-16.7356,-28.7048,994.2227,55.853256,37.469833,153.8606,NaN,,0.165,48.0,340.5932,8 / 10,,1335,2021-05-16 17:47:50:798
0.569837,0.955316,9.979338,4.389582,2.742433,8.329524,-0.287969,0.327258,-0.16797,2.82,1.32,-43.8,297.2624,-16.7356,-28.7048,994.2241,55.853256,37.469833,153.8606,NaN,,0.165,48.0,340.5932,8 / 10,,1346,2021-05-16 17:47:50:809
0.569837,0.955316,9.979338,4.389582,2.742433,8.329524,-0.228715,0.172098,-0.136205,2.82,1.32,-43.8,297.2624,-16.7356,-28.7048,994.2241,55.853256,37.469833,153.8606,NaN,,0.165,48.0,340.5932,8 / 10,,1356,2021-05-16 17:47:50:819
0.447729,0.85715,10.010463,4.319911,2.7063,8.377628,-0.209778,0.13056,-0.120322,3.36,1.5,-43.44,298.1901,-16.2393,-27.7888,994.2241,55.853256,37.469833,153.8606,NaN,,0.165,48.0,340.5932,8 / 10,,1365,2021-05-16 17:47:50:828
0.447729,0.85715,10.010463,4.319911,2.7063,8.377628,-0.209778,0.13056,-0.120322,3.36,1.5,-43.44,298.1901,-16.2393,-27.7888,994.2241,55.853256,37.469833,153.8606,NaN,,0.165,48.0,340.5932,8 / 10,,1376,2021-05-16 17:47:50:839
0.447729,0.85715,10.010463,4.319911,2.7063,8.377628,-0.209778,0.13056,-0.120322,3.36,1.5,-43.44,298.1901,-16.2393,-27.7888,994.2241,55.853256,37.469833,153.8606,NaN,,0.165,48.0,340.5932,8 / 10,,1386,2021-05-16 17:47:50:849
0.507586,0.818842,10.07032,4.30066,2.69174,8.392211,-0.198171,0.117731,-0.116046,3.3,1.68,-43.26,298.1901,-16.2393,-27.7888,994.2241,55.853256,37.469833,153.8606,NaN,,0.165,48.0,340.5932,8 / 10,,1396,2021-05-16 17:47:50:859
0.852362,0.888276,10.336084,4.30066,2.69174,8.392211,-0.156022,0.062143,-0.038466,3.3,1.68,-43.26,298.1901,-16.2393,-27.7888,994.2241,55.853256,37.469833,153.8606,NaN,,0.165,48.0,340.5932,8 / 10,,1406,2021-05-16 17:47:50:869
0.852362,0.888276,10.336084,4.239454,2.634472,8.441384,-0.080274,0.043817,-0.045186,2.88,1.74,-42.78,298.4088,-15.9311,-27.1333,994.2241,55.853256,37.469833,153.8606,NaN,,0.165,48.0,340.5932,8 / 10,,1416,2021-05-16 17:47:50:879
0.758985,0.739831,10.26665,4.239454,2.634472,8.441384,0.008912,0.073749,-0.042131,2.88,1.74,-42.78,298.4088,-15.9311,-27.1333,994.2241,55.853256,37.469833,153.8606,NaN,,0.165,48.0,340.5932,8 / 10,,1426,2021-05-16 17:47:50:889
0.617723,0.725465,9.814133,4.221304,2.622994,8.454042,0.040677,0.012663,-0.026249,3.12,2.16,-42.96,298.4088,-15.9311,-27.1333,994.2241,55.853256,37.469833,153.8606,NaN,,0.165,48.0,340.5932,8 / 10,,1436,2021-05-16 17:47:50:899
0.763774,0.670397,9.696813,4.221304,2.622994,8.454042,0.036401,-0.064917,-0.017086,3.12,2.16,-42.96,298.4088,-15.9311,-27.1333,994.2363,55.853256,37.469833,153.8606,NaN,,0.165,48.0,340.5932,8 / 10,,1446,2021-05-16 17:47:50:909
0.763774,0.670397,9.696813,4.20902,2.627689,8.458707,0.036401,-0.064917,-0.017086,3.36,1.98,-42.72,298.4421,-15.5138,-26.534,994.2363,55.853256,37.469833,153.8606,NaN,,0.165,48.0,340.5932,8 / 10,,1456,2021-05-16 17:47:50:919
0.883487,0.761379,9.991309,4.212724,2.630089,8.456119,0.037623,-0.107067,-0.028081,3.36,2.04,-42.9,298.4421,-15.5138,-26.534,994.2363,55.853256,37.469833,153.8606,NaN,,0.165,48.0,340.5932,8 / 10,,1466,2021-05-16 17:47:50:929
0.85715,0.751802,10.360027,4.212724,2.630089,8.456119,0.104818,-0.202973,-0.042742,3.36,2.04,-42.9,298.4421,-15.5138,-26.534,994.2363,55.853256,37.469833,153.8606,NaN,,0.165,48.0,340.5932,8 / 10,,1476,2021-05-16 17:47:50:939
0.85715,0.751802,10.360027,4.227435,2.638854,8.446041,0.170791,-0.193199,-0.050073,2.82,2.34,-43.2,298.4421,-15.5138,-26.534,994.2363,55.853256,37.469833,153.8606,NaN,,0.165,48.0,340.5932,8 / 10,,1486,2021-05-16 17:47:50:949
0.967287,0.871516,10.192428,4.227435,2.638854,8.446041,0.201945,-0.140054,-0.050073,2.82,2.34,-43.2,298.4421,-15.5138,-26.534,994.2363,55.853256,37.469833,153.8606,NaN,,0.165,48.0,340.5932,8 / 10,,1496,2021-05-16 17:47:50:959
0.806871,0.835602,9.701602,4.249729,2.668175,8.425616,0.183619,-0.128447,-0.047629,3.24,2.46,-43.68,298.5062,-15.61,-26.589,994.2363,55.853256,37.469833,153.8606,NaN,,0.165,48.0,340.5932,8 / 10,,1505,2021-05-16 17:47:50:968
0.900247,0.87391,9.696813,4.249729,2.668175,8.425616,0.17018,-0.126615,-0.04824,3.24,2.46,-43.68,298.5062,-15.61,-26.589,994.2363,55.853256,37.469833,153.8606,NaN,,0.165,48.0,340.5932,8 / 10,,1516,2021-05-16 17:47:50:979
0.988836,0.921796,9.763853,4.262651,2.700681,8.408715,0.175678,-0.141886,-0.064733,3.72,2.28,-43.56,298.5062,-15.61,-26.589,994.2363,55.853256,37.469833,153.8606,NaN,,0.165,48.0,340.5932,8 / 10,,1527,2021-05-16 17:47:50:990
0.988836,0.921796,9.763853,4.262651,2.700681,8.408715,0.203167,-0.188923,-0.081838,3.72,2.28,-43.56,298.5062,-15.61,-26.589,994.2363,55.853256,37.469833,153.8606,NaN,,0.165,48.0,340.5932,8 / 10,,1535,2021-05-16 17:47:50:998
1.177983,0.955316,9.545974,4.277236,2.732422,8.391035,0.226991,-0.253064,-0.09039,2.58,2.46,-42.96,298.7038,-15.9854,-26.8819,994.2388,55.853256,37.469833,153.8606,NaN,,0.165,48.0,340.5932,8 / 10,,1546,2021-05-16 17:47:51:009
0.792505,1.053481,9.850046,4.277236,2.732422,8.391035,0.249593,-0.304987,-0.092833,2.58,2.46,-42.96,298.7038,-15.9854,-26.8819,994.2388,55.853256,37.469833,153.8606,NaN,,0.165,48.0,340.5932,8 / 10,,1556,2021-05-16 17:47:51:019
0.749408,0.955316,9.742304,4.305158,2.773854,8.363116,0.259367,-0.339196,-0.098331,2.34,2.16,-42.84,298.7038,-15.9854,-26.8819,994.2388,55.853256,37.469833,153.8606,NaN,,0.165,48.0,340.5932,8 / 10,,1566,2021-05-16 17:47:51:029
0.749408,0.955316,9.742304,4.305158,2.773854,8.363116,0.250204,-0.308652,-0.086114,2.34,2.16,-42.84,298.7038,-15.9854,-26.8819,994.2388,55.853256,37.469833,153.8606,NaN,,0.165,48.0,340.5932,8 / 10,,1576,2021-05-16 17:47:51:039
1.158829,1.02475,9.601042,4.34724,2.821528,8.325313,0.211108,-0.276887,-0.073896,3.0,1.68,-42.96,298.9139,-16.4306,-27.2385,994.2388,55.853256,37.469833,153.8606,NaN,,0.165,48.0,340.5932,8 / 10,,1585,2021-05-16 17:47:51:048
1.426988,1.003201,9.567522,4.34724,2.821528,8.325313,0.149411,-0.155325,-0.043964,3.0,1.68,-42.96,298.9139,-16.4306,-27.2385,994.2388,55.853256,37.469833,153.8606,NaN,,0.165,48.0,340.5932,8 / 10,,1596,2021-05-16 17:47:51:059
1.144463,0.976864,9.850046,4.38324,2.86139,8.292771,0.149411,-0.155325,-0.043964,2.94,1.44,-43.38,298.9139,-16.4306,-27.2385,994.2388,55.853256,37.469833,153.8606,NaN,,0.165,48.0,340.5932,8 / 10,,1606,2021-05-16 17:47:51:069
0.699128,0.852362,9.565128,4.38324,2.86139,8.292771,0.093211,-0.06675,-0.02686,2.94,1.44,-43.38,298.9139,-16.4306,-27.2385,994.2388,55.853256,37.469833,153.8606,NaN,,0.165,48.0,340.5932,8 / 10,,1616,2021-05-16 17:47:51:079
0.699128,0.852362,9.565128,4.389246,2.879878,8.283184,0.079161,-0.209692,0.00124,2.82,1.44,-43.32,297.1,-16.9646,-27.8592,994.2388,55.853256,37.469833,153.8606,NaN,,0.165,48.0,340.5932,8 / 10,,1626,2021-05-16 17:47:51:089
1.628107,0.931373,9.715967,4.389246,2.879878,8.283184,0.024794,-0.082021,0.01529,2.82,1.44,-43.32,297.1,-16.9646,-27.8592,994.2388,55.853256,37.469833,153.8606,NaN,,0.165,48.0,340.5932,8 / 10,,1636,2021-05-16 17:47:51:099
1.268966,1.098972,9.447808,4.41068,2.886996,8.269311,3.6E-4,-0.055754,0.004905,2.52,1.38,-43.38,297.1,-16.9646,-27.8592,994.2319,55.853256,37.469833,153.8606,NaN,,0.165,48.0,340.5932,8 / 10,,1645,2021-05-16 17:47:51:108
0.996018,1.127703,9.323306,4.41068,2.886996,8.269311,-0.002084,-0.052089,-0.023195,2.52,1.38,-43.38,297.1,-16.9646,-27.8592,994.2319,55.853256,37.469833,153.8606,NaN,,0.165,48.0,340.5932,8 / 10,,1656,2021-05-16 17:47:51:119
0.996018,1.127703,9.323306,4.413185,2.88427,8.268927,-0.047899,-0.011772,-0.020751,2.22,1.08,-43.74,298.3154,-17.1211,-28.0745,994.2319,55.853256,37.469833,153.8606,NaN,,0.165,48.0,340.5932,8 / 10,,1666,2021-05-16 17:47:51:129
1.278543,1.182772,9.641745,4.413185,2.88427,8.268927,-0.130365,0.103071,-0.010366,2.22,1.08,-43.74,298.3154,-17.1211,-28.0745,994.2319,55.853256,37.469833,153.8606,NaN,,0.165,48.0,340.5932,8 / 10,,1676,2021-05-16 17:47:51:139
1.137281,1.125309,9.301758,4.405005,2.871948,8.277573,-0.170072,0.109179,-0.032358,1.56,1.02,-43.2,298.3154,-17.1211,-28.0745,994.2319,55.853256,37.469833,153.8606,NaN,,0.165,48.0,340.5932,8 / 10,,1686,2021-05-16 17:47:51:149
0.938556,1.149252,9.579494,4.405005,2.871948,8.277573,-0.16213,0.093908,-0.031747,1.56,1.02,-43.2,298.3154,-17.1211,-28.0745,994.2319,55.853256,37.469833,153.8606,NaN,,0.165,48.0,340.5932,8 / 10,,1695,2021-05-16 17:47:51:158
1.082212,1.00799,9.545974,4.377618,2.843958,8.301731,-0.134641,0.001667,-0.04091,1.86,0.96,-42.6,298.2396,-17.0291,-28.0202,994.2319,55.853256,37.469833,153.8606,NaN,,0.165,48.0,340.5932,8 / 10,,1706,2021-05-16 17:47:51:169
1.082212,1.00799,9.545974,4.368878,2.83141,8.310619,-0.105931,-0.056365,-0.031747,1.92,1.2,-42.9,298.2396,-17.0291,-28.0202,994.2319,55.853256,37.469833,153.8606,NaN,,0.165,48.0,340.5932,8 / 10,,1715,2021-05-16 17:47:51:178
0.996018,1.177983,9.70639,4.368878,2.83141,8.310619,-0.085772,-0.072248,-0.042131,1.92,1.2,-42.9,298.2396,-17.0291,-28.0202,994.2319,55.853256,37.469833,153.8606,NaN,,0.165,48.0,340.5932,8 / 10,,1726,2021-05-16 17:47:51:189
1.010384,1.082212,9.799767,4.368416,2.813008,8.317108,-0.075387,-0.062474,-0.053738,2.22,1.74,-43.14,298.2396,-17.0291,-28.0202,994.2319,55.853256,37.469833,153.8606,NaN,,0.165,48.0,340.5932,8 / 10,,1735,2021-05-16 17:47:51:198
1.010384,1.082212,9.799767,4.368416,2.813008,8.317108,-0.075387,-0.062474,-0.053738,2.22,1.74,-43.14,298.2396,-17.0291,-28.0202,994.2236,55.853256,37.469833,153.8606,NaN,,0.165,48.0,340.5932,8 / 10,,1746,2021-05-16 17:47:51:209
1.177983,0.976864,10.077502,4.370487,2.801585,8.319875,-0.036903,0.022436,-0.082448,1.8,1.74,-43.38,300.0054,-16.6693,-27.7099,994.2236,55.853256,37.469833,153.8606,NaN,,0.165,48.0,340.5932,8 / 10,,1756,2021-05-16 17:47:51:219
1.448536,1.089395,10.601849,4.370487,2.801585,8.319875,-0.019799,0.36391,-0.047018,1.8,1.74,-43.38,300.0054,-16.6693,-27.7099,994.2236,55.853256,37.469833,153.8606,NaN,,0.165,48.0,340.5932,8 / 10,,1766,2021-05-16 17:47:51:229
0.718282,1.132492,9.615408,4.336757,2.802977,8.33704,0.01441,0.456762,-0.098331,1.8,1.32,-43.26,300.0054,-16.6693,-27.7099,994.2236,55.853256,37.469833,153.8606,NaN,,0.165,48.0,340.5932,8 / 10,,1776,2021-05-16 17:47:51:239
0.718282,1.132492,9.615408,4.336757,2.802977,8.33704,0.01441,0.456762,-0.098331,1.8,1.32,-43.26,300.0054,-16.6693,-27.7099,994.2236,55.853256,37.469833,153.8606,NaN,,0.165,48.0,340.5932,8 / 10,,1786,2021-05-16 17:47:51:249
0.718282,1.132492,9.615408,4.336757,2.802977,8.33704,0.01441,0.456762,-0.098331,1.8,1.32,-43.26,300.0054,-16.6693,-27.7099,994.2236,55.853256,37.469833,153.8606,NaN,,0.165,48.0,340.5932,8 / 10,,1796,2021-05-16 17:47:51:259
0.718282,1.132492,9.615408,4.336757,2.802977,8.33704,0.01441,0.456762,-0.098331,1.8,1.32,-43.26,300.0054,-16.6693,-27.7099,994.2236,55.853256,37.469833,153.8606,NaN,,0.165,48.0,340.5932,8 / 10,,1805,2021-05-16 17:47:51:268
0.718282,1.132492,9.615408,4.336757,2.802977,8.33704,0.01441,0.456762,-0.098331,1.8,1.32,-43.26,300.0054,-16.6693,-27.7099,994.2236,55.853256,37.469833,153.8606,NaN,,0.165,48.0,340.5932,8 / 10,,1816,2021-05-16 17:47:51:279
0.718282,1.132492,9.615408,4.336757,2.802977,8.33704,0.01441,0.456762,-0.098331,1.8,1.32,-43.26,300.0054,-16.6693,-27.7099,994.2236,55.853256,37.469833,153.8606,NaN,,0.165,48.0,340.5932,8 / 10,,1825,2021-05-16 17:47:51:288
0.718282,1.132492,9.615408,4.336757,2.802977,8.33704,0.01441,0.456762,-0.098331,1.8,1.32,-43.26,300.0054,-16.6693,-27.7099,994.2236,55.853256,37.469833,153.8606,NaN,,0.165,48.0,340.5932,8 / 10,,1836,2021-05-16 17:47:51:299
0.718282,1.132492,9.615408,4.336757,2.802977,8.33704,0.01441,0.456762,-0.098331,1.8,1.32,-43.26,300.0054,-16.6693,-27.7099,994.2236,55.853256,37.469833,153.8606,NaN,,0.165,48.0,340.5932,8 / 10,,1846,2021-05-16 17:47:51:309
0.718282,1.132492,9.615408,4.336757,2.802977,8.33704,0.01441,0.456762,-0.098331,1.8,1.32,-43.26,300.0054,-16.6693,-27.7099,994.2236,55.853256,37.469833,153.8606,NaN,,0.165,48.0,340.5932,8 / 10,,1856,2021-05-16 17:47:51:319
0.718282,1.132492,9.615408,4.336757,2.802977,8.33704,0.01441,0.456762,-0.098331,1.8,1.32,-43.26,300.0054,-16.6693,-27.7099,994.2236,55.853256,37.469833,153.8606,NaN,,0.165,48.0,340.5932,8 / 10,,1866,2021-05-16 17:47:51:329
0.718282,1.132492,9.615408,4.336757,2.802977,8.33704,0.01441,0.456762,-0.098331,1.8,1.32,-43.26,300.0054,-16.6693,-27.7099,994.2236,55.853256,37.469833,153.8606,NaN,,0.165,48.0,340.5932,8 / 10,,1875,2021-05-16 17:47:51:338
0.718282,1.132492,9.615408,4.336757,2.802977,8.33704,0.01441,0.456762,-0.098331,1.8,1.32,-43.26,300.0054,-16.6693,-27.7099,994.2236,55.853256,37.469833,153.8606,NaN,,0.165,48.0,340.5932,8 / 10,,1886,2021-05-16 17:47:51:349
0.718282,1.132492,9.615408,4.336757,2.802977,8.33704,0.01441,0.456762,-0.098331,1.8,1.32,-43.26,300.0054,-16.6693,-27.7099,994.2236,55.853256,37.469833,153.8606,NaN,,0.165,48.0,340.5932,8 / 10,,1896,2021-05-16 17:47:51:359
0.718282,1.132492,9.615408,4.336757,2.802977,8.33704,0.01441,0.456762,-0.098331,1.8,1.32,-43.26,300.0054,-16.6693,-27.7099,994.2236,55.853256,37.469833,153.8606,NaN,,0.165,48.0,340.5932,8 / 10,,1905,2021-05-16 17:47:51:368
0.718282,1.132492,9.615408,4.336757,2.802977,8.33704,0.01441,0.456762,-0.098331,1.8,1.32,-43.26,300.0054,-16.6693,-27.7099,994.2236,55.853256,37.469833,153.8606,NaN,,0.165,48.0,340.5932,8 / 10,,1916,2021-05-16 17:47:51:379
0.521952,1.108549,9.538791,4.287986,2.80296,8.362233,0.095655,0.316874,-0.095277,1.74,0.9,-43.14,298.2135,-16.6081,-27.4825,994.2307,55.853256,37.469833,153.8606,NaN,,0.165,48.0,340.5932,8 / 10,,1926,2021-05-16 17:47:51:389
0.521952,1.108549,9.538791,4.287986,2.80296,8.362233,0.095655,0.316874,-0.095277,1.74,0.9,-43.14,298.2135,-16.6081,-27.4825,994.2307,55.853256,37.469833,153.8606,NaN,,0.165,48.0,340.5932,8 / 10,,1936,2021-05-16 17:47:51:399
0.521952,1.108549,9.538791,4.287986,2.80296,8.362233,0.095655,0.316874,-0.095277,1.74,0.9,-43.14,298.2135,-16.6081,-27.4825,994.2307,55.853256,37.469833,153.8606,NaN,,0.165,48.0,340.5932,8 / 10,,1946,2021-05-16 17:47:51:409
0.474066,1.091789,9.636956,3.825583,2.876618,8.559225,-0.032016,0.055423,-0.064733,4.26,1.62,-42.78,298.2135,-16.6081,-27.4825,994.2307,55.853256,37.469833,153.8606,NaN,,0.165,48.0,340.5932,8 / 10,,1956,2021-05-16 17:47:51:419
0.474066,1.091789,9.636956,3.825583,2.876618,8.559225,-0.032016,0.055423,-0.064733,4.26,1.62,-42.78,298.2135,-16.6081,-27.4825,994.2307,55.853256,37.469833,153.8606,NaN,,0.165,48.0,340.5932,8 / 10,,1966,2021-05-16 17:47:51:429
0.550683,1.108549,9.464568,3.80303,2.868947,8.57184,-0.064392,0.005943,-0.031747,4.08,1.44,-43.26,299.4988,-17.0576,-24.0825,994.2307,55.853256,37.469833,153.8606,NaN,,0.165,48.0,340.5932,8 / 10,,1975,2021-05-16 17:47:51:438
0.641666,1.087001,9.715967,3.792452,2.841632,8.585615,-0.121202,-0.020324,-0.03419,3.36,1.5,-42.54,299.4988,-17.0576,-24.0825,994.2307,55.853268,37.46987,151.907,NaN,,0.0505,24.0,301.9167,8 / 10,,1987,2021-05-16 17:47:51:450
0.64406,1.096578,9.869201,3.792452,2.841632,8.585615,-0.121202,-0.020324,-0.03419,3.36,1.5,-42.54,299.4988,-17.0576,-24.0825,994.2307,55.853268,37.46987,151.907,NaN,,0.0505,24.0,301.9167,8 / 10,,1997,2021-05-16 17:47:51:460
0.64406,1.096578,9.869201,3.792452,2.841632,8.585615,-0.107152,-0.027654,-0.039077,3.36,1.5,-42.54,299.4988,-17.0576,-24.0825,994.2307,55.853268,37.46987,151.907,NaN,,0.0505,24.0,301.9167,8 / 10,,2006,2021-05-16 17:47:51:469
0.617723,1.036721,9.881172,3.788528,2.8217,8.593918,-0.095546,-0.036207,-0.037855,4.08,1.92,-42.84,301.409,-16.8439,-23.8321,994.2307,55.853268,37.46987,151.907,NaN,,0.0505,24.0,301.9167,8 / 10,,2016,2021-05-16 17:47:51:479
0.811659,1.213897,10.005674,3.78828,2.814809,8.596285,-0.077831,0.041984,-0.016475,3.84,2.04,-43.26,301.409,-16.8439,-23.8321,994.2307,55.853268,37.46987,151.907,NaN,,0.0505,24.0,301.9167,8 / 10,,2026,2021-05-16 17:47:51:489
0.811659,1.213897,10.005674,3.78828,2.814809,8.596285,-0.03507,-0.007496,-0.037244,3.84,2.04,-43.26,301.409,-16.8439,-23.8321,994.2307,55.853268,37.46987,151.907,NaN,,0.0505,24.0,301.9167,8 / 10,,2036,2021-05-16 17:47:51:499
0.371113,0.984047,9.692024,3.77382,2.80207,8.606802,-0.009414,-0.061863,-0.02014,3.78,2.52,-43.5,301.409,-16.8439,-23.8321,994.2268,55.853268,37.46987,151.907,NaN,,0.0505,24.0,301.9167,8 / 10,,2046,2021-05-16 17:47:51:509
0.509981,1.034327,9.90272,3.77382,2.80207,8.606802,0.007079,-0.071637,-0.032968,3.78,2.52,-43.5,301.409,-16.8439,-23.8321,994.2268,55.853268,37.46987,151.907,NaN,,0.0505,24.0,301.9167,8 / 10,,2055,2021-05-16 17:47:51:518
0.562655,1.039115,10.012857,3.776815,2.799594,8.606294,0.021129,-0.058198,-0.022584,3.9,2.46,-43.68,301.303,-16.6026,-23.676,994.2268,55.853268,37.46987,151.907,NaN,,0.0505,24.0,301.9167,8 / 10,,2066,2021-05-16 17:47:51:529
0.612934,1.015173,10.079897,3.776815,2.799594,8.606294,-0.003305,0.023047,0.00796,3.9,2.46,-43.68,301.303,-16.6026,-23.676,994.2268,55.853268,37.46987,151.907,NaN,,0.0505,24.0,301.9167,8 / 10,,2075,2021-05-16 17:47:51:538
0.270553,0.687157,9.912297,3.779995,2.800796,8.604506,-0.003305,0.023047,0.00796,4.38,1.68,-43.26,301.303,-16.6026,-23.676,994.2268,55.853268,37.46987,151.907,NaN,,0.0505,24.0,301.9167,8 / 10,,2086,2021-05-16 17:47:51:549
0.270553,0.687157,9.912297,3.779995,2.800796,8.604506,-0.007581,0.021826,0.091648,4.38,1.68,-43.26,301.303,-16.6026,-23.676,994.2268,55.853268,37.46987,151.907,NaN,,0.0505,24.0,301.9167,8 / 10,,2096,2021-05-16 17:47:51:559
0.847573,1.096578,9.972155,3.772584,2.79261,8.610416,-0.066225,0.125062,0.223595,4.08,1.68,-42.78,301.2179,-16.5948,-23.7161,994.2268,55.853268,37.46987,151.907,NaN,,0.0505,24.0,301.9167,8 / 10,,2106,2021-05-16 17:47:51:569
0.672791,1.127703,9.883567,3.772584,2.79261,8.610416,-0.103487,0.200809,0.211989,4.08,1.68,-42.78,301.2179,-16.5948,-23.7161,994.2268,55.853268,37.46987,151.907,NaN,,0.0505,24.0,301.9167,8 / 10,,2115,2021-05-16 17:47:51:578
0.275342,1.027144,9.73991,3.750668,2.758401,8.630994,-0.094935,0.193479,0.233369,3.9,2.22,-43.14,301.2179,-16.5948,-23.7161,994.2268,55.853268,37.46987,151.907,NaN,,0.0505,24.0,301.9167,8 / 10,,2126,2021-05-16 17:47:51:589
0.41421,1.048692,9.574705,3.750668,2.758401,8.630994,-0.079053,0.186759,0.25536,3.9,2.22,-43.14,301.2179,-16.5948,-23.7161,994.2268,55.853268,37.46987,151.907,NaN,,0.0505,24.0,301.9167,8 / 10,,2135,2021-05-16 17:47:51:598
0.41421,1.048692,9.574705,3.724718,2.721832,8.653811,-0.082718,0.181872,0.231536,3.84,2.04,-42.48,301.0896,-16.3365,-23.4877,994.238,55.853268,37.46987,151.907,NaN,,0.0505,24.0,301.9167,8 / 10,,2146,2021-05-16 17:47:51:609
0.404632,1.103761,9.483723,3.724718,2.721832,8.653811,-0.107763,0.178207,0.199771,3.84,2.04,-42.48,301.0896,-16.3365,-23.4877,994.238,55.853268,37.46987,151.907,NaN,,0.0505,24.0,301.9167,8 / 10,,2156,2021-05-16 17:47:51:619
0.356747,1.010384,9.481328,3.699171,2.686876,8.675665,-0.14747,0.179429,0.166785,4.5,1.5,-42.42,301.0896,-16.3365,-23.4877,994.238,55.853268,37.46987,151.907,NaN,,0.0505,24.0,301.9167,8 / 10,,2165,2021-05-16 17:47:51:628
0.272947,0.979258,9.620196,3.699171,2.686876,8.675665,-0.163352,0.161103,0.127689,4.5,1.5,-42.42,301.0896,-16.3365,-23.4877,994.238,55.853268,37.46987,151.907,NaN,,0.0505,24.0,301.9167,8 / 10,,2176,2021-05-16 17:47:51:639
0.299284,1.012778,9.897932,3.671474,2.646321,8.699862,-0.150524,0.112845,0.087372,4.92,1.44,-42.84,297.6843,-15.9015,-23.0927,994.238,55.853268,37.46987,151.907,NaN,,0.0505,24.0,301.9167,8 / 10,,2185,2021-05-16 17:47:51:648
0.107742,0.845179,9.785401,3.671474,2.646321,8.699862,-0.131587,0.117731,0.053164,4.92,1.44,-42.84,297.6843,-15.9015,-23.0927,994.238,55.853268,37.46987,151.907,NaN,,0.0505,24.0,301.9167,8 / 10,,2196,2021-05-16 17:47:51:659
0.107742,0.845179,9.785401,3.64907,2.613765,8.71911,-0.107152,0.090853,0.025675,4.98,1.68,-42.12,297.6843,-15.9015,-23.0927,994.238,55.853268,37.46987,151.907,NaN,,0.0505,24.0,301.9167,8 / 10,,2206,2021-05-16 17:47:51:669
0.126897,0.787716,9.821315,3.64907,2.613765,8.71911,-0.073555,0.06703,0.012236,4.98,1.68,-42.12,297.6843,-15.9015,-23.0927,994.238,55.853268,37.46987,151.907,NaN,,0.0505,24.0,301.9167,8 / 10,,2215,2021-05-16 17:47:51:678
0.110137,0.756591,9.730332,3.629471,2.592927,8.7335,-0.056451,0.026713,0.019566,5.4,2.22,-42.36,299.4084,-15.4579,-22.71,994.238,55.853268,37.46987,151.907,NaN,,0.0505,24.0,301.9167,8 / 10,,2226,2021-05-16 17:47:51:689
0.193936,0.804476,9.780613,3.629471,2.592927,8.7335,-0.041179,0.0035,0.024453,5.4,2.22,-42.36,299.4084,-15.4579,-22.71,994.238,55.853268,37.46987,151.907,NaN,,0.0505,24.0,301.9167,8 / 10,,2236,2021-05-16 17:47:51:699
0.328016,0.864333,9.857229,3.620747,2.579151,8.741198,-0.023464,-0.019713,0.025064,5.64,2.76,-42.48,299.4084,-15.4579,-22.71,994.2305,55.853268,37.46987,151.907,NaN,,0.0505,24.0,301.9167,8 / 10,,2246,2021-05-16 17:47:51:709
0.328016,0.864333,9.857229,3.620747,2.579151,8.741198,-0.014301,-0.016048,0.021399,5.64,2.76,-42.48,299.4084,-15.4579,-22.71,994.2305,55.853268,37.46987,151.907,NaN,,0.0505,24.0,301.9167,8 / 10,,2255,2021-05-16 17:47:51:718
0.395055,0.859545,9.900327,3.618737,2.57063,8.744538,-0.010025,-1.66E-4,0.018344,5.22,3.24,-42.3,301.3309,-15.2482,-22.5001,994.2305,55.853268,37.46987,151.907,NaN,,0.0505,24.0,301.9167,8 / 10,,2266,2021-05-16 17:47:51:729
0.399844,0.888276,9.747093,3.618737,2.57063,8.744538,-0.014912,0.015717,0.017733,5.22,3.24,-42.3,301.3309,-15.2482,-22.5001,994.2305,55.853268,37.46987,151.907,NaN,,0.0505,24.0,301.9167,8 / 10,,2276,2021-05-16 17:47:51:739
0.423787,0.893065,9.636956,3.612435,2.564671,8.748894,-0.036292,0.034654,0.011014,4.56,2.94,-42.42,301.3309,-15.2482,-22.5001,994.2305,55.853268,37.46987,151.907,NaN,,0.0505,24.0,301.9167,8 / 10,,2285,2021-05-16 17:47:51:748
0.423787,0.893065,9.636956,3.612435,2.564671,8.748894,-0.065614,0.050536,0.014068,4.56,2.94,-42.42,301.3309,-15.2482,-22.5001,994.2305,55.853268,37.46987,151.907,NaN,,0.0505,24.0,301.9167,8 / 10,,2296,2021-05-16 17:47:51:759
0.332804,0.888276,9.660899,3.600638,2.553604,8.756989,-0.085161,0.05298,0.01529,4.74,1.86,-42.3,299.29,-15.1605,-22.4358,994.2305,55.853268,37.46987,151.907,NaN,,0.0505,24.0,301.9167,8 / 10,,2305,2021-05-16 17:47:51:768
0.270553,0.876305,9.763853,3.600638,2.553604,8.756989,-0.088827,0.050536,0.017733,4.74,1.86,-42.3,299.29,-15.1605,-22.4358,994.2305,55.853268,37.46987,151.907,NaN,,0.0505,24.0,301.9167,8 / 10,,2316,2021-05-16 17:47:51:779
0.208302,0.782928,9.787795,3.585543,2.534923,8.768602,-0.068668,0.026102,0.033616,4.86,1.68,-41.94,299.29,-15.1605,-22.4358,994.2305,55.853268,37.46987,151.907,NaN,,0.0505,24.0,301.9167,8 / 10,,2325,2021-05-16 17:47:51:788
0.208302,0.782928,9.787795,3.585543,2.534923,8.768602,-0.053396,0.001056,0.045222,4.86,1.68,-41.94,299.29,-15.1605,-22.4358,994.2305,55.853268,37.46987,151.907,NaN,,0.0505,24.0,301.9167,8 / 10,,2336,2021-05-16 17:47:51:799
0.299284,0.768562,9.75667,3.575812,2.51748,8.777596,-0.056451,-0.01055,0.058051,4.5,2.04,-42.06,299.2447,-14.9805,-22.24,994.2339,55.853268,37.46987,151.907,NaN,,0.0505,24.0,301.9167,8 / 10,,2346,2021-05-16 17:47:51:809
0.428575,0.7111,9.72315,3.575812,2.51748,8.777596,-0.082107,-0.011772,0.075155,4.5,2.04,-42.06,299.2447,-14.9805,-22.24,994.2339,55.853268,37.46987,151.907,NaN,,0.0505,24.0,301.9167,8 / 10,,2356,2021-05-16 17:47:51:819
0.74462,0.881093,9.797373,3.574075,2.500428,8.783176,-0.11937,0.054812,0.080653,4.92,2.16,-42.72,299.2447,-14.9805,-22.24,994.2339,55.853268,37.46987,151.907,NaN,,0.0505,24.0,301.9167,8 / 10,,2366,2021-05-16 17:47:51:829
0.344776,0.782928,9.799767,3.574075,2.500428,8.783176,-0.138917,0.035265,0.107531,4.92,2.16,-42.72,299.2447,-14.9805,-22.24,994.2339,55.853268,37.46987,151.907,NaN,,0.0505,24.0,301.9167,8 / 10,,2376,2021-05-16 17:47:51:839
0.344776,0.782928,9.799767,3.565965,2.471449,8.794668,-0.138917,0.035265,0.107531,5.4,2.34,-43.32,299.1212,-14.772,-22.1425,994.2339,55.853268,37.46987,151.907,NaN,,0.0505,24.0,301.9167,8 / 10,,2385,2021-05-16 17:47:51:848
0.521952,0.969681,10.079897,3.565965,2.471449,8.794668,-0.130365,0.010219,0.09287,5.4,2.34,-43.32,299.1212,-14.772,-22.1425,994.2339,55.853268,37.46987,151.907,NaN,,0.0505,24.0,301.9167,8 / 10,,2396,2021-05-16 17:47:51:859
0.706311,1.106155,9.747093,3.561598,2.437732,8.805841,-0.090659,-0.008718,0.087372,4.98,2.82,-42.78,299.1212,-14.772,-22.1425,994.2339,55.853268,37.46987,151.907,NaN,,0.0505,24.0,301.9167,8 / 10,,2406,2021-05-16 17:47:51:869
0.706311,0.962499,9.885961,3.561598,2.437732,8.805841,-0.05584,-0.030709,0.045222,4.98,2.82,-42.78,299.1212,-14.772,-22.1425,994.2339,55.853268,37.46987,151.907,NaN,,0.0505,24.0,301.9167,8 / 10,,2415,2021-05-16 17:47:51:878
0.706311,0.962499,9.885961,3.563438,2.4168,8.810865,-0.025907,-0.052089,0.004905,5.28,2.82,-42.54,300.7482,-14.3935,-22.0213,994.2339,55.853268,37.46987,151.907,NaN,,0.0505,24.0,301.9167,8 / 10,,2426,2021-05-16 17:47:51:889
0.656031,0.897853,9.941029,3.563438,2.4168,8.810865,-0.031405,-0.039872,-0.013421,5.28,2.82,-42.54,300.7482,-14.3935,-22.0213,994.2339,55.853268,37.46987,151.907,NaN,,0.0505,24.0,301.9167,8 / 10,,2436,2021-05-16 17:47:51:899
0.596174,0.811659,10.034406,3.56531,2.40828,8.81244,-0.029573,-0.017881,-0.028692,5.64,2.58,-42.54,300.7482,-14.3935,-22.0213,994.2349,55.853268,37.46987,151.907,NaN,,0.0505,24.0,301.9167,8 / 10,,2446,2021-05-16 17:47:51:909
0.433364,0.761379,9.957788,3.56531,2.40828,8.81244,-0.016134,-0.011161,-0.040299,5.64,2.58,-42.54,300.7482,-14.3935,-22.0213,994.2349,55.853268,37.46987,151.907,NaN,,0.0505,24.0,301.9167,8 / 10,,2456,2021-05-16 17:47:51:919
0.36393,0.708705,9.840469,3.56235,2.402815,8.815128,-0.013079,-0.012994,-0.036634,5.58,2.94,-42.24,299.21,-14.2159,-22.0271,994.2349,55.853268,37.46987,151.907,NaN,,0.0505,24.0,301.9167,8 / 10,,2466,2021-05-16 17:47:51:929
0.36393,0.708705,9.840469,3.56235,2.402815,8.815128,-0.013079,-0.003831,-0.038466,5.58,2.94,-42.24,299.21,-14.2159,-22.0271,994.2349,55.853268,37.46987,151.907,NaN,,0.0505,24.0,301.9167,8 / 10,,2476,2021-05-16 17:47:51:939
0.311256,0.718282,9.72315,3.556653,2.400391,8.818089,-0.019188,-0.017881,-0.042742,4.98,3.06,-42.54,299.21,-14.2159,-22.0271,994.2349,55.853268,37.46987,151.907,NaN,,0.0505,24.0,301.9167,8 / 10,,2486,2021-05-16 17:47:51:949
0.249005,0.723071,9.699207,3.556653,2.400391,8.818089,-0.02102,-0.016659,-0.039688,4.98,3.06,-42.54,299.21,-14.2159,-22.0271,994.2349,55.853268,37.46987,151.907,NaN,,0.0505,24.0,301.9167,8 / 10,,2496,2021-05-16 17:47:51:959
0.249005,0.723071,9.699207,3.551038,2.397528,8.821131,-0.02102,-0.016659,-0.039688,4.68,2.82,-41.94,300.5143,-14.1511,-21.9278,994.2349,55.853268,37.46987,151.907,NaN,,0.0505,24.0,301.9167,8 / 10,,2506,2021-05-16 17:47:51:969
0.237033,0.603357,9.780613,3.551038,2.397528,8.821131,-0.02774,-0.016048,-0.022584,4.68,2.82,-41.94,300.5143,-14.1511,-21.9278,994.2349,55.853268,37.46987,151.907,NaN,,0.0505,24.0,301.9167,8 / 10,,2516,2021-05-16 17:47:51:979
0.174782,0.574626,9.747093,3.546405,2.392306,8.824411,-0.033849,0.001667,0.009792,5.1,3.18,-42.06,300.5143,-14.1511,-21.9278,994.2349,55.853268,37.46987,151.907,NaN,,0.0505,24.0,301.9167,8 / 10,,2526,2021-05-16 17:47:51:989
0.131685,0.569837,9.72315,3.546405,2.392306,8.824411,-0.044233,0.035876,0.055607,5.1,3.18,-42.06,300.5143,-14.1511,-21.9278,994.2349,55.853268,37.46987,151.907,NaN,,0.0505,24.0,301.9167,8 / 10,,2536,2021-05-16 17:47:51:999
0.088588,0.557866,9.670476,3.538609,2.380018,8.830863,-0.090659,0.084745,0.093481,5.28,3.24,-42.9,300.4811,-14.0456,-21.8364,994.2334,55.853268,37.46987,151.907,NaN,,0.0505,24.0,301.9167,8 / 10,,2546,2021-05-16 17:47:52:009
0.088588,0.557866,9.670476,3.538609,2.380018,8.830863,-0.121202,0.127505,0.115472,5.28,3.24,-42.9,300.4811,-14.0456,-21.8364,994.2334,55.853268,37.46987,151.907,NaN,,0.0505,24.0,301.9167,8 / 10,,2556,2021-05-16 17:47:52:019
0.337593,0.778139,9.713573,3.520611,2.352486,8.845422,-0.180456,0.114066,0.103865,5.28,3.24,-42.9,300.4811,-14.0456,-21.8364,994.2334,55.853268,37.46987,151.907,NaN,,0.0505,24.0,301.9167,8 / 10,,2566,2021-05-16 17:47:52:029
0.131685,0.545895,9.98652,3.520611,2.352486,8.845422,-0.151746,0.09574,0.089816,5.28,3.24,-42.9,300.4811,-14.0456,-21.8364,994.2334,55.853268,37.46987,151.907,NaN,,0.0505,24.0,301.9167,8 / 10,,2576,2021-05-16 17:47:52:039
0.131685,0.545895,9.98652,3.49996,2.311674,8.864356,-0.151746,0.09574,0.089816,4.8,3.24,-42.9,300.3957,-13.8799,-21.7033,994.2334,55.853268,37.46987,151.907,NaN,,0.0505,24.0,301.9167,8 / 10,,2586,2021-05-16 17:47:52:049
0.203513,0.502798,9.931452,3.49996,2.311674,8.864356,-0.047288,0.016939,0.039114,4.8,3.24,-42.9,300.3957,-13.8799,-21.7033,994.2334,55.853268,37.46987,151.907,NaN,,0.0505,24.0,301.9167,8 / 10,,2596,2021-05-16 17:47:52:059
0.277736,0.541106,9.840469,3.48779,2.290409,8.874666,0.009523,-0.084465,0.031172,4.44,3.24,-42.72,300.3957,-13.8799,-21.7033,994.2334,55.853268,37.46987,151.907,NaN,,0.0505,24.0,301.9167,8 / 10,,2606,2021-05-16 17:47:52:069
0.31365,0.545895,9.883567,3.48779,2.290409,8.874666,0.045564,-0.151049,0.014068,4.44,3.24,-42.72,300.3957,-13.8799,-21.7033,994.2334,55.853268,37.46987,151.907,NaN,,0.0505,24.0,301.9167,8 / 10,,2615,2021-05-16 17:47:52:078
0.31365,0.545895,9.883567,3.503633,2.29067,8.868357,0.072442,-0.177316,-5.93E-4,4.44,3.6,-42.06,303.4866,-13.5081,-21.5576,994.2334,55.853268,37.46987,151.907,NaN,,0.0505,24.0,301.9167,8 / 10,,2626,2021-05-16 17:47:52:089
0.392661,0.624906,9.787795,3.503633,2.29067,8.868357,0.07794,-0.177927,0.00124,4.44,3.6,-42.06,303.4866,-13.5081,-21.5576,994.2334,55.853268,37.46987,151.907,NaN,,0.0505,24.0,301.9167,8 / 10,,2636,2021-05-16 17:47:52:099
0.430969,0.672791,9.75667,3.528925,2.300699,8.855723,0.070609,-0.170597,-0.00609,4.98,3.54,-41.94,303.4866,-13.5081,-21.5576,994.2412,55.853268,37.46987,151.907,NaN,,0.0505,24.0,301.9167,8 / 10,,2646,2021-05-16 17:47:52:109
0.478855,0.72786,9.816526,3.528925,2.300699,8.855723,0.04984,-0.142497,-0.012199,4.98,3.54,-41.94,303.4866,-13.5081,-21.5576,994.2412,55.853268,37.46987,151.907,NaN,,0.0505,24.0,301.9167,8 / 10,,2656,2021-05-16 17:47:52:119
0.478855,0.72786,9.816526,3.55176,2.309661,8.844254,0.040677,-0.108289,-0.014032,5.52,3.72,-42.54,300.6564,-13.5684,-21.7268,994.2412,55.853268,37.46987,151.907,NaN,,0.0505,24.0,301.9167,8 / 10,,2665,2021-05-16 17:47:52:128
0.457306,0.706311,9.90272,3.55176,2.309661,8.844254,0.029681,-0.064306,-0.014642,5.52,3.72,-42.54,300.6564,-13.5684,-21.7268,994.2412,55.853268,37.46987,151.907,NaN,,0.0505,24.0,301.9167,8 / 10,,2675,2021-05-16 17:47:52:138
0.385478,0.632089,9.845258,3.563082,2.31492,8.838323,0.01441,-0.049035,-0.00609,5.34,3.66,-42.84,300.6564,-13.5684,-21.7268,994.2412,55.853268,37.46987,151.907,NaN,,0.0505,24.0,301.9167,8 / 10,,2686,2021-05-16 17:47:52:149
0.435758,0.629694,9.929058,3.563082,2.31492,8.838323,0.006468,-0.039261,0.002462,5.34,3.66,-42.84,300.6564,-13.5684,-21.7268,994.2412,55.853268,37.46987,151.907,NaN,,0.0505,24.0,301.9167,8 / 10,,2696,2021-05-16 17:47:52:159
0.435758,0.629694,9.929058,3.56604,2.315355,8.837016,0.005247,-0.012383,-5.93E-4,4.68,3.3,-42.66,299.851,-13.6539,-21.9563,994.2412,55.853268,37.46987,151.907,NaN,,0.0505,24.0,301.9167,8 / 10,,2706,2021-05-16 17:47:52:169
0.533923,0.679974,10.051166,3.56604,2.315355,8.837016,0.011355,0.008387,-0.010366,4.68,3.3,-42.66,299.851,-13.6539,-21.9563,994.2412,55.853268,37.46987,151.907,NaN,,0.0505,24.0,301.9167,8 / 10,,2715,2021-05-16 17:47:52:178
0.531529,0.641666,9.98652,3.563919,2.313109,8.83846,0.018075,0.021215,-0.011588,4.08,3.12,-42.18,299.851,-13.6539,-21.9563,994.2412,55.853268,37.46987,151.907,NaN,,0.0505,24.0,301.9167,8 / 10,,2726,2021-05-16 17:47:52:189
0.478855,0.64406,9.907509,3.563919,2.313109,8.83846,0.027238,0.021826,-0.007312,4.08,3.12,-42.18,299.851,-13.6539,-21.9563,994.2412,55.853268,37.46987,151.907,NaN,,0.0505,24.0,301.9167,8 / 10,,2736,2021-05-16 17:47:52:199
0.452518,0.612934,9.771035,3.554422,2.313884,8.842081,0.022351,0.016328,-0.003036,4.32,3.24,-42.42,301.1811,-13.643,-21.9607,994.2339,55.853268,37.46987,151.907,NaN,,0.0505,24.0,301.9167,8 / 10,,2745,2021-05-16 17:47:52:208
0.452518,0.612934,9.771035,3.554422,2.313884,8.842081,0.010745,0.021215,0.00796,4.32,3.24,-42.42,301.1811,-13.643,-21.9607,994.2339,55.853268,37.46987,151.907,NaN,,0.0505,24.0,301.9167,8 / 10,,2756,2021-05-16 17:47:52:219
0.486038,0.699128,9.804555,3.545283,2.315125,8.845425,-0.005138,0.031599,-0.003036,5.22,3.0,-42.54,301.1811,-13.643,-21.9607,994.2339,55.853268,37.46987,151.907,NaN,,0.0505,24.0,301.9167,8 / 10,,2766,2021-05-16 17:47:52:229
0.541106,0.761379,9.866806,3.545283,2.315125,8.845425,-0.001473,0.031599,-0.01281,5.22,3.0,-42.54,301.1811,-13.643,-21.9607,994.2339,55.853268,37.46987,151.907,NaN,,0.0505,24.0,301.9167,8 / 10,,2776,2021-05-16 17:47:52:239
0.471672,0.732648,9.984126,3.534416,2.312139,8.850552,0.023573,0.043817,-0.021973,5.28,3.06,-42.48,299.9548,-13.6551,-21.8411,994.2339,55.853268,37.46987,151.907,NaN,,0.0505,24.0,301.9167,8 / 10,,2785,2021-05-16 17:47:52:248
0.471672,0.732648,9.984126,3.534416,2.312139,8.850552,0.047396,0.052369,-0.017086,5.28,3.06,-42.48,299.9548,-13.6551,-21.8411,994.2339,55.853268,37.46987,151.907,NaN,,0.0505,24.0,301.9167,8 / 10,,2796,2021-05-16 17:47:52:259
0.320833,0.668003,9.759064,3.520342,2.313169,8.85589,0.05717,0.015717,-0.006701,4.62,3.36,-42.9,299.9548,-13.6551,-21.8411,994.2339,55.853268,37.46987,151.907,NaN,,0.0505,24.0,301.9167,8 / 10,,2806,2021-05-16 17:47:52:269
0.459701,0.658426,9.648928,3.520342,2.313169,8.85589,0.055338,-0.014826,-0.003647,4.62,3.36,-42.9,299.9548,-13.6551,-21.8411,994.2339,55.853268,37.46987,151.907,NaN,,0.0505,24.0,301.9167,8 / 10,,2816,2021-05-16 17:47:52:279
0.591386,0.758985,9.725544,3.509529,2.320453,8.858276,0.055338,-0.014826,-0.003647,4.56,3.06,-42.96,300.1082,-13.6434,-21.6785,994.2339,55.853268,37.46987,151.907,NaN,,0.0505,24.0,301.9167,8 / 10,,2825,2021-05-16 17:47:52:288
0.591386,0.758985,9.725544,3.508596,2.323874,8.857749,0.053505,-0.026433,-0.007923,4.74,3.18,-42.72,300.1082,-13.6434,-21.6785,994.2339,55.853268,37.46987,151.907,NaN,,0.0505,24.0,301.9167,8 / 10,,2836,2021-05-16 17:47:52:299
0.672791,0.809265,9.72315,3.508596,2.323874,8.857749,0.053505,-0.026433,-0.007923,4.74,3.18,-42.72,300.1082,-13.6434,-21.6785,994.2363,55.853268,37.46987,151.907,NaN,,0.0505,24.0,301.9167,8 / 10,,2847,2021-05-16 17:47:52:310
0.64406,0.775745,9.646533,3.506668,2.329658,8.856994,0.022962,-0.008718,-0.025027,4.92,3.18,-42.66,300.1082,-13.6434,-21.6785,994.2363,55.853268,37.46987,151.907,NaN,,0.0505,24.0,301.9167,8 / 10,,2856,2021-05-16 17:47:52:319
0.64406,0.775745,9.646533,3.502988,2.330472,8.858234,-0.023464,0.015106,-0.037244,4.86,3.24,-42.54,300.3172,-13.7425,-21.5996,994.2363,55.853268,37.46987,151.907,NaN,,0.0505,24.0,301.9167,8 / 10,,2866,2021-05-16 17:47:52:329
0.490826,0.766168,9.708784,3.502988,2.330472,8.858234,-0.052175,0.028545,-0.032968,4.86,3.24,-42.54,300.3172,-13.7425,-21.5996,994.2363,55.853268,37.46987,151.907,NaN,,0.0505,24.0,301.9167,8 / 10,,2875,2021-05-16 17:47:52:338
0.438152,0.737437,9.797373,3.215079,2.177697,9.005069,-0.067446,0.043817,-0.021973,4.86,3.3,-42.78,300.3172,-13.7425,-21.5996,994.2363,55.853268,37.46987,151.907,NaN,,0.0505,24.0,301.9167,8 / 10,,2886,2021-05-16 17:47:52:349
0.478855,0.737437,9.976943,3.215079,2.177697,9.005069,-0.066225,0.04626,-0.026249,4.86,3.3,-42.78,300.3172,-13.7425,-21.5996,994.2363,55.853268,37.46987,151.907,NaN,,0.0505,24.0,301.9167,8 / 10,,2897,2021-05-16 17:47:52:360
0.418998,0.687157,10.043983,2.946903,2.030499,9.130345,-0.049731,0.051758,-0.029914,5.34,3.48,-42.78,301.0607,-12.8302,-19.6481,994.2363,55.853268,37.46987,151.907,NaN,,0.0505,24.0,301.9167,8 / 10,,2906,2021-05-16 17:47:52:369
0.418998,0.687157,10.043983,2.946903,2.030499,9.130345,-0.028962,0.045649,-0.032358,5.34,3.48,-42.78,301.0607,-12.8302,-19.6481,994.2363,55.853268,37.46987,151.907,NaN,,0.0505,24.0,301.9167,8 / 10,,2915,2021-05-16 17:47:52:378
0.474066,0.675186,9.993703,2.93162,2.021075,9.137353,-0.00636,0.027323,-0.042131,4.98,2.88,-42.6,301.0607,-12.8302,-19.6481,994.2363,55.853268,37.46987,151.907,NaN,,0.0505,24.0,301.9167,8 / 10,,2926,2021-05-16 17:47:52:389
0.488432,0.670397,10.060742,2.93162,2.021075,9.137353,0.026627,0.016328,-0.051905,4.98,2.88,-42.6,301.0607,-12.8302,-19.6481,994.2363,55.853268,37.46987,151.907,NaN,,0.0505,24.0,301.9167,8 / 10,,2936,2021-05-16 17:47:52:399
0.452518,0.665608,9.991309,2.919865,2.019716,9.141417,0.059614,0.007776,-0.062901,4.92,2.46,-42.6,299.3899,-11.8935,-17.7883,994.2332,55.853268,37.46987,151.907,NaN,,0.0505,24.0,301.9167,8 / 10,,2946,2021-05-16 17:47:52:409
0.452518,0.665608,9.991309,2.919865,2.019716,9.141417,0.059614,0.007776,-0.062901,4.92,2.46,-42.6,299.3899,-11.8935,-17.7883,994.2332,55.853268,37.46987,151.907,NaN,,0.0505,24.0,301.9167,9 / 11,,2955,2021-05-16 17:47:52:418
0.390267,0.675186,9.761458,2.910509,2.031604,9.141767,0.079161,0.01755,-0.071453,5.22,3.36,-42.24,299.3899,-11.8935,-17.7883,994.2332,55.853268,37.469864,151.875,NaN,,0.0167,24.0,170.8034,9 / 11,,2966,2021-05-16 17:47:52:429
0.272947,0.636877,9.687236,2.910509,2.031604,9.141767,0.057781,0.025491,-0.067788,5.22,3.36,-42.24,299.3899,-11.8935,-17.7883,994.2332,55.853268,37.469864,151.875,NaN,,0.0167,24.0,170.8034,9 / 11,,2976,2021-05-16 17:47:52:439
0.179571,0.639271,9.703996,2.899595,2.046106,9.142001,0.033957,0.040152,-0.050683,5.22,3.6,-42.78,304.3641,-12.0429,-17.5976,994.2332,55.853268,37.469864,151.875,NaN,,0.0167,24.0,170.8034,9 / 11,,2985,2021-05-16 17:47:52:448
0.244216,0.648849,9.818921,2.899595,2.046106,9.142001,0.015631,0.045649,-0.032968,5.22,3.6,-42.78,304.3641,-12.0429,-17.5976,994.2332,55.853268,37.469864,151.875,NaN,,0.0167,24.0,170.8034,9 / 11,,2996,2021-05-16 17:47:52:459
0.244216,0.648849,9.818921,2.885265,2.051887,9.145238,0.01441,0.048704,-0.023195,5.16,3.18,-43.2,304.3641,-12.0429,-17.5976,994.2332,55.853268,37.469864,151.875,NaN,,0.0167,24.0,170.8034,9 / 11,,3005,2021-05-16 17:47:52:468
0.265765,0.656031,9.905115,2.885265,2.051887,9.145238,0.015021,0.048093,-0.014032,5.16,3.18,-43.2,304.3641,-12.0429,-17.5976,994.2332,55.853268,37.469864,151.875,NaN,,0.0167,24.0,170.8034,9 / 11,,3016,2021-05-16 17:47:52:479
0.390267,0.588992,9.950606,2.871343,2.053196,9.149324,0.008912,0.034654,-0.019529,5.46,2.94,-42.54,302.3134,-12.0775,-17.5102,994.2332,55.853268,37.469864,151.875,NaN,,0.0167,24.0,170.8034,9 / 11,,3026,2021-05-16 17:47:52:489
0.409421,0.562655,10.029617,2.865253,2.053452,9.151176,0.013799,0.02488,-0.023805,5.7,2.88,-42.36,302.3134,-12.0775,-17.5102,994.2332,55.853268,37.469864,151.875,NaN,,0.0167,24.0,170.8034,9 / 11,,3035,2021-05-16 17:47:52:498
0.409421,0.562655,10.029617,2.865253,2.053452,9.151176,0.013799,0.02488,-0.023805,5.7,2.88,-42.36,302.3134,-12.0775,-17.5102,994.2332,55.853268,37.469864,151.875,NaN,,0.0167,24.0,170.8034,9 / 11,,3046,2021-05-16 17:47:52:509
0.421392,0.57702,10.063137,2.860073,2.054061,9.15266,0.031514,0.0035,-0.028692,5.82,2.64,-42.18,302.3134,-12.0775,-17.5102,994.2363,55.853268,37.469864,151.875,NaN,,0.0167,24.0,170.8034,9 / 11,,3055,2021-05-16 17:47:52:518
0.36393,0.509981,10.012857,2.860073,2.054061,9.15266,0.069998,-0.03132,-0.040299,5.82,2.64,-42.18,302.3134,-12.0775,-17.5102,994.2363,55.853268,37.469864,151.875,NaN,,0.0167,24.0,170.8034,9 / 11,,3066,2021-05-16 17:47:52:529
0.308861,0.521952,9.864412,2.853681,2.064615,9.15228,0.096266,-0.042315,-0.032358,4.98,2.82,-42.42,302.4926,-12.0905,-17.3533,994.2363,55.853268,37.469864,151.875,NaN,,0.0167,24.0,170.8034,9 / 11,,3075,2021-05-16 17:47:52:538
0.308861,0.521952,9.864412,2.853527,2.07185,9.150693,0.112759,-0.04598,-0.02686,4.62,3.0,-42.54,302.4926,-12.0905,-17.3533,994.2363,55.853268,37.469864,151.875,NaN,,0.0167,24.0,170.8034,9 / 11,,3086,2021-05-16 17:47:52:549
0.24661,0.634483,9.689631,2.853527,2.07185,9.150693,0.112759,-0.04598,-0.02686,4.62,3.0,-42.54,302.4926,-12.0905,-17.3533,994.2363,55.853268,37.469864,151.875,NaN,,0.0167,24.0,170.8034,9 / 11,,3095,2021-05-16 17:47:52:558
0.287313,0.770957,9.500483,2.855219,2.09112,9.145782,0.120089,-0.028876,-0.015864,4.5,2.82,-42.3,302.4926,-12.0905,-17.3533,994.2363,55.853268,37.469864,151.875,NaN,,0.0167,24.0,170.8034,9 / 11,,3106,2021-05-16 17:47:52:569
0.361536,0.861939,9.361614,2.855219,2.09112,9.145782,0.07794,-0.001998,-0.00609,4.5,2.82,-42.3,302.4926,-12.0905,-17.3533,994.2363,55.853268,37.469864,151.875,NaN,,0.0167,24.0,170.8034,9 / 11,,3115,2021-05-16 17:47:52:578
0.361536,0.861939,9.361614,2.852648,2.106772,9.14299,0.032736,0.016328,-0.01281,5.34,3.06,-42.54,302.8729,-12.312,-17.3378,994.2363,55.853268,37.469864,151.875,NaN,,0.0167,24.0,170.8034,9 / 11,,3126,2021-05-16 17:47:52:589
0.356747,0.972076,9.313729,2.852648,2.106772,9.14299,-0.008803,0.032821,-0.020751,5.34,3.06,-42.54,302.8729,-12.312,-17.3378,994.2363,55.853268,37.469864,151.875,NaN,,0.0167,24.0,170.8034,9 / 11,,3136,2021-05-16 17:47:52:599
0.33041,0.986441,9.45978,2.842648,2.107312,9.145981,-0.051564,0.034043,-0.02686,5.16,2.76,-42.36,302.8729,-12.312,-17.3378,994.2363,55.853268,37.469864,151.875,NaN,,0.0167,24.0,170.8034,9 / 11,,3145,2021-05-16 17:47:52:608
0.33041,0.986441,9.45978,2.842648,2.107312,9.145981,-0.071722,0.04626,-0.021362,5.16,2.76,-42.36,302.8729,-12.312,-17.3378,994.2363,55.853268,37.469864,151.875,NaN,,0.0167,24.0,170.8034,9 / 11,,3156,2021-05-16 17:47:52:619
0.258582,0.998413,9.577099,2.830582,2.09689,9.152117,-0.090659,0.071917,-0.012199,5.1,2.58,-42.24,303.0782,-12.4088,-17.2657,994.2363,55.853268,37.469864,151.875,NaN,,0.0167,24.0,170.8034,9 / 11,,3166,2021-05-16 17:47:52:629
0.193936,0.90743,9.785401,2.830582,2.09689,9.152117,-0.105931,0.101238,0.005516,5.1,2.58,-42.24,303.0782,-12.4088,-17.2657,994.2363,55.853268,37.469864,151.875,NaN,,0.0167,24.0,170.8034,9 / 11,,3176,2021-05-16 17:47:52:639
0.193936,0.90743,9.785401,2.811746,2.078747,9.162056,-0.105931,0.101238,0.005516,5.04,2.4,-43.2,303.0782,-12.4088,-17.2657,994.2363,55.853268,37.469864,151.875,NaN,,0.0167,24.0,170.8034,9 / 11,,3186,2021-05-16 17:47:52:649
0.146051,0.811659,10.029617,2.811746,2.078747,9.162056,-0.103487,0.104292,0.013457,5.04,2.4,-43.2,303.0782,-12.4088,-17.2657,994.2363,55.853268,37.469864,151.875,NaN,,0.0167,24.0,170.8034,9 / 11,,3196,2021-05-16 17:47:52:659
0.284919,0.66082,10.269045,2.788689,2.057765,9.173832,-0.072944,0.085966,0.024453,5.28,3.24,-43.56,303.1136,-12.238,-17.0607,994.2363,55.853268,37.469864,151.875,NaN,,0.0167,24.0,170.8034,9 / 11,,3206,2021-05-16 17:47:52:669
0.33041,0.634483,10.30017,2.788689,2.057765,9.173832,-0.02041,0.041984,0.016512,5.28,3.24,-43.56,303.1136,-12.238,-17.0607,994.2363,55.853268,37.469864,151.875,NaN,,0.0167,24.0,170.8034,9 / 11,,3215,2021-05-16 17:47:52:678
0.366324,0.723071,10.168485,2.773667,2.046558,9.18089,0.037623,-0.004442,0.007349,5.7,3.6,-42.72,303.1136,-12.238,-17.0607,994.2363,55.853268,37.469864,151.875,NaN,,0.0167,24.0,170.8034,9 / 11,,3226,2021-05-16 17:47:52:689
0.366324,0.723071,10.168485,2.770962,2.047871,9.181414,0.07122,-0.022157,6.29E-4,5.16,3.12,-42.24,303.1136,-12.238,-17.0607,994.2363,55.853268,37.469864,151.875,NaN,,0.0167,24.0,170.8034,9 / 11,,3236,2021-05-16 17:47:52:699
0.277736,0.768562,9.960183,2.770962,2.047871,9.181414,0.095655,-0.021546,-0.001814,5.16,3.12,-42.24,303.1136,-12.238,-17.0607,994.2434,55.853268,37.469864,151.875,NaN,,0.0167,24.0,170.8034,9 / 11,,3246,2021-05-16 17:47:52:709
0.239427,0.799688,9.660899,2.77,2.060786,9.178814,0.076718,-0.025211,0.004294,5.88,2.82,-42.24,301.5281,-12.0535,-16.7939,994.2434,55.853268,37.469864,151.875,NaN,,0.0167,24.0,170.8034,9 / 11,,3256,2021-05-16 17:47:52:719
0.289707,0.763774,9.596253,2.77,2.060786,9.178814,0.046786,-0.023378,0.00796,5.88,2.82,-42.24,301.5281,-12.0535,-16.7939,994.2434,55.853268,37.469864,151.875,NaN,,0.0167,24.0,170.8034,9 / 11,,3266,2021-05-16 17:47:52:729
0.289707,0.763774,9.596253,2.769508,2.072367,9.176355,0.017464,-0.008718,0.005516,6.0,3.3,-43.08,301.5281,-12.0535,-16.7939,994.2434,55.853268,37.469864,151.875,NaN,,0.0167,24.0,170.8034,9 / 11,,3276,2021-05-16 17:47:52:739
0.392661,0.747014,9.840469,2.769356,2.073905,9.176053,0.024184,0.025491,1.8E-5,5.82,3.24,-42.96,301.5281,-12.0535,-16.7939,994.2434,55.853268,37.469864,151.875,NaN,,0.0167,24.0,170.8034,9 / 11,,3285,2021-05-16 17:47:52:748
0.325621,0.754197,9.797373,2.769356,2.073905,9.176053,0.044342,0.044428,0.00124,5.82,3.24,-42.96,301.5281,-12.0535,-16.7939,994.2434,55.853268,37.469864,151.875,NaN,,0.0167,24.0,170.8034,9 / 11,,3296,2021-05-16 17:47:52:759
0.287313,0.787716,9.512454,2.762202,2.074904,9.177983,0.044342,0.044428,0.00124,5.94,3.06,-42.24,301.7613,-12.2091,-16.7939,994.2434,55.853268,37.469864,151.875,NaN,,0.0167,24.0,170.8034,9 / 11,,3306,2021-05-16 17:47:52:769
0.287313,0.787716,9.512454,2.762202,2.074904,9.177983,0.062057,0.041373,0.009792,5.94,3.06,-42.24,301.7613,-12.2091,-16.7939,994.2434,55.853268,37.469864,151.875,NaN,,0.0167,24.0,170.8034,9 / 11,,3315,2021-05-16 17:47:52:778
0.289707,0.866728,9.234718,2.749927,2.082228,9.180011,0.055949,0.021215,0.019566,5.28,3.06,-42.18,301.7613,-12.2091,-16.7939,994.2434,55.853268,37.469864,151.875,NaN,,0.0167,24.0,170.8034,9 / 11,,3326,2021-05-16 17:47:52:789
0.306467,0.969681,9.086273,2.749927,2.082228,9.180011,0.020518,0.001667,0.018955,5.28,3.06,-42.18,301.7613,-12.2091,-16.7939,994.2434,55.853268,37.469864,151.875,NaN,,0.0167,24.0,170.8034,9 / 11,,3336,2021-05-16 17:47:52:799
0.378295,1.015173,9.261055,2.743939,2.085771,9.180999,-0.033849,-0.006274,0.013457,5.04,2.94,-42.66,303.6596,-12.28,-16.6399,994.2466,55.853268,37.469864,151.875,NaN,,0.0167,24.0,170.8034,9 / 11,,3346,2021-05-16 17:47:52:809
0.378295,1.015173,9.261055,2.743939,2.085771,9.180999,-0.095546,0.001667,0.011014,5.04,2.94,-42.66,303.6596,-12.28,-16.6399,994.2466,55.853268,37.469864,151.875,NaN,,0.0167,24.0,170.8034,9 / 11,,3356,2021-05-16 17:47:52:819
0.339987,0.979258,9.603436,2.740655,2.07285,9.184905,-0.132198,0.034043,0.007349,5.28,2.76,-42.6,303.6596,-12.28,-16.6399,994.2466,55.853268,37.469864,151.875,NaN,,0.0167,24.0,170.8034,9 / 11,,3366,2021-05-16 17:47:52:829
0.335198,0.809265,9.893144,2.740655,2.07285,9.184905,-0.134641,0.057867,0.011625,5.28,2.76,-42.6,303.6596,-12.28,-16.6399,994.2466,55.853268,37.469864,151.875,NaN,,0.0167,24.0,170.8034,9 / 11,,3375,2021-05-16 17:47:52:838
0.349564,0.730254,10.029617,2.72983,2.046049,9.194134,-0.110818,0.05298,0.016512,5.7,3.18,-43.02,302.0084,-12.2028,-16.6144,994.2466,55.853268,37.469864,151.875,NaN,,0.0167,24.0,170.8034,9 / 11,,3386,2021-05-16 17:47:52:849
0.478855,0.67758,10.067925,2.72983,2.046049,9.194134,-0.085772,0.033432,0.012236,5.7,3.18,-43.02,302.0084,-12.2028,-16.6144,994.2466,55.853268,37.469864,151.875,NaN,,0.0167,24.0,170.8034,9 / 11,,3396,2021-05-16 17:47:52:859
0.478855,0.67758,10.067925,2.71565,2.020476,9.203982,-0.085772,0.033432,0.012236,5.64,3.24,-43.5,302.0084,-12.2028,-16.6144,994.2466,55.853268,37.469864,151.875,NaN,,0.0167,24.0,170.8034,9 / 11,,3405,2021-05-16 17:47:52:868
0.495615,0.737437,10.046377,2.71565,2.020476,9.203982,-0.058894,0.024269,6.29E-4,5.64,3.24,-43.5,302.0084,-12.2028,-16.6144,994.2466,55.853268,37.469864,151.875,NaN,,0.0167,24.0,170.8034,9 / 11,,3416,2021-05-16 17:47:52:879
0.411815,0.804476,9.933846,2.706324,2.005214,9.210066,-0.04912,0.019993,-0.010977,5.4,3.3,-43.38,303.2951,-11.8899,-16.4388,994.2466,55.853268,37.469864,151.875,NaN,,0.0167,24.0,170.8034,9 / 11,,3426,2021-05-16 17:47:52:889
0.294496,0.876305,9.888355,2.706324,2.005214,9.210066,-0.044844,0.006554,-0.017697,5.4,3.3,-43.38,303.2951,-11.8899,-16.4388,994.2466,55.853268,37.469864,151.875,NaN,,0.0167,24.0,170.8034,9 / 11,,3435,2021-05-16 17:47:52:898
0.294496,0.876305,9.888355,2.698853,1.994653,9.214551,-0.047288,0.008387,-0.014032,6.0,3.6,-42.72,303.2951,-11.8899,-16.4388,994.2466,55.853268,37.469864,151.875,NaN,,0.0167,24.0,170.8034,9 / 11,,3446,2021-05-16 17:47:52:909
0.26337,0.909824,9.823709,2.698853,1.994653,9.214551,-0.052785,0.01816,-0.008534,6.24,3.42,-42.36,303.2951,-11.8899,-16.4388,994.2466,55.853268,37.469864,151.875,NaN,,0.0167,24.0,170.8034,9 / 11,,3456,2021-05-16 17:47:52:919
0.275342,0.87391,9.878778,2.691738,1.984117,9.218904,-0.077831,0.043206,-0.001814,6.24,3.42,-42.36,303.2951,-11.8899,-16.4388,994.2466,55.853268,37.469864,151.875,NaN,,0.0167,24.0,170.8034,9 / 11,,3465,2021-05-16 17:47:52:928
0.318439,0.782928,9.933846,2.691738,1.984117,9.218904,-0.077831,0.056034,-0.003036,5.52,3.42,-42.78,301.5796,-11.6729,-16.2768,994.2466,55.853268,37.469864,151.875,NaN,,0.0167,24.0,170.8034,9 / 11,,3475,2021-05-16 17:47:52:938
0.392661,0.689551,10.029617,2.6787,1.968168,9.226118,-0.063781,0.057867,-0.009145,5.52,3.42,-42.78,301.5796,-11.6729,-16.2768,994.2466,55.853268,37.469864,151.875,NaN,,0.0167,24.0,170.8034,9 / 11,,3486,2021-05-16 17:47:52:949
0.411815,0.646454,10.051166,2.6787,1.968168,9.226118,-0.050342,0.065808,-0.01281,5.4,3.42,-42.66,301.5796,-11.6729,-16.2768,994.2466,55.853268,37.469864,151.875,NaN,,0.0167,24.0,170.8034,9 / 11,,3496,2021-05-16 17:47:52:959
0.411815,0.646454,10.051166,2.662491,1.955505,9.2335,-0.02774,0.062143,-0.02014,5.4,3.42,-42.66,301.5796,-11.6729,-16.2768,994.2466,55.853268,37.469864,151.875,NaN,,0.0167,24.0,170.8034,9 / 11,,3505,2021-05-16 17:47:52:968
0.36393,0.682368,9.962578,2.662491,1.955505,9.2335,-0.019188,0.076193,-0.031747,5.52,3.72,-42.42,303.768,-11.5022,-16.085,994.2466,55.853268,37.469864,151.875,NaN,,0.0167,24.0,170.8034,9 / 11,,3516,2021-05-16 17:47:52:979
0.282524,0.701523,9.778218,2.645011,1.948937,9.23991,-0.027129,0.087799,-0.04091,5.28,3.3,-42.42,303.768,-11.5022,-16.085,994.2466,55.853268,37.469864,151.875,NaN,,0.0167,24.0,170.8034,9 / 11,,3526,2021-05-16 17:47:52:989
0.169994,0.730254,9.574705,2.645011,1.948937,9.23991,-0.038125,0.076193,-0.029914,5.28,3.3,-42.42,303.768,-11.5022,-16.085,994.2466,55.853268,37.469864,151.875,NaN,,0.0167,24.0,170.8034,9 / 11,,3536,2021-05-16 17:47:52:999
0.126897,0.754197,9.567522,2.623397,1.943288,9.247259,-0.058894,0.068862,-0.021973,5.28,3.3,-42.24,303.768,-11.5022,-16.085,994.2461,55.853268,37.469864,151.875,NaN,,0.0167,24.0,170.8034,9 / 11,,3546,2021-05-16 17:47:53:009
0.126897,0.754197,9.567522,2.623397,1.943288,9.247259,-0.079053,0.08169,-0.016475,5.28,3.3,-42.24,303.768,-11.5022,-16.085,994.2461,55.853268,37.469864,151.875,NaN,,0.0167,24.0,170.8034,9 / 11,,3556,2021-05-16 17:47:53:019
0.172388,0.751802,9.596253,2.60465,1.931386,9.255049,-0.096157,0.085966,-0.009145,5.94,2.94,-42.42,301.6475,-11.4294,-15.8383,994.2461,55.853268,37.469864,151.875,NaN,,0.0167,24.0,170.8034,9 / 11,,3566,2021-05-16 17:47:53:029
0.239427,0.668003,9.675264,2.60465,1.931386,9.255049,-0.101044,0.073749,-0.010366,5.94,2.94,-42.42,301.6475,-11.4294,-15.8383,994.2461,55.853268,37.469864,151.875,NaN,,0.0167,24.0,170.8034,9 / 11,,3576,2021-05-16 17:47:53:039
0.26337,0.620117,9.787795,2.358899,1.801536,9.346681,-0.094324,0.051147,-0.021973,5.58,2.58,-42.12,301.6475,-11.4294,-15.8383,994.2461,55.853268,37.469864,151.875,NaN,,0.0167,24.0,170.8034,9 / 11,,3586,2021-05-16 17:47:53:049
0.232245,0.6273,9.924269,2.358899,1.801536,9.346681,-0.072944,0.037708,-0.029303,5.58,2.58,-42.12,301.6475,-11.4294,-15.8383,994.2461,55.853268,37.469864,151.875,NaN,,0.0167,24.0,170.8034,9 / 11,,3596,2021-05-16 17:47:53:059
0.232245,0.6273,9.924269,1.955583,1.587257,9.477695,-0.072944,0.037708,-0.029303,5.28,2.82,-42.18,304.0075,-10.5857,-14.1644,994.2461,55.853268,37.469864,151.875,NaN,,0.0167,24.0,170.8034,9 / 11,,3606,2021-05-16 17:47:53:069
0.189148,0.57702,9.926663,1.955583,1.587257,9.477695,-0.04912,0.019993,-0.026249,5.28,2.82,-42.18,304.0075,-10.5857,-14.1644,994.2461,55.853268,37.469864,151.875,NaN,,0.0167,24.0,170.8034,9 / 11,,3615,2021-05-16 17:47:53:078
0.129291,0.617723,9.871595,1.627763,1.410591,9.567183,-0.033849,0.01816,-0.019529,5.88,2.94,-42.36,304.0075,-10.5857,-14.1644,994.2461,55.853268,37.469864,151.875,NaN,,0.0167,24.0,170.8034,9 / 11,,3626,2021-05-16 17:47:53:089
0.162811,0.670397,9.871595,1.627763,1.410591,9.567183,-0.030794,0.01816,-0.013421,5.88,2.94,-42.36,304.0075,-10.5857,-14.1644,994.2461,55.853268,37.469864,151.875,NaN,,0.0167,24.0,170.8034,9 / 11,,3636,2021-05-16 17:47:53:099
0.201119,0.64406,9.80695,1.356961,1.265246,9.629548,-0.030794,0.013273,-0.01281,6.0,3.3,-42.36,304.1164,-8.2701,-9.6559,994.2451,55.853268,37.469864,151.875,NaN,,0.0167,24.0,170.8034,9 / 11,,3646,2021-05-16 17:47:53:109
0.201119,0.64406,9.80695,1.356961,1.265246,9.629548,-0.041179,0.012663,-0.010977,6.0,3.3,-42.36,304.1164,-8.2701,-9.6559,994.2451,55.853268,37.469864,151.875,NaN,,0.0167,24.0,170.8034,9 / 11,,3655,2021-05-16 17:47:53:118
0.275342,0.617723,9.881172,1.136859,1.147074,9.672753,-0.043622,0.012663,-0.020751,6.06,3.36,-42.78,304.1164,-8.2701,-9.6559,994.2451,55.853268,37.469864,151.875,NaN,,0.0167,24.0,170.8034,9 / 11,,3666,2021-05-16 17:47:53:129
0.24661,0.624906,10.000886,1.136859,1.147074,9.672753,-0.040568,0.024269,-0.028081,6.06,3.36,-42.78,304.1164,-8.2701,-9.6559,994.2451,55.853268,37.469864,151.875,NaN,,0.0167,24.0,170.8034,9 / 11,,3676,2021-05-16 17:47:53:139
0.24661,0.57702,10.027223,0.960183,1.046158,9.703298,-0.022242,0.030378,-0.028081,6.66,3.0,-42.36,303.2183,-6.7172,-6.7033,994.2451,55.853268,37.469864,151.875,NaN,,0.0167,24.0,170.8034,9 / 11,,3686,2021-05-16 17:47:53:149
0.222668,0.584203,9.957788,0.960183,1.046158,9.703298,-0.008192,0.031599,-0.032968,6.66,3.0,-42.36,303.2183,-6.7172,-6.7033,994.2451,55.853268,37.469864,151.875,NaN,,0.0167,24.0,170.8034,9 / 11,,3697,2021-05-16 17:47:53:160
0.222668,0.584203,9.957788,0.815468,0.963429,9.725081,-0.002084,0.030989,-0.032968,6.48,3.12,-41.76,303.2183,-6.7172,-6.7033,994.2451,55.853268,37.469864,151.875,NaN,,0.0167,24.0,170.8034,9 / 11,,3706,2021-05-16 17:47:53:169
0.208302,0.598569,9.821315,0.815468,0.963429,9.725081,-0.002084,0.029767,-0.034801,6.48,3.12,-41.76,303.2183,-6.7172,-6.7033,994.2451,55.853268,37.469864,151.875,NaN,,0.0167,24.0,170.8034,9 / 11,,3716,2021-05-16 17:47:53:179
0.131685,0.641666,9.79019,0.695881,0.896917,9.740723,-0.008192,0.035876,-0.027471,6.0,3.42,-42.18,306.6047,-5.638,-4.7932,994.2451,55.853268,37.469864,151.875,NaN,,0.0167,24.0,170.8034,9 / 11,,3726,2021-05-16 17:47:53:189
0.150839,0.632089,9.737515,0.695881,0.896917,9.740723,-0.014301,0.032821,-0.028081,6.0,3.42,-42.18,306.6047,-5.638,-4.7932,994.2451,55.853268,37.469864,151.875,NaN,,0.0167,24.0,170.8034,9 / 11,,3736,2021-05-16 17:47:53:199
0.150839,0.632089,9.737515,0.595343,0.842922,9.752201,-0.028351,0.016328,-0.032358,6.18,3.12,-42.54,306.6047,-5.638,-4.7932,994.2451,55.853268,37.469864,151.875,NaN,,0.0167,24.0,170.8034,9 / 11,,3745,2021-05-16 17:47:53:208
0.268159,0.617723,9.751882,0.595343,0.842922,9.752201,-0.026518,0.018771,-0.042131,6.18,3.12,-42.54,306.6047,-5.638,-4.7932,994.2451,55.853268,37.469864,151.875,NaN,,0.0167,24.0,170.8034,9 / 11,,3755,2021-05-16 17:47:53:218
0.232245,0.624906,9.888355,0.551944,0.817249,9.756939,-0.025907,0.025491,-0.052516,6.36,3.18,-42.54,307.6702,-4.9309,-3.4934,994.2451,55.853268,37.469864,151.875,NaN,,0.0167,24.0,170.8034,9 / 11,,3766,2021-05-16 17:47:53:229
0.181965,0.569837,9.924269,0.551944,0.817249,9.756939,-0.025907,0.025491,-0.052516,6.36,3.18,-42.54,307.6702,-4.9309,-3.4934,994.2451,55.853268,37.469864,151.875,NaN,,0.0167,24.0,170.8034,9 / 11,,3776,2021-05-16 17:47:53:239
0.146051,0.56026,9.864412,0.481983,0.775722,9.764032,-0.012468,0.030378,-0.053738,6.12,3.6,-41.88,307.6702,-4.9309,-3.4934,994.2451,55.853268,37.469864,151.875,NaN,,0.0167,24.0,170.8034,9 / 11,,3786,2021-05-16 17:47:53:249
0.146051,0.56026,9.864412,0.481983,0.775722,9.764032,-0.003305,0.030989,-0.054349,6.12,3.6,-41.88,307.6702,-4.9309,-3.4934,994.2451,55.853268,37.469864,151.875,NaN,,0.0167,24.0,170.8034,9 / 11,,3795,2021-05-16 17:47:53:258
0.143657,0.581809,9.804555,0.421768,0.741617,9.769467,-8.62E-4,0.023658,-0.051905,6.24,3.36,-42.12,307.9364,-4.5369,-2.826,994.2451,55.853268,37.469864,151.875,NaN,,0.0167,24.0,170.8034,9 / 11,,3806,2021-05-16 17:47:53:269
0.162811,0.581809,9.73991,0.421768,0.741617,9.769467,0.001582,0.019993,-0.047018,6.24,3.36,-42.12,307.9364,-4.5369,-2.826,994.2451,55.853268,37.469864,151.875,NaN,,0.0167,24.0,170.8034,9 / 11,,3816,2021-05-16 17:47:53:279
0.205908,0.591386,9.821315,0.371993,0.71418,9.773533,-0.017355,0.016939,-0.053127,6.66,3.54,-42.42,307.9364,-4.5369,-2.826,994.2451,55.853268,37.469864,151.875,NaN,,0.0167,24.0,170.8034,9 / 11,,3826,2021-05-16 17:47:53:289
0.138868,0.591386,9.907509,0.371993,0.71418,9.773533,-0.02041,0.019382,-0.058625,6.66,3.54,-42.42,307.9364,-4.5369,-2.826,994.2451,55.853268,37.469864,151.875,NaN,,0.0167,24.0,170.8034,9 / 11,,3835,2021-05-16 17:47:53:298
0.138868,0.591386,9.907509,0.332278,0.689106,9.776764,-0.014301,0.022436,-0.058014,6.72,3.96,-42.12,309.2749,-4.1763,-2.1797,994.2385,55.853268,37.469864,151.875,NaN,,0.0167,24.0,170.8034,9 / 11,,3845,2021-05-16 17:47:53:308
0.119714,0.536318,9.917087,0.332278,0.689106,9.776764,-0.010636,0.011441,-0.059846,6.72,3.96,-42.12,309.2749,-4.1763,-2.1797,994.2385,55.853268,37.469864,151.875,NaN,,0.0167,24.0,170.8034,9 / 11,,3856,2021-05-16 17:47:53:319
0.062251,0.517163,9.996098,0.297857,0.666679,9.779428,0.00769,4.45E-4,-0.056181,6.12,3.96,-42.66,309.2749,-4.1763,-2.1797,994.2385,55.853268,37.469864,151.875,NaN,,0.0167,24.0,170.8034,9 / 11,,3865,2021-05-16 17:47:53:328
0.0838,0.531529,9.984126,0.297857,0.666679,9.779428,0.00769,4.45E-4,-0.056181,6.12,3.96,-42.66,309.2749,-4.1763,-2.1797,994.2385,55.853268,37.469864,151.875,NaN,,0.0167,24.0,170.8034,9 / 11,,3875,2021-05-16 17:47:53:338
0.10056,0.550683,9.91948,0.267519,0.648434,9.781531,0.048007,-0.019102,-0.056181,6.18,4.14,-42.66,313.3627,-3.8981,-1.7445,994.2385,55.853268,37.469864,151.875,NaN,,0.0167,24.0,170.8034,9 / 11,,3885,2021-05-16 17:47:53:348
0.095771,0.588992,9.802161,0.24208,0.638683,9.782836,0.056559,-0.002609,-0.060457,6.78,4.26,-41.52,313.3627,-3.8981,-1.7445,994.2385,55.853268,37.469864,151.875,NaN,,0.0167,24.0,170.8034,9 / 11,,3897,2021-05-16 17:47:53:360
0.095771,0.588992,9.802161,0.24208,0.638683,9.782836,0.046175,0.011441,-0.067788,6.78,4.26,-41.52,313.3627,-3.8981,-1.7445,994.2385,55.853268,37.469864,151.875,NaN,,0.0167,24.0,170.8034,9 / 11,,3906,2021-05-16 17:47:53:369
0.064645,0.579415,9.751882,0.24208,0.638683,9.782836,0.036401,0.020604,-0.06962,6.78,4.26,-41.52,313.3627,-3.8981,-1.7445,994.2385,55.853268,37.469864,151.875,NaN,,0.0167,24.0,170.8034,9 / 11,,3916,2021-05-16 17:47:53:379
0.057463,0.584203,9.771035,0.21539,0.632224,9.783879,0.036401,0.023047,-0.072064,6.78,3.78,-41.58,309.8786,-3.7342,-1.4175,994.2385,55.853268,37.469864,151.875,NaN,,0.0167,24.0,170.8034,9 / 11,,3926,2021-05-16 17:47:53:389
0.057463,0.584203,9.771035,0.21539,0.632224,9.783879,0.02846,0.03221,-0.058625,6.78,3.78,-41.58,309.8786,-3.7342,-1.4175,994.2385,55.853268,37.469864,151.875,NaN,,0.0167,24.0,170.8034,9 / 11,,3936,2021-05-16 17:47:53:399
0.011971,0.572232,9.713573,0.188183,0.626249,9.784824,0.02846,0.03221,-0.058625,6.48,3.6,-42.42,309.8786,-3.7342,-1.4175,994.2446,55.853268,37.469864,151.875,NaN,,0.0167,24.0,170.8034,9 / 11,,3946,2021-05-16 17:47:53:409
0.021548,0.574626,9.692024,0.188183,0.626249,9.784824,0.030292,0.027323,-0.047629,6.48,3.6,-42.42,309.8786,-3.7342,-1.4175,994.2446,55.853268,37.469864,151.875,NaN,,0.0167,24.0,170.8034,9 / 11,,3955,2021-05-16 17:47:53:418
0.021548,0.574626,9.692024,0.161177,0.621152,9.785631,0.016242,0.01083,-0.040299,5.76,3.36,-42.6,310.0222,-3.6614,-1.1018,994.2446,55.853268,37.469864,151.875,NaN,,0.0167,24.0,170.8034,9 / 11,,3966,2021-05-16 17:47:53:429
0.038308,0.574626,9.747093,0.161177,0.621152,9.785631,0.00769,0.013273,-0.034801,5.76,3.36,-42.6,310.0222,-3.6614,-1.1018,994.2446,55.853287,37.469822,156.5426,NaN,,0.0,16.0,,11 / 11,,3976,2021-05-16 17:47:53:439
0.098165,0.59378,9.847652,0.139844,0.614563,9.786375,0.001582,0.009608,-0.032358,6.0,3.0,-42.84,310.0222,-3.6614,-1.1018,994.2446,55.853287,37.469822,156.5426,NaN,,0.0,16.0,,11 / 11,,3985,2021-05-16 17:47:53:448
0.112531,0.617723,9.888355,0.139844,0.614563,9.786375,-0.001473,0.010219,-0.033579,6.0,3.0,-42.84,310.0222,-3.6614,-1.1018,994.2446,55.853287,37.469822,156.5426,NaN,,0.0,16.0,,11 / 11,,3996,2021-05-16 17:47:53:459
0.112531,0.617723,9.888355,0.125231,0.606414,9.787082,0.005247,0.014495,-0.036634,6.06,3.24,-42.84,310.6723,-3.593,-0.8187,994.2446,55.853287,37.469822,156.5426,NaN,,0.0,16.0,,11 / 11,,4005,2021-05-16 17:47:53:468
0.093377,0.622511,9.828498,0.125231,0.606414,9.787082,0.002803,0.01083,-0.036634,6.06,3.24,-42.84,310.6723,-3.593,-0.8187,994.2446,55.853287,37.469822,156.5426,NaN,,0.0,16.0,,11 / 11,,4016,2021-05-16 17:47:53:479
0.055068,0.586597,9.804555,0.114465,0.603949,9.787366,-0.008192,0.013884,-0.033579,6.12,3.36,-42.78,310.6723,-3.593,-0.8187,994.2446,55.853287,37.469822,156.5426,NaN,,0.0,16.0,,11 / 11,,4026,2021-05-16 17:47:53:489
-0.002394,0.545895,9.826104,0.114465,0.603949,9.787366,-0.021631,0.010219,-0.029303,6.12,3.36,-42.78,310.6723,-3.593,-0.8187,994.2446,55.853287,37.469822,156.5426,NaN,,0.0,16.0,,11 / 11,,4036,2021-05-16 17:47:53:499
0.026337,0.5435,9.945818,0.104009,0.598922,9.787792,-0.027129,0.013884,-0.029914,6.48,3.24,-42.66,310.9271,-3.5308,-0.6701,994.2446,55.853287,37.469822,156.5426,NaN,,0.0,16.0,,11 / 11,,4045,2021-05-16 17:47:53:508
0.026337,0.5435,9.945818,0.104009,0.598922,9.787792,-0.01369,0.010219,-0.028081,6.48,3.24,-42.66,310.9271,-3.5308,-0.6701,994.2446,55.853287,37.469822,156.5426,NaN,,0.0,16.0,,11 / 11,,4056,2021-05-16 17:47:53:519
0.040703,0.574626,9.945818,0.092053,0.589743,9.788468,0.004636,-0.002609,-0.027471,6.48,3.6,-42.42,310.9271,-3.5308,-0.6701,994.2446,55.853287,37.469822,156.5426,NaN,,0.0,16.0,,11 / 11,,4066,2021-05-16 17:47:53:529
0.102954,0.588992,9.857229,0.092053,0.589743,9.788468,0.026627,-0.025211,-0.028692,6.48,3.6,-42.42,310.9271,-3.5308,-0.6701,994.2446,55.853287,37.469822,156.5426,NaN,,0.0,16.0,,11 / 11,,4076,2021-05-16 17:47:53:539
0.122108,0.6273,9.852441,0.085388,0.587615,9.788657,0.034568,-0.036817,-0.029914,6.66,4.14,-42.0,311.379,-3.4477,-0.5388,994.2446,55.853287,37.469822,156.5426,NaN,,0.0,16.0,,11 / 11,,4086,2021-05-16 17:47:53:549
0.119714,0.653637,9.823709,0.085388,0.587615,9.788657,0.041288,-0.033763,-0.022584,6.66,4.14,-42.0,311.379,-3.4477,-0.5388,994.2446,55.853287,37.469822,156.5426,NaN,,0.0,16.0,,11 / 11,,4095,2021-05-16 17:47:53:558
0.119714,0.653637,9.823709,0.087438,0.592372,9.788352,0.037012,-0.022768,-0.021362,6.42,3.72,-42.0,311.379,-3.4477,-0.5388,994.2446,55.853287,37.469822,156.5426,NaN,,0.0,16.0,,11 / 11,,4106,2021-05-16 17:47:53:569
0.095771,0.646454,9.802161,0.087438,0.592372,9.788352,0.02846,-0.008718,-0.013421,6.42,3.72,-42.0,311.379,-3.4477,-0.5388,994.2446,55.853287,37.469822,156.5426,NaN,,0.0,16.0,,11 / 11,,4116,2021-05-16 17:47:53:579
0.126897,0.665608,9.79019,0.090309,0.600463,9.787833,0.02846,-0.008718,-0.013421,6.42,2.94,-42.42,310.9311,-3.4631,-0.5118,994.2446,55.853287,37.469822,156.5426,NaN,,0.0,16.0,,11 / 11,,4125,2021-05-16 17:47:53:588
0.122108,0.646454,9.780613,0.090309,0.600463,9.787833,0.009523,0.001056,-0.010977,6.42,2.94,-42.42,310.9311,-3.4631,-0.5118,994.2446,55.853287,37.469822,156.5426,NaN,,0.0,16.0,,11 / 11,,4136,2021-05-16 17:47:53:599
0.126897,0.641666,9.835681,0.091402,0.60581,9.787494,0.004636,0.015106,-0.014032,5.88,3.42,-42.42,310.9311,-3.4631,-0.5118,994.2419,55.853287,37.469822,156.5426,NaN,,0.0,16.0,,11 / 11,,4146,2021-05-16 17:47:53:609
0.126897,0.641666,9.835681,0.091402,0.60581,9.787494,0.004636,0.013884,-0.015864,5.88,3.42,-42.42,310.9311,-3.4631,-0.5118,994.2419,55.853287,37.469822,156.5426,NaN,,0.0,16.0,,11 / 11,,4156,2021-05-16 17:47:53:619
0.162811,0.624906,9.847652,0.091361,0.610094,9.787228,0.013188,0.012663,-0.018918,5.82,3.6,-42.18,315.8452,-3.5417,-0.5351,994.2419,55.853287,37.469822,156.5426,NaN,,0.0,16.0,,11 / 11,,4166,2021-05-16 17:47:53:629
0.107742,0.64406,9.75667,0.091361,0.610094,9.787228,0.010745,0.015717,-0.02014,5.82,3.6,-42.18,315.8452,-3.5417,-0.5351,994.2419,55.853287,37.469822,156.5426,NaN,,0.0,16.0,,11 / 11,,4176,2021-05-16 17:47:53:639
0.069434,0.653637,9.73991,0.093745,0.615526,9.786864,0.004025,0.012663,-0.018918,6.24,3.36,-42.48,315.8452,-3.5417,-0.5351,994.2419,55.853287,37.469822,156.5426,NaN,,0.0,16.0,,11 / 11,,4185,2021-05-16 17:47:53:648
0.069434,0.653637,9.73991,0.093745,0.615526,9.786864,-0.007581,0.020604,-0.011588,6.24,3.36,-42.48,315.8452,-3.5417,-0.5351,994.2419,55.853287,37.469822,156.5426,NaN,,0.0,16.0,,11 / 11,,4196,2021-05-16 17:47:53:659
0.150839,0.653637,9.814133,0.093698,0.61996,9.786586,-0.017966,0.026102,-0.013421,6.36,3.72,-42.18,315.9788,-3.5986,-0.5488,994.2419,55.853287,37.469822,156.5426,NaN,,0.0,16.0,,11 / 11,,4206,2021-05-16 17:47:53:669
0.174782,0.6273,9.921875,0.093698,0.61996,9.786586,-0.026518,0.016939,-0.018918,6.36,3.72,-42.18,315.9788,-3.5986,-0.5488,994.2419,55.853287,37.469822,156.5426,NaN,,0.0,16.0,,11 / 11,,4216,2021-05-16 17:47:53:679
0.129291,0.603357,9.996098,0.09419,0.619953,9.786581,-0.019799,0.01083,-0.019529,6.12,3.6,-41.94,315.9788,-3.5986,-0.5488,994.2419,55.853287,37.469822,156.5426,NaN,,0.0,16.0,,11 / 11,,4225,2021-05-16 17:47:53:688
0.129291,0.603357,9.996098,0.09419,0.619953,9.786581,-0.001473,0.008387,-0.020751,6.12,3.6,-41.94,315.9788,-3.5986,-0.5488,994.2419,55.853287,37.469822,156.5426,NaN,,0.0,16.0,,11 / 11,,4235,2021-05-16 17:47:53:698
0.110137,0.567443,9.948212,0.099711,0.619233,9.786572,0.015631,-1.66E-4,-0.017086,6.06,3.3,-42.18,311.2763,-3.6203,-0.5837,994.2473,55.853287,37.469822,156.5426,NaN,,0.0,16.0,,11 / 11,,4246,2021-05-16 17:47:53:709
0.102954,0.579415,9.890749,0.099711,0.619233,9.786572,0.027849,-0.011772,-0.014642,6.06,3.3,-42.18,311.2763,-3.6203,-0.5837,994.2473,55.853287,37.469822,156.5426,NaN,,0.0,16.0,,11 / 11,,4256,2021-05-16 17:47:53:719
0.112531,0.584203,9.821315,0.104937,0.620483,9.786439,0.032125,-0.022157,-0.002425,6.66,4.08,-42.3,311.2763,-3.6203,-0.5837,994.2473,55.853287,37.469822,156.5426,NaN,,0.0,16.0,,11 / 11,,4266,2021-05-16 17:47:53:729
0.112531,0.584203,9.821315,0.104937,0.620483,9.786439,0.037623,-0.029487,-0.004869,6.66,4.08,-42.3,311.2763,-3.6203,-0.5837,994.2473,55.853287,37.469822,156.5426,NaN,,0.0,16.0,,11 / 11,,4276,2021-05-16 17:47:53:739
0.153234,0.617723,9.737515,0.112438,0.622782,9.786209,0.032125,-0.039872,-0.00609,6.9,4.02,-42.0,311.7294,-3.6276,-0.6143,994.2473,55.853287,37.469822,156.5426,NaN,,0.0,16.0,,11 / 11,,4286,2021-05-16 17:47:53:749
0.169994,0.617723,9.689631,0.112438,0.622782,9.786209,0.027238,-0.050867,-0.012199,6.9,4.02,-42.0,311.7294,-3.6276,-0.6143,994.2473,55.853287,37.469822,156.5426,NaN,,0.0,16.0,,11 / 11,,4295,2021-05-16 17:47:53:758
0.181965,0.682368,9.759064,0.123346,0.625064,9.785933,0.024794,-0.03132,-0.015253,6.06,3.24,-42.06,311.7294,-3.6276,-0.6143,994.2473,55.853287,37.469822,156.5426,NaN,,0.0,16.0,,11 / 11,,4306,2021-05-16 17:47:53:769
0.110137,0.668003,9.763853,0.123346,0.625064,9.785933,0.025405,-0.023989,-0.013421,6.06,3.24,-42.06,311.7294,-3.6276,-0.6143,994.2473,55.853287,37.469822,156.5426,NaN,,0.0,16.0,,11 / 11,,4316,2021-05-16 17:47:53:779
0.110137,0.668003,9.763853,0.133785,0.629187,9.785531,0.025405,-0.023989,-0.013421,5.94,3.24,-42.3,310.9522,-3.6544,-0.7221,994.2473,55.853287,37.469822,156.5426,NaN,,0.0,16.0,,11 / 11,,4326,2021-05-16 17:47:53:789
0.148445,0.687157,9.730332,0.133785,0.629187,9.785531,0.013188,-0.015437,-0.014032,5.94,3.24,-42.3,310.9522,-3.6544,-0.7221,994.2473,55.853287,37.469822,156.5426,NaN,,0.0,16.0,,11 / 11,,4336,2021-05-16 17:47:53:799
0.167599,0.737437,9.778218,0.138514,0.633763,9.78517,0.009523,-0.012994,-0.013421,6.66,3.6,-42.12,310.9522,-3.6544,-0.7221,994.2473,55.853287,37.469822,156.5426,NaN,,0.0,16.0,,11 / 11,,4347,2021-05-16 17:47:53:810
0.098165,0.696734,9.816526,0.138514,0.633763,9.78517,0.002803,-0.006274,-0.01281,6.66,3.6,-42.12,310.9522,-3.6544,-0.7221,994.2473,55.853287,37.469822,156.5426,NaN,,0.0,16.0,,11 / 11,,4356,2021-05-16 17:47:53:819
0.112531,0.691945,9.804555,0.141154,0.639997,9.784726,-0.002695,0.006554,-0.00609,6.48,3.3,-42.48,310.8526,-3.7054,-0.811,994.2473,55.853287,37.469822,156.5426,NaN,,0.0,16.0,,11 / 11,,4366,2021-05-16 17:47:53:829
0.112531,0.691945,9.804555,0.141154,0.639997,9.784726,-0.012468,0.004721,-0.003647,6.48,3.3,-42.48,310.8526,-3.7054,-0.811,994.2473,55.853287,37.469822,156.5426,NaN,,0.0,16.0,,11 / 11,,4376,2021-05-16 17:47:53:839
0.215485,0.687157,9.869201,0.139353,0.644851,9.784433,-0.02041,0.005332,-0.008534,6.24,2.94,-42.96,310.8526,-3.7054,-0.811,994.2473,55.853287,37.469822,156.5426,NaN,,0.0,16.0,,11 / 11,,4385,2021-05-16 17:47:53:848
0.251399,0.620117,9.938635,0.139353,0.644851,9.784433,-0.02041,-0.004442,-0.016475,6.24,2.94,-42.96,310.8526,-3.7054,-0.811,994.2473,55.853287,37.469822,156.5426,NaN,,0.0,16.0,,11 / 11,,4395,2021-05-16 17:47:53:858
0.249005,0.624906,10.032011,0.141581,0.646253,9.784308,-0.00636,-0.008107,-0.023195,6.24,3.54,-42.36,315.6428,-3.7703,-0.816,994.2473,55.853287,37.469822,156.5426,NaN,,0.0,16.0,,11 / 11,,4406,2021-05-16 17:47:53:869
0.193936,0.596174,10.032011,0.141581,0.646253,9.784308,0.008301,-0.009329,-0.02686,6.24,3.54,-42.36,315.6428,-3.7703,-0.816,994.2473,55.853287,37.469822,156.5426,NaN,,0.0,16.0,,11 / 11,,4416,2021-05-16 17:47:53:879
0.193936,0.596174,10.032011,0.149786,0.645557,9.784232,0.008301,-0.009329,-0.02686,6.18,3.66,-41.46,315.6428,-3.7703,-0.816,994.2473,55.853287,37.469822,156.5426,NaN,,0.0,16.0,,11 / 11,,4426,2021-05-16 17:47:53:889
0.179571,0.620117,9.885961,0.149786,0.645557,9.784232,0.023573,-0.006274,-0.028081,6.18,3.66,-41.46,315.6428,-3.7703,-0.816,994.2473,55.853287,37.469822,156.5426,NaN,,0.0,16.0,,11 / 11,,4436,2021-05-16 17:47:53:899
0.203513,0.66082,9.768641,0.157055,0.646409,9.784061,0.026016,-0.014215,-0.023195,6.6,3.36,-41.88,306.9627,-3.7744,-0.8771,994.2507,55.853287,37.469822,156.5426,NaN,,0.0,16.0,,11 / 11,,4446,2021-05-16 17:47:53:909
0.181965,0.696734,9.787795,0.157055,0.646409,9.784061,0.019297,-0.016659,-0.021973,6.6,3.36,-41.88,306.9627,-3.7744,-0.8771,994.2507,55.853287,37.469822,156.5426,NaN,,0.0,16.0,,11 / 11,,4456,2021-05-16 17:47:53:919
0.184359,0.715888,9.768641,0.164988,0.648506,9.783793,0.013799,-0.006274,-0.019529,6.9,3.66,-42.18,306.9627,-3.7744,-0.8771,994.2507,55.853287,37.469822,156.5426,NaN,,0.0,16.0,,11 / 11,,4466,2021-05-16 17:47:53:929
0.184359,0.715888,9.768641,0.164988,0.648506,9.783793,0.016242,-0.012994,-0.015864,6.9,3.66,-42.18,306.9627,-3.7744,-0.8771,994.2507,55.853287,37.469822,156.5426,NaN,,0.0,16.0,,11 / 11,,4475,2021-05-16 17:47:53:938
0.193936,0.703917,9.747093,0.170777,0.652489,9.783429,0.01441,-0.01727,-0.018308,6.18,3.42,-42.0,310.6734,-3.7917,-0.9661,994.2507,55.853287,37.469822,156.5426,NaN,,0.0,16.0,,11 / 11,,4486,2021-05-16 17:47:53:949
0.225062,0.69434,9.794978,0.170777,0.652489,9.783429,0.011966,-0.018492,-0.016475,6.18,3.42,-42.0,310.6734,-3.7917,-0.9661,994.2507,55.853287,37.469822,156.5426,NaN,,0.0,16.0,,11 / 11,,4496,2021-05-16 17:47:53:959
0.203513,0.701523,9.838076,0.177749,0.657563,9.782965,0.011355,-0.022768,-0.017697,5.64,3.18,-42.48,310.6734,-3.7917,-0.9661,994.2507,55.853287,37.469822,156.5426,NaN,,0.0,16.0,,11 / 11,,4506,2021-05-16 17:47:53:969
0.193936,0.639271,9.840469,0.177749,0.657563,9.782965,0.018075,-0.028876,-0.017086,5.64,3.18,-42.48,310.6734,-3.7917,-0.9661,994.2507,55.853287,37.469822,156.5426,NaN,,0.0,16.0,,11 / 11,,4515,2021-05-16 17:47:53:978
0.193936,0.639271,9.840469,0.185466,0.663213,9.78244,0.019907,-0.034374,-0.021362,6.48,3.42,-42.72,310.8786,-3.8447,-1.0409,994.2507,55.853287,37.469822,156.5426,NaN,,0.0,16.0,,11 / 11,,4526,2021-05-16 17:47:53:989
0.198725,0.653637,9.890749,0.185466,0.663213,9.78244,0.019907,-0.030098,-0.019529,6.48,3.42,-42.72,310.8786,-3.8447,-1.0409,994.2507,55.853287,37.469822,156.5426,NaN,,0.0,16.0,,11 / 11,,4537,2021-05-16 17:47:54:000
0.165205,0.632089,9.845258,0.192697,0.667205,9.782029,0.017464,-0.026433,-0.020751,7.14,3.06,-42.12,310.8786,-3.8447,-1.0409,994.2476,55.853287,37.469822,156.5426,NaN,,0.0,16.0,,11 / 11,,4546,2021-05-16 17:47:54:009
0.102954,0.648849,9.862018,0.192697,0.667205,9.782029,0.009523,-0.019102,-0.025638,7.14,3.06,-42.12,310.8786,-3.8447,-1.0409,994.2476,55.853287,37.469822,156.5426,NaN,,0.0,16.0,,11 / 11,,4555,2021-05-16 17:47:54:018
0.102954,0.634483,9.830893,0.196294,0.667841,9.781915,0.005247,-1.66E-4,-0.023805,6.66,3.0,-42.12,306.7349,-3.9012,-1.1285,994.2476,55.853287,37.469822,156.5426,NaN,,0.0,16.0,,11 / 11,,4566,2021-05-16 17:47:54:029
0.102954,0.634483,9.830893,0.196294,0.667841,9.781915,0.005858,0.005943,-0.020751,6.66,3.0,-42.12,306.7349,-3.9012,-1.1285,994.2476,55.853287,37.469822,156.5426,NaN,,0.0,16.0,,11 / 11,,4576,2021-05-16 17:47:54:039
0.074223,0.672791,9.814133,0.190422,0.665884,9.782164,0.010745,0.004111,-0.021362,6.18,3.24,-41.94,306.7349,-3.9012,-1.1285,994.2476,55.853287,37.469822,156.5426,NaN,,0.0,16.0,,11 / 11,,4586,2021-05-16 17:47:54:049
0.098165,0.656031,9.689631,0.190422,0.665884,9.782164,0.010134,-0.00322,-0.017697,6.18,3.24,-41.94,306.7349,-3.9012,-1.1285,994.2476,55.853287,37.469822,156.5426,NaN,,0.0,16.0,,11 / 11,,4595,2021-05-16 17:47:54:058
0.107742,0.665608,9.682447,0.180907,0.665028,9.782402,0.005858,-0.009939,-0.017086,6.06,3.48,-42.24,310.5719,-3.8935,-1.1152,994.2476,55.853287,37.469822,156.5426,NaN,,0.0,16.0,,11 / 11,,4606,2021-05-16 17:47:54:069
0.110137,0.668003,9.684841,0.180907,0.665028,9.782402,0.001582,-0.006885,-0.015864,6.06,3.48,-42.24,310.5719,-3.8935,-1.1152,994.2476,55.853287,37.469822,156.5426,NaN,,0.0,16.0,,11 / 11,,4616,2021-05-16 17:47:54:079
0.148445,0.658426,9.718362,0.173739,0.664387,9.782576,-0.002084,-0.019102,-0.015864,6.06,3.66,-42.54,310.5719,-3.8935,-1.1152,994.2476,55.853287,37.469822,156.5426,NaN,,0.0,16.0,,11 / 11,,4625,2021-05-16 17:47:54:088
0.148445,0.658426,9.718362,0.173739,0.664387,9.782576,-0.008803,-0.01055,-0.017697,6.06,3.66,-42.54,310.5719,-3.8935,-1.1152,994.2476,55.853287,37.469822,156.5426,NaN,,0.0,16.0,,11 / 11,,4636,2021-05-16 17:47:54:099
0.150839,0.665608,9.720756,0.168805,0.664018,9.782688,-0.017355,-0.005663,-0.017086,6.06,3.24,-41.94,310.8432,-3.8847,-1.0175,994.2524,55.853287,37.469822,156.5426,NaN,,0.0,16.0,,11 / 11,,4646,2021-05-16 17:47:54:109
0.184359,0.69434,9.79019,0.168805,0.664018,9.782688,-0.014912,-0.003831,-0.018918,6.06,3.24,-41.94,310.8432,-3.8847,-1.0175,994.2524,55.853287,37.469822,156.5426,NaN,,0.0,16.0,,11 / 11,,4655,2021-05-16 17:47:54:118
0.146051,0.696734,9.857229,0.164196,0.662006,9.782902,-0.013079,0.002278,-0.017697,6.3,3.12,-42.18,310.8432,-3.8847,-1.0175,994.2524,55.853287,37.469822,156.5426,NaN,,0.0,16.0,,11 / 11,,4666,2021-05-16 17:47:54:129
0.136474,0.679974,9.842864,0.164196,0.662006,9.782902,-0.014912,0.016328,-0.017697,6.3,3.12,-42.18,310.8432,-3.8847,-1.0175,994.2524,55.853287,37.469822,156.5426,NaN,,0.0,16.0,,11 / 11,,4676,2021-05-16 17:47:54:139
0.136474,0.679974,9.842864,0.159398,0.661191,9.783036,-0.010636,0.006554,-0.015864,6.84,3.72,-42.3,311.5084,-3.8707,-0.9616,994.2524,55.853287,37.469822,156.5426,NaN,,0.0,16.0,,11 / 11,,4685,2021-05-16 17:47:54:148
0.131685,0.687157,9.873989,0.159398,0.661191,9.783036,-0.008803,-0.001998,-0.014642,6.84,3.72,-42.3,311.5084,-3.8707,-0.9616,994.2524,55.853287,37.469822,156.5426,NaN,,0.0,16.0,,11 / 11,,4695,2021-05-16 17:47:54:158
0.167599,0.691945,9.917087,0.154343,0.661318,9.783109,-0.002695,-0.01055,-0.020751,6.06,3.6,-42.06,311.5084,-3.8707,-0.9616,994.2524,55.853287,37.469822,156.5426,NaN,,0.0,16.0,,11 / 11,,4706,2021-05-16 17:47:54:169
0.172388,0.668003,9.981731,0.154343,0.661318,9.783109,0.002192,-0.014826,-0.02014,6.06,3.6,-42.06,311.5084,-3.8707,-0.9616,994.2524,55.853287,37.469822,156.5426,NaN,,0.0,16.0,,11 / 11,,4716,2021-05-16 17:47:54:179
0.105348,0.64406,9.972155,0.153921,0.662279,9.783051,0.015631,-0.005663,-0.015253,5.88,3.06,-42.18,311.1356,-3.8667,-0.9039,994.2524,55.853287,37.469822,156.5426,NaN,,0.0,16.0,,11 / 11,,4726,2021-05-16 17:47:54:189
0.105348,0.64406,9.972155,0.153921,0.662279,9.783051,0.024794,-0.007496,-0.007923,5.88,3.06,-42.18,311.1356,-3.8667,-0.9039,994.2524,55.853287,37.469822,156.5426,NaN,,0.0,16.0,,11 / 11,,4735,2021-05-16 17:47:54:198
0.062251,0.648849,9.866806,0.153532,0.664533,9.782904,0.026016,0.002278,-0.002425,6.54,2.82,-42.18,311.1356,-3.8667,-0.9039,994.2549,55.853287,37.469822,156.5426,NaN,,0.0,16.0,,11 / 11,,4746,2021-05-16 17:47:54:209
0.098165,0.668003,9.804555,0.153532,0.664533,9.782904,0.021129,0.007776,0.003073,6.54,2.82,-42.18,311.1356,-3.8667,-0.9039,994.2549,55.853287,37.469822,156.5426,NaN,,0.0,16.0,,11 / 11,,4756,2021-05-16 17:47:54:219
0.158022,0.715888,9.732727,0.149194,0.668218,9.78272,0.013188,0.012663,0.005516,6.36,3.24,-42.12,311.2171,-3.8855,-0.8991,994.2549,55.853287,37.469822,156.5426,NaN,,0.0,16.0,,11 / 11,,4766,2021-05-16 17:47:54:229
0.174782,0.701523,9.708784,0.149194,0.668218,9.78272,0.002803,0.008997,1.8E-5,6.36,3.24,-42.12,311.2171,-3.8855,-0.8991,994.2549,55.853287,37.469822,156.5426,NaN,,0.0,16.0,,11 / 11,,4776,2021-05-16 17:47:54:239
0.174782,0.701523,9.708784,0.144291,0.671897,9.782541,9.71E-4,-0.006274,1.8E-5,5.88,3.54,-42.18,311.2171,-3.8855,-0.8991,994.2549,55.853287,37.469822,156.5426,NaN,,0.0,16.0,,11 / 11,,4786,2021-05-16 17:47:54:249
0.136474,0.665608,9.778218,0.144291,0.671897,9.782541,0.004025,-0.009939,-0.002425,5.88,3.54,-42.18,311.2171,-3.8855,-0.8991,994.2549,55.853287,37.469822,156.5426,NaN,,0.0,16.0,,11 / 11,,4796,2021-05-16 17:47:54:259
0.184359,0.658426,9.79019,0.14373,0.672965,9.782476,0.011966,-0.028265,-0.00609,5.76,3.06,-42.12,311.5407,-3.9287,-0.845,994.2549,55.853287,37.469822,156.5426,NaN,,0.0,16.0,,11 / 11,,4806,2021-05-16 17:47:54:269
0.234639,0.691945,9.850046,0.14373,0.672965,9.782476,0.011966,-0.028265,-0.00609,5.76,3.06,-42.12,311.5407,-3.9287,-0.845,994.2549,55.853287,37.469822,156.5426,NaN,,0.0,16.0,,11 / 11,,4815,2021-05-16 17:47:54:278
0.201119,0.69434,9.816526,0.148549,0.674749,9.782282,0.020518,-0.034985,-0.015253,5.34,2.82,-42.06,311.5407,-3.9287,-0.845,994.2549,55.853287,37.469822,156.5426,NaN,,0.0,16.0,,11 / 11,,4826,2021-05-16 17:47:54:289
0.201119,0.69434,9.816526,0.148549,0.674749,9.782282,0.030292,-0.0246,-0.010977,5.34,2.82,-42.06,311.5407,-3.9287,-0.845,994.2549,55.853287,37.469822,156.5426,NaN,,0.0,16.0,,11 / 11,,4836,2021-05-16 17:47:54:299
0.086194,0.701523,9.687236,0.157292,0.67981,9.781795,0.033957,-0.014215,-5.93E-4,5.46,2.94,-42.24,316.1942,-3.9454,-0.87,994.2476,55.853287,37.469822,156.5426,NaN,,0.0,16.0,,11 / 11,,4846,2021-05-16 17:47:54:309
0.059857,0.735042,9.57231,0.158778,0.683067,9.781543,0.013188,0.002889,0.01529,5.46,2.94,-42.24,316.1942,-3.9454,-0.87,994.2476,55.853287,37.469822,156.5426,NaN,,0.0,16.0,,11 / 11,,4856,2021-05-16 17:47:54:319
0.112531,0.713494,9.596253,0.158778,0.683067,9.781543,-0.021631,0.015717,0.031172,6.18,2.7,-42.42,316.1942,-3.9454,-0.87,994.2476,55.853287,37.469822,156.5426,NaN,,0.0,16.0,,11 / 11,,4866,2021-05-16 17:47:54:329
0.208302,0.663214,9.783007,0.154063,0.685897,9.781421,-0.045455,0.007165,0.028118,6.18,2.7,-42.42,316.1942,-3.9454,-0.87,994.2476,55.853287,37.469822,156.5426,NaN,,0.0,16.0,,11 / 11,,4875,2021-05-16 17:47:54:338
0.22985,0.639271,9.976943,0.154063,0.685897,9.781421,-0.054618,0.004721,0.018344,6.42,2.94,-42.06,311.6462,-4.0107,-0.9024,994.2476,55.853287,37.469822,156.5426,NaN,,0.0,16.0,,11 / 11,,4886,2021-05-16 17:47:54:349
0.22985,0.639271,9.976943,0.149944,0.680546,9.781858,-0.032627,-1.66E-4,0.00796,6.42,2.94,-42.06,311.6462,-4.0107,-0.9024,994.2476,55.853287,37.469822,156.5426,NaN,,0.0,16.0,,11 / 11,,4896,2021-05-16 17:47:54:359
0.241822,0.656031,9.993703,0.150609,0.677157,9.782084,-0.005749,-0.013605,-0.001814,5.82,3.24,-41.64,311.6462,-4.0107,-0.9024,994.2476,55.853287,37.469822,156.5426,NaN,,0.0,16.0,,11 / 11,,4906,2021-05-16 17:47:54:369
0.222668,0.687157,9.881172,0.150609,0.677157,9.782084,0.019297,-0.027044,-0.008534,5.82,3.24,-41.64,311.6462,-4.0107,-0.9024,994.2476,55.853287,37.469822,156.5426,NaN,,0.0,16.0,,11 / 11,,4916,2021-05-16 17:47:54:379
0.222668,0.687157,9.881172,0.158542,0.676997,9.781969,0.018075,-0.014826,-0.003036,5.52,3.36,-41.7,311.5314,-3.9595,-0.8821,994.2476,55.853287,37.469822,156.5426,NaN,,0.0,16.0,,11 / 11,,4926,2021-05-16 17:47:54:389
0.124502,0.641666,9.720756,0.158542,0.676997,9.781969,-0.002084,-0.01055,0.009181,5.52,3.36,-41.7,311.5314,-3.9595,-0.8821,994.2476,55.853287,37.469822,156.5426,NaN,,0.0,16.0,,11 / 11,,4935,2021-05-16 17:47:54:398
0.119714,0.66082,9.732727,0.16521,0.678666,9.781743,-0.015523,-0.008107,0.018955,6.0,3.96,-41.52,311.5314,-3.9595,-0.8821,994.2561,55.853287,37.469822,156.5426,NaN,,0.0,16.0,,11 / 11,,4946,2021-05-16 17:47:54:409
0.167599,0.656031,9.883567,0.16521,0.678666,9.781743,-0.014301,0.001667,0.022009,6.0,3.96,-41.52,311.5314,-3.9595,-0.8821,994.2561,55.853287,37.469822,156.5426,NaN,,0.0,16.0,,11 / 11,,4956,2021-05-16 17:47:54:419
0.241822,0.67758,9.943423,0.166479,0.67426,9.782026,0.001582,4.45E-4,0.022009,6.0,3.84,-41.58,315.6622,-3.9425,-0.975,994.2561,55.853287,37.469822,156.5426,NaN,,0.0,16.0,,11 / 11,,4966,2021-05-16 17:47:54:429
0.241822,0.67758,9.943423,0.166479,0.67426,9.782026,0.015021,-0.01055,0.017733,6.0,3.84,-41.58,315.6622,-3.9425,-0.975,994.2561,55.853313,37.469784,167.6199,NaN,,0.0,12.0,,15 / 15,,4975,2021-05-16 17:47:54:438
0.294496,0.687157,9.90272,0.168135,0.672539,9.782117,0.021129,-0.004442,0.009792,6.42,3.96,-42.0,315.6622,-3.9425,-0.975,994.2561,55.853313,37.469784,167.6199,NaN,,0.0,12.0,,15 / 15,,4986,2021-05-16 17:47:54:449
0.260976,0.708705,9.835681,0.168135,0.672539,9.782117,0.030292,-0.008107,0.004905,6.42,3.96,-42.0,315.6622,-3.9425,-0.975,994.2561,55.853313,37.469784,167.6199,NaN,,0.0,12.0,,15 / 15,,4996,2021-05-16 17:47:54:459
0.241822,0.720677,9.703996,0.176632,0.675547,9.78176,0.018686,-0.001998,0.006127,6.84,4.02,-42.18,311.6309,-3.9324,-0.9847,994.2561,55.853313,37.469784,167.6199,NaN,,0.0,12.0,,15 / 15,,5006,2021-05-16 17:47:54:469
0.220273,0.715888,9.660899,0.176632,0.675547,9.78176,-0.001473,0.005943,0.007349,6.84,4.02,-42.18,311.6309,-3.9324,-0.9847,994.2561,55.853313,37.469784,167.6199,NaN,,0.0,12.0,,15 / 15,,5015,2021-05-16 17:47:54:478
0.220273,0.715888,9.660899,0.185376,0.680176,9.781278,-0.019799,0.012052,0.007349,6.54,3.66,-42.24,311.6309,-3.9324,-0.9847,994.2561,55.853313,37.469784,167.6199,NaN,,0.0,12.0,,15 / 15,,5026,2021-05-16 17:47:54:489
0.217879,0.682368,9.675264,0.185376,0.680176,9.781278,-0.038736,0.01816,0.006738,6.54,3.66,-42.24,311.6309,-3.9324,-0.9847,994.2561,55.853313,37.469784,167.6199,NaN,,0.0,12.0,,15 / 15,,5036,2021-05-16 17:47:54:499
0.232245,0.617723,9.833286,0.189987,0.679691,9.781222,-0.04179,0.020604,0.00796,6.36,3.96,-42.36,315.4196,-3.9771,-1.0857,994.2578,55.853313,37.469784,167.6199,NaN,,0.0,12.0,,15 / 15,,5046,2021-05-16 17:47:54:509
0.22985,0.608146,9.96976,0.189987,0.679691,9.781222,-0.030183,0.028545,0.006127,6.36,3.96,-42.36,315.4196,-3.9771,-1.0857,994.2578,55.853313,37.469784,167.6199,NaN,,0.0,12.0,,15 / 15,,5055,2021-05-16 17:47:54:518
0.234639,0.6273,10.022434,0.192916,0.672173,9.781685,-0.011247,0.025491,0.004294,6.0,4.26,-42.3,315.4196,-3.9771,-1.0857,994.2578,55.853313,37.469784,167.6199,NaN,,0.0,12.0,,15 / 15,,5066,2021-05-16 17:47:54:529
0.234639,0.6273,10.022434,0.192916,0.672173,9.781685,9.71E-4,0.018771,-0.002425,6.0,4.26,-42.3,315.4196,-3.9771,-1.0857,994.2578,55.853313,37.469784,167.6199,NaN,,0.0,12.0,,15 / 15,,5076,2021-05-16 17:47:54:539
0.232245,0.648849,9.933846,0.194316,0.665506,9.782112,0.011355,0.004111,-0.005479,6.0,4.26,-42.0,315.1411,-3.9303,-1.1299,994.2578,55.853313,37.469784,167.6199,NaN,,0.0,12.0,,15 / 15,,5086,2021-05-16 17:47:54:549
0.196331,0.651243,9.852441,0.194316,0.665506,9.782112,0.018075,-1.66E-4,-0.004258,6.0,4.26,-42.0,315.1411,-3.9303,-1.1299,994.2578,55.853313,37.469784,167.6199,NaN,,0.0,12.0,,15 / 15,,5095,2021-05-16 17:47:54:558
0.167599,0.668003,9.830893,0.198236,0.663462,9.782173,0.018686,-0.008107,0.001851,6.42,4.26,-41.88,315.1411,-3.9303,-1.1299,994.2578,55.853313,37.469784,167.6199,NaN,,0.0,12.0,,15 / 15,,5106,2021-05-16 17:47:54:569
0.167599,0.668003,9.830893,0.198236,0.663462,9.782173,0.017464,-0.006274,0.006738,6.42,4.26,-41.88,315.1411,-3.9303,-1.1299,994.2578,55.853313,37.469784,167.6199,NaN,,0.0,12.0,,15 / 15,,5116,2021-05-16 17:47:54:579
0.146051,0.679974,9.799767,0.200704,0.663307,9.782133,0.017464,0.005943,0.00796,6.06,3.9,-41.94,314.8901,-3.8793,-1.1609,994.2578,55.853313,37.469784,167.6199,NaN,,0.0,12.0,,15 / 15,,5126,2021-05-16 17:47:54:589
0.201119,0.687157,9.699207,0.200704,0.663307,9.782133,0.007079,-0.003831,0.006127,6.06,3.9,-41.94,314.8901,-3.8793,-1.1609,994.2578,55.853313,37.469784,167.6199,NaN,,0.0,12.0,,15 / 15,,5135,2021-05-16 17:47:54:598
0.201119,0.687157,9.699207,0.199924,0.664955,9.782037,-8.62E-4,4.45E-4,6.29E-4,5.82,3.6,-42.42,314.8901,-3.8793,-1.1609,994.2437,55.853313,37.469784,167.6199,NaN,,0.0,12.0,,15 / 15,,5145,2021-05-16 17:47:54:608
0.234639,0.706311,9.680053,0.199924,0.664955,9.782037,-0.011247,-0.001387,-0.003036,5.82,3.6,-42.42,314.8901,-3.8793,-1.1609,994.2437,55.853313,37.469784,167.6199,NaN,,0.0,12.0,,15 / 15,,5155,2021-05-16 17:47:54:618
0.256187,0.708705,9.73991,0.200846,0.666648,9.781903,-0.011247,-0.001387,-0.003036,5.52,3.42,-42.78,310.6251,-3.888,-1.1708,994.2437,55.853313,37.469784,167.6199,NaN,,0.0,12.0,,15 / 15,,5166,2021-05-16 17:47:54:629
0.232245,0.701523,9.775824,0.200846,0.666648,9.781903,-0.013079,-0.00322,-0.004869,5.52,3.42,-42.78,310.6251,-3.888,-1.1708,994.2437,55.853313,37.469784,167.6199,NaN,,0.0,12.0,,15 / 15,,5176,2021-05-16 17:47:54:639
0.232245,0.701523,9.775824,0.204461,0.667885,9.781744,-0.008192,-0.005052,-0.003647,5.7,3.24,-42.72,310.6251,-3.888,-1.1708,994.2437,55.853313,37.469784,167.6199,NaN,,0.0,12.0,,15 / 15,,5186,2021-05-16 17:47:54:649
0.198725,0.687157,9.809344,0.204461,0.667885,9.781744,-0.005138,-0.006885,-0.004258,5.7,3.24,-42.72,310.6251,-3.888,-1.1708,994.2437,55.853313,37.469784,167.6199,NaN,,0.0,12.0,,15 / 15,,5195,2021-05-16 17:47:54:658
0.210696,0.675186,9.864412,0.207677,0.670127,9.781523,-0.005138,-0.019102,-0.001814,6.24,3.6,-42.48,314.8562,-3.9052,-1.1974,994.2437,55.853313,37.469784,167.6199,NaN,,0.0,12.0,,15 / 15,,5206,2021-05-16 17:47:54:669
0.181965,0.641666,9.955395,0.207677,0.670127,9.781523,0.002803,-0.011161,1.8E-5,6.24,3.6,-42.48,314.8562,-3.9052,-1.1974,994.2437,55.853313,37.469784,167.6199,NaN,,0.0,12.0,,15 / 15,,5216,2021-05-16 17:47:54:679
0.181965,0.641666,9.955395,0.211678,0.671661,9.781332,0.008912,-0.01055,-5.93E-4,6.36,3.0,-42.3,314.8562,-3.9052,-1.1974,994.2437,55.853313,37.469784,167.6199,NaN,,0.0,12.0,,15 / 15,,5226,2021-05-16 17:47:54:689
0.174782,0.648849,9.945818,0.211678,0.671661,9.781332,0.022351,-0.009329,0.00124,6.36,3.0,-42.3,314.8562,-3.9052,-1.1974,994.2437,55.853313,37.469784,167.6199,NaN,,0.0,12.0,,15 / 15,,5236,2021-05-16 17:47:54:699
0.181965,0.622511,9.857229,0.212106,0.67358,9.78119,0.022351,-0.009329,0.00124,6.06,2.7,-42.72,310.5506,-3.9273,-1.2397,994.2522,55.853313,37.469784,167.6199,NaN,,0.0,12.0,,15 / 15,,5245,2021-05-16 17:47:54:708
0.208302,0.636877,9.838076,0.212106,0.67358,9.78119,0.018686,-0.001387,0.004905,6.06,2.7,-42.72,310.5506,-3.9273,-1.2397,994.2522,55.853313,37.469784,167.6199,NaN,,0.0,12.0,,15 / 15,,5256,2021-05-16 17:47:54:719
0.220273,0.641666,9.785401,0.210151,0.67425,9.781187,0.006468,0.008997,-0.005479,5.76,3.36,-43.02,310.5506,-3.9273,-1.2397,994.2522,55.853313,37.469784,167.6199,NaN,,0.0,12.0,,15 / 15,,5266,2021-05-16 17:47:54:729
0.220273,0.641666,9.785401,0.210151,0.67425,9.781187,0.001582,0.002278,-0.007312,5.76,3.36,-43.02,310.5506,-3.9273,-1.2397,994.2522,55.853313,37.469784,167.6199,NaN,,0.0,12.0,,15 / 15,,5276,2021-05-16 17:47:54:739
0.165205,0.670397,9.80695,0.208312,0.671625,9.781406,0.004025,0.004721,-0.00609,5.46,3.3,-42.54,315.0907,-3.9424,-1.2308,994.2522,55.853313,37.469784,167.6199,NaN,,0.0,12.0,,15 / 15,,5286,2021-05-16 17:47:54:749
0.136474,0.689551,9.725544,0.208312,0.671625,9.781406,0.005247,0.008387,-0.001203,5.46,3.3,-42.54,315.0907,-3.9424,-1.2308,994.2522,55.853313,37.469784,167.6199,NaN,,0.0,12.0,,15 / 15,,5296,2021-05-16 17:47:54:759
0.146051,0.69434,9.70639,0.204365,0.670348,9.781577,-0.010025,0.009608,0.004905,5.1,3.48,-42.66,315.0907,-3.9424,-1.2308,994.2522,55.853313,37.469784,167.6199,NaN,,0.0,12.0,,15 / 15,,5306,2021-05-16 17:47:54:769
0.141262,0.703917,9.814133,0.204365,0.670348,9.781577,-0.016134,0.012052,0.009792,5.1,3.48,-42.66,315.0907,-3.9424,-1.2308,994.2522,55.853313,37.469784,167.6199,NaN,,0.0,12.0,,15 / 15,,5316,2021-05-16 17:47:54:779
0.141262,0.703917,9.814133,0.198072,0.668803,9.781813,-0.016134,0.013884,0.011625,5.34,3.66,-42.42,319.4956,-3.9105,-1.16,994.2522,55.853313,37.469784,167.6199,NaN,,0.0,12.0,,15 / 15,,5326,2021-05-16 17:47:54:789
0.177176,0.66082,9.885961,0.198072,0.668803,9.781813,-0.011858,0.012052,0.013457,5.34,3.66,-42.42,319.4956,-3.9105,-1.16,994.2522,55.853313,37.469784,167.6199,NaN,,0.0,12.0,,15 / 15,,5336,2021-05-16 17:47:54:799
0.198725,0.670397,9.972155,0.191804,0.666633,9.782085,3.6E-4,0.005332,0.011625,5.34,3.0,-42.36,319.4956,-3.9105,-1.16,994.251,55.853313,37.469784,167.6199,NaN,,0.0,12.0,,15 / 15,,5346,2021-05-16 17:47:54:809
0.210696,0.672791,9.93624,0.191804,0.666633,9.782085,0.015631,0.0035,0.009792,5.34,3.0,-42.36,319.4956,-3.9105,-1.16,994.251,55.853313,37.469784,167.6199,NaN,,0.0,12.0,,15 / 15,,5356,2021-05-16 17:47:54:819
0.210696,0.672791,9.93624,0.188541,0.667101,9.782117,0.027849,-0.003831,0.003073,5.4,3.0,-42.42,315.0909,-3.8978,-1.1233,994.251,55.853313,37.469784,167.6199,NaN,,0.0,12.0,,15 / 15,,5366,2021-05-16 17:47:54:829
0.172388,0.679974,9.866806,0.188428,0.669522,9.781954,0.026627,0.004721,0.004905,5.76,2.94,-42.24,315.0909,-3.8978,-1.1233,994.251,55.853313,37.469784,167.6199,NaN,,0.0,12.0,,15 / 15,,5375,2021-05-16 17:47:54:838
0.21309,0.691945,9.79019,0.188428,0.669522,9.781954,0.016853,0.006554,0.003073,5.76,2.94,-42.24,315.0909,-3.8978,-1.1233,994.251,55.853313,37.469784,167.6199,NaN,,0.0,12.0,,15 / 15,,5385,2021-05-16 17:47:54:848
0.193936,0.684763,9.780613,0.187215,0.674206,9.781655,0.016853,0.006554,0.003073,6.06,2.94,-42.78,315.0909,-3.8978,-1.1233,994.251,55.853313,37.469784,167.6199,NaN,,0.0,12.0,,15 / 15,,5396,2021-05-16 17:47:54:859
0.193936,0.684763,9.780613,0.187215,0.674206,9.781655,0.00769,0.012663,0.003073,6.06,2.94,-42.78,315.0909,-3.8978,-1.1233,994.251,55.853313,37.469784,167.6199,NaN,,0.0,12.0,,15 / 15,,5406,2021-05-16 17:47:54:869
0.160416,0.670397,9.783007,0.18576,0.675956,9.781563,0.005247,0.022436,0.007349,6.48,3.18,-42.54,311.051,-3.9422,-1.0965,994.251,55.853313,37.469784,167.6199,NaN,,0.0,12.0,,15 / 15,,5416,2021-05-16 17:47:54:879
0.143657,0.66082,9.814133,0.18576,0.675956,9.781563,0.005858,0.018771,0.006738,6.48,3.18,-42.54,311.051,-3.9422,-1.0965,994.251,55.853313,37.469784,167.6199,NaN,,0.0,12.0,,15 / 15,,5425,2021-05-16 17:47:54:888
0.181965,0.672791,9.818921,0.181835,0.677022,9.781563,0.002192,0.022436,0.006127,6.12,3.54,-42.54,311.051,-3.9422,-1.0965,994.251,55.853313,37.469784,167.6199,NaN,,0.0,12.0,,15 / 15,,5435,2021-05-16 17:47:54:898
0.222668,0.665608,9.859624,0.179152,0.677115,9.781606,9.71E-4,0.027323,0.009181,5.76,3.54,-42.66,311.051,-3.9422,-1.0965,994.2471,55.853313,37.469784,167.6199,NaN,,0.0,12.0,,15 / 15,,5446,2021-05-16 17:47:54:909
0.222668,0.665608,9.859624,0.179152,0.677115,9.781606,-0.002695,0.030378,0.003073,5.76,3.54,-42.66,311.051,-3.9422,-1.0965,994.2471,55.853313,37.469784,167.6199,NaN,,0.0,12.0,,15 / 15,,5456,2021-05-16 17:47:54:919
0.179571,0.69434,9.869201,0.174671,0.67657,9.781724,0.011966,0.023047,0.001851,5.28,3.78,-42.72,320.2299,-3.9592,-1.0493,994.2471,55.853313,37.469784,167.6199,NaN,,0.0,12.0,,15 / 15,,5466,2021-05-16 17:47:54:929
0.165205,0.672791,9.881172,0.174671,0.67657,9.781724,0.022351,0.01816,6.29E-4,5.28,3.78,-42.72,320.2299,-3.9592,-1.0493,994.2471,55.853313,37.469784,167.6199,NaN,,0.0,12.0,,15 / 15,,5476,2021-05-16 17:47:54:939
0.148445,0.672791,9.80695,0.171231,0.677861,9.781695,0.030292,0.007165,6.29E-4,5.52,4.02,-42.24,320.2299,-3.9592,-1.0493,994.2471,55.853313,37.469784,167.6199,NaN,,0.0,12.0,,15 / 15,,5486,2021-05-16 17:47:54:949
0.148445,0.672791,9.80695,0.170229,0.679542,9.781596,0.030292,0.007165,6.29E-4,5.58,3.84,-42.48,320.2299,-3.9592,-1.0493,994.2471,55.853313,37.469784,167.6199,NaN,,0.0,12.0,,15 / 15,,5496,2021-05-16 17:47:54:959
0.143657,0.684763,9.838076,0.16965,0.681207,9.781491,0.030292,0.005943,0.001851,5.58,3.84,-42.48,320.2299,-3.9592,-1.0493,994.2471,55.853313,37.469784,167.6199,NaN,,0.0,12.0,,15 / 15,,5506,2021-05-16 17:47:54:969
0.162811,0.672791,9.792584,0.16965,0.681207,9.781491,0.030903,4.45E-4,0.002462,5.7,3.36,-42.78,311.5226,-3.9832,-0.9936,994.2471,55.853313,37.469784,167.6199,NaN,,0.0,12.0,,15 / 15,,5516,2021-05-16 17:47:54:979
0.143657,0.672791,9.804555,0.167697,0.685446,9.781229,0.026627,-0.001387,-5.93E-4,5.58,3.18,-42.72,311.5226,-3.9832,-0.9936,994.2471,55.853313,37.469784,167.6199,NaN,,0.0,12.0,,15 / 15,,5526,2021-05-16 17:47:54:989
0.112531,0.656031,9.895537,0.167697,0.685446,9.781229,0.024794,-0.008107,0.00124,5.58,3.18,-42.72,311.5226,-3.9832,-0.9936,994.2471,55.853313,37.469784,167.6199,NaN,,0.0,12.0,,15 / 15,,5536,2021-05-16 17:47:54:999
0.112531,0.656031,9.895537,0.165761,0.687567,9.781113,0.030903,0.001056,0.009792,5.76,2.94,-43.02,311.5226,-3.9832,-0.9936,994.24,55.853313,37.469784,167.6199,NaN,,0.0,12.0,,15 / 15,,5547,2021-05-16 17:47:55:010
0.062251,0.679974,9.897932,0.165761,0.687567,9.781113,0.04312,-0.003831,0.010403,5.76,2.94,-43.02,311.5226,-3.9832,-0.9936,994.24,55.853313,37.469784,167.6199,NaN,,0.0,12.0,,15 / 15,,5556,2021-05-16 17:47:55:019
0.134079,0.66082,9.859624,0.160271,0.690011,9.781032,0.04984,-0.012383,0.011625,5.82,3.12,-42.24,311.4644,-4.0204,-0.9709,994.24,55.853313,37.469784,167.6199,NaN,,0.0,12.0,,15 / 15,,5567,2021-05-16 17:47:55:030
0.126897,0.74462,9.799767,0.160271,0.690011,9.781032,0.051672,-0.011161,0.009792,5.82,3.12,-42.24,311.4644,-4.0204,-0.9709,994.24,55.853313,37.469784,167.6199,NaN,,0.0,12.0,,15 / 15,,5576,2021-05-16 17:47:55:039
0.134079,0.718282,9.749487,0.156487,0.695219,9.780725,0.046175,-0.016659,0.009792,6.0,3.0,-41.34,311.4644,-4.0204,-0.9709,994.24,55.853313,37.469784,167.6199,NaN,,0.0,12.0,,15 / 15,,5586,2021-05-16 17:47:55:049
