ACCELEROMETER X (m/s²),ACCELEROMETER Y (m/s²),ACCELEROMETER Z (m/s²),GYROSCOPE X (rad/s),GYROSCOPE Y (rad/s),GYROSCOPE Z (rad/s),MAGNETIC FIELD X (μT),MAGNETIC FIELD Y (μT),MAGNETIC FIELD Z (μT),ORIENTATION Z (azimuth °),ORIENTATION X (pitch °),ORIENTATION Y (roll °),LOCATION Latitude : ,LOCATION Longitude : ,LOCATION Altitude ( m),LOCATION Speed ( m/s),Time since start in ms 
0.304073,0.90743,9.818921,-0.01369,-0.037428,-0.035412,-11.04,-23.4,-39.72,152.5659,-5.1257,-1.3924,55.85471,37.46927,186.1261,0.1032,26
0.304073,0.90743,9.818921,-0.01369,-0.037428,-0.035412,-10.74,-23.52,-39.54,152.5659,-5.1257,-1.3924,55.85471,37.46927,186.1261,0.1032,36
0.201119,0.871516,9.737515,-0.000251,-0.04537,-0.047629,-10.74,-23.52,-39.54,152.5659,-5.1257,-1.3924,55.85471,37.46927,186.1261,0.1032,46
0.167599,0.876305,9.77343,-0.005138,-0.058198,-0.054349,-11.22,-22.8,-38.76,152.7584,-5.069,-1.4509,55.85471,37.46927,186.1261,0.1032,56
0.167599,0.876305,9.77343,-0.025907,-0.041094,-0.054349,-11.22,-22.8,-38.76,152.7584,-5.069,-1.4509,55.85471,37.46927,186.1261,0.1032,67
0.112531,0.835602,9.850046,-0.038125,-0.034985,-0.052516,-10.86,-22.98,-38.58,152.7584,-5.069,-1.4509,55.85471,37.46927,186.1261,0.1032,76
0.107742,0.751802,9.981731,-0.047899,-0.012383,-0.035412,-10.86,-22.98,-38.58,152.7584,-5.069,-1.4509,55.85471,37.46927,186.1261,0.1032,87
0.193936,0.658426,10.048771,-0.055229,0.000445,-0.02014,-10.56,-23.16,-38.7,152.9296,-5.0443,-1.5458,55.85471,37.46927,186.1261,0.1032,96
0.253793,0.639271,10.180456,-0.046066,0.01755,-0.004258,-10.56,-23.16,-38.7,152.9296,-5.0443,-1.5458,55.85471,37.46927,186.1261,0.1032,106
0.253793,0.639271,10.180456,-0.016134,0.042595,0.009792,-10.98,-22.62,-39.3,152.9296,-5.0443,-1.5458,55.854706,37.469345,176.2834,0,116
0.354353,0.668003,10.008069,-0.008192,0.046871,0.011014,-10.98,-22.62,-39.3,152.9296,-5.0443,-1.5458,55.854706,37.469345,176.2834,0,125
0.36393,0.735042,9.802161,-0.005749,0.035265,0.004294,-11.4,-22.2,-38.64,151.7372,-4.8648,-1.4722,55.854706,37.469345,176.2834,0,136
0.335198,0.730254,9.737515,-0.007581,0.028545,0.001851,-11.46,-22.2,-38.4,151.7372,-4.8648,-1.4722,55.854706,37.469345,176.2834,0,146
0.335198,0.730254,9.737515,-0.007581,0.0035,-0.004258,-11.46,-22.2,-38.4,151.7372,-4.8648,-1.4722,55.854706,37.469345,176.2834,0,155
0.402238,0.708705,9.768641,0.009523,0.004111,-0.010366,-11.34,-21.78,-37.86,151.7372,-4.8648,-1.4722,55.854706,37.469345,176.2834,0,166
0.368718,0.737437,9.775824,0.018075,-0.001387,-0.017697,-11.34,-21.78,-37.86,151.7372,-4.8648,-1.4722,55.854706,37.469345,176.2834,0,177
0.277736,0.770957,9.663293,0.032736,-0.005663,-0.01281,-11.34,-22.32,-38.88,151.669,-4.7253,-1.3507,55.854706,37.469345,176.2834,0,186
0.277736,0.770957,9.663293,0.032736,-0.005663,-0.01281,-11.04,-22.56,-38.88,151.669,-4.7253,-1.3507,55.854706,37.469345,176.2834,0,196
0.158022,0.833208,9.466963,0.02846,-0.013605,-0.007312,-11.04,-22.56,-38.88,151.669,-4.7253,-1.3507,55.854706,37.469345,176.2834,0,206
0.174782,0.893065,9.325701,0.003414,-0.039261,0.000629,-10.86,-22.8,-38.94,151.669,-4.7253,-1.3507,55.854706,37.469345,176.2834,0,216
0.215485,0.905036,9.416683,-0.032016,-0.044759,-0.002425,-10.86,-22.8,-38.94,151.669,-4.7253,-1.3507,55.854706,37.469345,176.2834,0,226
0.256187,0.864333,9.57231,-0.06317,-0.036207,-0.001203,-11.34,-22.14,-38.88,151.9586,-4.6526,-1.4893,55.854706,37.469345,176.2834,0,236
0.256187,0.778139,9.711179,-0.086994,-0.026433,-0.003036,-11.34,-22.14,-38.88,151.9586,-4.6526,-1.4893,55.854706,37.469345,176.2834,0,246
0.256187,0.778139,9.711179,-0.102266,-0.023989,-0.001203,-11.16,-21.72,-39.42,151.9586,-4.6526,-1.4893,55.854706,37.469345,176.2834,0,256
0.268159,0.72786,9.840469,-0.107152,-0.025822,-0.001814,-11.16,-21.72,-39.42,151.9586,-4.6526,-1.4893,55.854706,37.469345,176.2834,0,266
0.325621,0.653637,9.996098,-0.096157,-0.04598,-0.007312,-10.86,-21.84,-39.48,152.0967,-4.619,-1.556,55.854706,37.469345,176.2834,0,276
0.325621,0.653637,9.996098,-0.06989,-0.063696,-0.007312,-10.86,-21.84,-39.48,152.0967,-4.619,-1.556,55.854706,37.469345,176.2834,0,286
0.351958,0.620117,10.190034,-0.036903,-0.064917,-0.004869,-10.62,-22.14,-38.94,152.0967,-4.619,-1.556,55.854706,37.469345,176.2834,0,296
0.356747,0.6273,10.261862,-0.036903,-0.064917,-0.004869,-10.62,-22.14,-38.94,152.0967,-4.619,-1.556,55.854706,37.469345,176.2834,0,306
0.39745,0.658426,10.240314,-0.007581,-0.056976,0.001851,-11.16,-22.32,-39.06,152.4267,-4.3927,-1.635,55.854706,37.469345,176.2834,0,316
0.433364,0.778139,10.07032,0.027238,-0.038039,0.014068,-11.16,-22.32,-39.06,152.4267,-4.3927,-1.635,55.854706,37.469345,176.2834,0,326
0.39745,0.900247,9.854836,0.04312,-0.025211,0.014679,-11.7,-22.62,-38.58,152.4267,-4.3927,-1.635,55.854706,37.469345,176.2834,0,336
0.39745,0.900247,9.854836,0.046175,-0.015437,0.006127,-11.34,-22.8,-38.82,152.4267,-4.3927,-1.635,55.854706,37.469345,176.2834,0,346
0.33041,0.972076,9.720756,0.033957,-0.015437,-0.005479,-11.34,-22.8,-38.82,152.4267,-4.3927,-1.635,55.854706,37.469345,176.2834,0,356
0.251399,0.99123,9.656111,0.018686,-0.01055,-0.014642,-11.34,-22.44,-38.82,152.6497,-4.3929,-1.7728,55.854706,37.469345,176.2834,0,366
0.169994,0.960104,9.668081,-0.003305,-0.004442,-0.020751,-11.34,-22.44,-38.82,152.6497,-4.3929,-1.7728,55.854706,37.469345,176.2834,0,376
0.169994,0.960104,9.668081,-0.017966,0.002889,-0.023805,-11.16,-21.96,-39.54,152.6497,-4.3929,-1.7728,55.854706,37.469345,176.2834,0,386
0.090982,0.85715,9.687236,-0.035681,0.015717,-0.016475,-11.16,-21.96,-39.54,152.6497,-4.3929,-1.7728,55.854706,37.469345,176.2834,0,396
0.062251,0.792505,9.771035,-0.050342,0.029767,-0.003036,-11.46,-21.9,-39.48,152.6412,-4.449,-1.798,55.854706,37.469345,176.2834,0,406
0.071828,0.703917,9.897932,-0.050342,0.029767,-0.003036,-11.46,-21.9,-39.48,152.6412,-4.449,-1.798,55.854706,37.469345,176.2834,0,415
0.081405,0.653637,9.972155,-0.039957,0.037708,0.018955,-11.46,-22.32,-38.94,152.6412,-4.449,-1.798,55.854706,37.469345,176.2834,0,426
0.081405,0.653637,9.972155,-0.039957,0.037708,0.018955,-11.46,-22.32,-38.94,152.6412,-4.449,-1.798,55.854706,37.469345,176.2834,0,436
0.064645,0.598569,9.878778,-0.024075,0.034654,0.030562,-11.4,-22.56,-39.18,153.8227,-4.3674,-1.7536,55.854706,37.469345,176.2834,0,446
0.110137,0.567443,9.933846,-0.014912,0.022436,0.038503,-11.4,-22.56,-39.18,153.8227,-4.3674,-1.7536,55.854706,37.469345,176.2834,0,456
0.110137,0.567443,9.933846,-0.003916,0.014495,0.047666,-11.34,-21.84,-39.66,153.8227,-4.3674,-1.7536,55.854706,37.469345,176.2834,0,466
0.126897,0.584203,9.893144,0.002192,0.013884,0.062327,-11.34,-21.84,-39.66,153.8227,-4.3674,-1.7536,55.854706,37.469345,176.2834,0,476
0.237033,0.617723,9.75667,0.005247,0.005943,0.070268,-10.86,-21.96,-39.84,152.563,-4.2987,-1.6821,55.854706,37.469345,176.2834,0,486
0.270553,0.656031,9.797373,-0.003916,0.002889,0.074544,-10.86,-21.96,-39.84,152.563,-4.2987,-1.6821,55.854706,37.469345,176.2834,0,496
0.270553,0.656031,9.797373,-0.003305,0.008387,0.075766,-10.68,-22.38,-39.84,152.563,-4.2987,-1.6821,55.854706,37.469345,176.2834,0,505
0.253793,0.648849,9.778218,0.003414,0.001056,0.083096,-10.68,-22.38,-39.84,152.563,-4.2987,-1.6821,55.854706,37.469345,176.2834,0,516
0.265765,0.684763,9.727939,0.017464,-0.014215,0.09287,-10.8,-22.5,-39.3,152.417,-4.216,-1.5321,55.854706,37.469345,176.2834,0,528
0.368718,0.742225,9.636956,0.024184,-0.019102,0.09287,-10.86,-22.56,-39.54,152.417,-4.216,-1.5321,55.854706,37.469345,176.2834,0,536
0.574626,0.926584,9.536397,0.01441,-0.026433,0.070879,-10.86,-22.56,-39.54,152.417,-4.216,-1.5321,55.854706,37.469345,176.2834,0,546
0.574626,0.926584,9.536397,-0.004527,-0.027044,0.044611,-10.98,-21.96,-39.6,152.417,-4.216,-1.5321,55.854706,37.469345,176.2834,0,556
0.56026,0.969681,9.502876,-0.028962,-0.015437,0.020177,-10.98,-21.96,-39.6,152.417,-4.216,-1.5321,55.854706,37.469345,176.2834,0,566
0.435758,0.917007,9.577099,-0.057062,-0.008718,0.011625,-11.04,-21.84,-39.12,152.465,-4.2408,-1.5755,55.854706,37.469345,176.2834,0,576
0.402238,0.845179,9.689631,-0.082718,-0.000166,0.00796,-11.04,-21.84,-39.12,152.465,-4.2408,-1.5755,55.854706,37.469345,176.2834,0,586
0.423787,0.792505,9.905115,-0.095546,0.006554,0.009792,-10.98,-21.84,-39.18,152.465,-4.2408,-1.5755,55.854706,37.469345,176.2834,0,597
0.423787,0.792505,9.905115,-0.090659,0.015106,0.000629,-10.98,-21.84,-39.18,152.465,-4.2408,-1.5755,55.854706,37.469345,176.2834,0,606
0.462095,0.74462,10.1206,-0.06989,0.018771,-0.001814,-11.58,-21.9,-39.48,150.407,-4.1243,-1.6745,55.854706,37.469345,176.2834,0,616
0.426181,0.703917,10.166091,-0.042401,0.019382,1.8E-05,-11.58,-21.9,-39.48,150.407,-4.1243,-1.6745,55.854706,37.469345,176.2834,0,626
0.411815,0.656031,10.058349,-0.024075,0.015717,0.009181,-11.58,-21.66,-39.36,150.407,-4.1243,-1.6745,55.854706,37.469345,176.2834,0,636
0.481249,0.732648,10.05356,-0.019188,0.013884,0.000629,-11.58,-21.66,-39.36,150.407,-4.1243,-1.6745,55.854706,37.469345,176.2834,0,646
0.481249,0.732648,10.05356,-0.009414,0.026102,-0.009145,-10.98,-22.08,-39,152.7579,-4.0505,-1.6546,55.854706,37.469345,176.2834,0,656
0.538712,0.775745,10.022434,-0.005138,0.033432,-0.020751,-10.98,-22.08,-39,152.7579,-4.0505,-1.6546,55.854706,37.469345,176.2834,0,666
0.507586,0.785322,9.993703,0.002803,0.038319,-0.028081,-10.56,-22.38,-39.06,152.7579,-4.0505,-1.6546,55.854706,37.469345,176.2834,0,676
0.423787,0.794899,9.888355,0.002803,0.038319,-0.028081,-10.56,-22.38,-39.06,152.7579,-4.0505,-1.6546,55.854706,37.469345,176.2834,0,686
0.375901,0.814053,9.77343,0.007079,0.037097,-0.044575,-10.74,-22.26,-39.18,152.7267,-4.0158,-1.6164,55.854706,37.469345,176.2834,0,696
0.375901,0.814053,9.77343,0.006468,0.027934,-0.05496,-10.74,-22.26,-39.18,152.7267,-4.0158,-1.6164,55.854706,37.469345,176.2834,0,706
0.311256,0.785322,9.699207,-0.002084,0.013884,-0.058014,-11.04,-21.66,-38.88,152.7267,-4.0158,-1.6164,55.854706,37.469345,176.2834,0,716
0.275342,0.708705,9.787795,-0.021631,0.022436,-0.056181,-11.04,-21.66,-38.88,152.7267,-4.0158,-1.6164,55.854706,37.469345,176.2834,0,726
0.277736,0.67758,9.857229,-0.033849,0.045649,-0.049462,-11.22,-21.42,-39.18,151.316,-4.0237,-1.5322,55.854706,37.469345,176.2834,0,736
0.344776,0.672791,9.926663,-0.028962,0.042595,-0.045797,-11.22,-21.42,-39.18,151.316,-4.0237,-1.5322,55.854706,37.469345,176.2834,0,746
0.387873,0.701523,9.953,-0.011858,0.032821,-0.048851,-11.64,-22.08,-39.3,151.316,-4.0237,-1.5322,55.854706,37.469345,176.2834,0,756
0.387873,0.701523,9.953,0.00036,0.022436,-0.058014,-11.64,-22.08,-39.3,151.316,-4.0237,-1.5322,55.854706,37.469345,176.2834,0,767
0.383084,0.758985,9.964972,0.00036,0.022436,-0.058014,-11.34,-22.56,-39.18,153.6748,-3.976,-1.4562,55.854706,37.469345,176.2834,0,776
0.29689,0.723071,9.955395,0.009523,0.013884,-0.071453,-11.34,-22.56,-39.18,153.6748,-3.976,-1.4562,55.854706,37.469345,176.2834,0,786
0.237033,0.703917,9.929058,0.015631,0.015106,-0.065344,-10.86,-22.5,-38.94,153.6748,-3.976,-1.4562,55.854706,37.469345,176.2834,0,796
0.227456,0.701523,9.818921,0.018075,0.024269,-0.052516,-10.86,-22.5,-38.94,153.6748,-3.976,-1.4562,55.854706,37.469345,176.2834,0,806
0.227456,0.701523,9.818921,0.008301,0.022436,-0.053127,-10.86,-22.62,-38.4,153.8277,-4.0493,-1.5823,55.854706,37.469345,176.2834,0,816
0.256187,0.701523,9.828498,-0.005138,0.027934,-0.051294,-10.86,-22.62,-38.4,153.8277,-4.0493,-1.5823,55.854706,37.469345,176.2834,0,826
0.270553,0.69434,9.957788,0.001582,0.032821,-0.053127,-11.16,-22.26,-39,153.8277,-4.0493,-1.5823,55.854706,37.469345,176.2834,0,836
0.282524,0.701523,9.93624,0.016242,0.031599,-0.053738,-11.16,-22.26,-39,153.8277,-4.0493,-1.5823,55.854706,37.469345,176.2834,0,846
0.282524,0.701523,9.93624,0.018686,0.027934,-0.052516,-11.04,-21.84,-39.84,152.6264,-4.1114,-1.6186,55.854706,37.469345,176.2834,0,856
0.208302,0.653637,9.79019,0.018686,0.027934,-0.052516,-11.04,-21.84,-39.84,152.6264,-4.1114,-1.6186,55.854706,37.469345,176.2834,0,866
0.222668,0.646454,9.792584,0.009523,0.036486,-0.043353,-11.46,-22.08,-39.3,152.6264,-4.1114,-1.6186,55.854706,37.469345,176.2834,0,876
0.294496,0.761379,9.766247,0.005858,0.04626,-0.034801,-11.46,-22.08,-39.3,152.6264,-4.1114,-1.6186,55.854706,37.469345,176.2834,0,886
0.294496,0.761379,9.766247,0.005247,0.057867,-0.031747,-11.28,-22.26,-39.18,152.5508,-4.1346,-1.5711,55.854706,37.469345,176.2834,0,896
0.294496,0.828419,9.629773,0.008301,0.054201,-0.043353,-11.28,-22.26,-39.18,152.5508,-4.1346,-1.5711,55.854706,37.469345,176.2834,0,906
0.22985,0.830813,9.550762,0.008301,0.023658,-0.065344,-10.2,-22.62,-39.9,152.5508,-4.1346,-1.5711,55.854706,37.469345,176.2834,0,915
0.22985,0.830813,9.550762,0.001582,-0.014215,-0.058625,-10.2,-22.62,-39.9,152.5508,-4.1346,-1.5711,55.854706,37.469345,176.2834,0,926
0.102954,0.632089,9.553157,-0.02102,-0.020935,-0.039077,-10.08,-22.44,-39.9,154.7731,-4.1553,-1.4795,55.854706,37.469345,176.2834,0,936
0.112531,0.600963,9.701602,-0.042401,0.001056,-0.024416,-10.08,-22.44,-39.9,154.7731,-4.1553,-1.4795,55.854706,37.469345,176.2834,0,947
0.155628,0.579415,9.907509,-0.057062,0.025491,-0.020751,-9.96,-22.32,-39.42,154.7731,-4.1553,-1.4795,55.854706,37.469345,176.2834,0,956
0.167599,0.538712,9.953,-0.050342,0.033432,-0.010366,-9.96,-22.32,-39.42,154.7731,-4.1553,-1.4795,55.854706,37.469345,176.2834,0,966
0.167599,0.538712,9.953,-0.050342,0.033432,-0.010366,-10.44,-21.84,-39.3,154.6337,-4.0779,-1.3452,55.854706,37.469345,176.2834,0,976
0.172388,0.538712,9.976943,-0.024075,0.014495,-0.003036,-10.44,-21.84,-39.3,154.6337,-4.0779,-1.3452,55.854706,37.469345,176.2834,0,986
0.148445,0.562655,9.98652,0.011966,-0.0246,-0.004869,-11.04,-22.14,-39.9,154.6337,-4.0779,-1.3452,55.854706,37.469345,176.2834,0,996
0.232245,0.620117,9.897932,0.023573,-0.033763,1.8E-05,-11.04,-22.14,-39.9,154.6337,-4.0779,-1.3452,55.854706,37.469345,176.2834,0,1006
0.232245,0.620117,9.897932,0.022962,-0.028265,0.000629,-10.92,-22.86,-39.84,153.3712,-3.9782,-1.2787,55.854706,37.469345,176.2834,0,1016
0.28013,0.687157,9.838076,0.013188,-0.020324,-0.001814,-10.92,-22.86,-39.84,153.3712,-3.9782,-1.2787,55.854706,37.469345,176.2834,0,1029
0.282524,0.809265,9.742304,0.004636,-0.029487,-0.018918,-10.2,-22.2,-39.66,153.3712,-3.9782,-1.2787,55.854706,37.469345,176.2834,0,1036
0.282524,0.809265,9.742304,0.004636,-0.029487,-0.018918,-10.2,-22.2,-39.66,153.3712,-3.9782,-1.2787,55.854706,37.469345,176.2834,0,1046
0.239427,0.790111,9.72315,0.010745,-0.033763,-0.023805,-10.02,-21.78,-39.6,154.6399,-3.8798,-1.2656,55.854706,37.469345,176.2834,0,1056
0.210696,0.754197,9.744699,0.015021,-0.039261,-0.025638,-10.02,-21.78,-39.6,154.6399,-3.8798,-1.2656,55.854706,37.469345,176.2834,0,1067
0.215485,0.691945,9.732727,0.015021,-0.035596,-0.028692,-10.26,-22.02,-39.48,154.6399,-3.8798,-1.2656,55.854706,37.469345,176.2834,0,1076
0.22985,0.653637,9.713573,-0.002084,-0.022157,-0.024416,-10.26,-22.02,-39.48,154.6399,-3.8798,-1.2656,55.854706,37.469345,176.2834,0,1086
0.22985,0.653637,9.713573,-0.009414,-0.027654,-0.021973,-10.26,-22.44,-39.54,154.7216,-3.9311,-1.339,55.854706,37.469345,176.2834,0,1096
0.239427,0.435758,9.775824,0.011355,-0.132112,0.058661,-10.26,-22.44,-39.54,154.7216,-3.9311,-1.339,55.854706,37.469345,176.2834,0,1106
-0.505192,0.52674,10.398335,0.060835,-0.07408,0.12097,-10.86,-22.68,-39.6,154.7216,-3.9311,-1.339,55.85466,37.46929,175.857,0,1115
0.474066,0.936161,9.742304,0.061446,-0.062474,0.07149,-10.86,-22.68,-39.6,154.7216,-3.9311,-1.339,55.85466,37.46929,175.857,0,1126
0.474066,0.792505,9.660899,0.061446,-0.062474,0.07149,-10.74,-22.38,-39.42,152.4302,-3.915,-1.3757,55.85466,37.46929,175.857,0,1136
0.474066,0.792505,9.660899,0.055949,-0.069804,0.01529,-10.74,-22.38,-39.42,152.4302,-3.915,-1.3757,55.85466,37.46929,175.857,0,1146
0.433364,0.703917,9.601042,0.01441,-0.042926,0.002462,-10.74,-22.44,-39.3,152.4302,-3.915,-1.3757,55.85466,37.46929,175.857,0,1156
0.284919,0.775745,9.811738,-0.012468,-0.020324,0.000629,-10.74,-22.44,-39.3,152.4302,-3.915,-1.3757,55.85466,37.46929,175.857,0,1166
0.198725,0.668003,9.881172,-0.028351,0.020604,-0.009145,-11.04,-22.44,-39.78,152.6235,-4.0311,-1.5734,55.85466,37.46929,175.857,0,1176
0.198725,0.668003,9.881172,-0.041179,0.051147,0.010403,-11.04,-22.44,-39.78,152.6235,-4.0311,-1.5734,55.85466,37.46929,175.857,0,1186
0.215485,0.723071,9.775824,-0.054007,0.07436,0.033616,-10.86,-22.08,-40.08,152.6235,-4.0311,-1.5734,55.85466,37.46929,175.857,0,1196
0.316044,0.766168,9.732727,-0.057062,0.070084,0.026286,-10.86,-22.08,-40.08,152.6235,-4.0311,-1.5734,55.85466,37.46929,175.857,0,1206
0.316044,0.74462,9.794978,-0.054007,0.050536,0.016512,-10.44,-22.14,-39.54,155.0387,-3.9838,-1.5504,55.85466,37.46929,175.857,0,1216
0.304073,0.665608,9.79019,-0.050342,0.036486,0.004294,-10.44,-22.14,-39.54,155.0387,-3.9838,-1.5504,55.85466,37.46929,175.857,0,1226
0.304073,0.665608,9.79019,-0.046066,0.01755,-0.009756,-11.1,-22.44,-39.6,155.0387,-3.9838,-1.5504,55.85466,37.46929,175.857,0,1236
0.308861,0.636877,9.840469,-0.030183,-0.008718,-0.008534,-11.1,-22.44,-39.6,155.0387,-3.9838,-1.5504,55.85466,37.46929,175.857,0,1246
0.268159,0.715888,9.742304,-0.014912,-0.035596,-0.012199,-11.28,-22.02,-39.48,152.5903,-3.8231,-1.4267,55.85466,37.46929,175.857,0,1256
0.349564,0.761379,9.646533,-0.005749,-0.058198,-0.022584,-11.28,-22.02,-39.48,152.5903,-3.8231,-1.4267,55.85466,37.46929,175.857,0,1266
0.349564,0.761379,9.646533,-0.019799,-0.071026,-0.032358,-10.92,-21.42,-39.54,152.5903,-3.8231,-1.4267,55.85466,37.46929,175.857,0,1276
0.301679,0.775745,9.701602,-0.033849,-0.069804,-0.031747,-10.92,-21.42,-39.54,152.5903,-3.8231,-1.4267,55.85466,37.46929,175.857,0,1286
0.304073,0.639271,9.816526,-0.052785,-0.038039,-0.036023,-10.5,-21.96,-39.78,155.0656,-3.8104,-1.4821,55.85466,37.46929,175.857,0,1296
0.141262,0.545895,10.012857,-0.058894,-0.008107,-0.015253,-10.5,-21.96,-39.78,155.0656,-3.8104,-1.4821,55.85466,37.46929,175.857,0,1306
0.141262,0.545895,10.012857,-0.036903,-0.005663,0.00124,-10.8,-21.84,-39.48,155.0656,-3.8104,-1.4821,55.85466,37.46929,175.857,0,1317
0.055068,0.483644,10.089474,-0.016134,0.002278,0.030562,-10.8,-21.84,-39.48,155.0656,-3.8104,-1.4821,55.85466,37.46929,175.857,0,1326
0.098165,0.438152,10.08708,-0.002084,0.022436,0.053164,-11.28,-21.9,-39.48,152.9418,-3.7146,-1.5896,55.85466,37.46929,175.857,0,1337
0.098165,0.438152,10.08708,-0.002084,0.022436,0.053164,-11.28,-21.9,-39.48,152.9418,-3.7146,-1.5896,55.85466,37.46929,175.857,0,1346
0.035914,0.335198,10.199611,0.001582,0.068862,0.090426,-10.38,-22.44,-39.06,152.9418,-3.7146,-1.5896,55.85466,37.46929,175.857,0,1356
0.191542,0.531529,9.972155,0.008912,0.101238,0.11425,-10.38,-22.44,-39.06,152.9418,-3.7146,-1.5896,55.85466,37.46929,175.857,0,1366
0.29689,0.699128,9.974549,0.029681,0.057256,0.105698,-10.5,-21.84,-39.42,155.3149,-3.6741,-1.5596,55.85466,37.46929,175.857,0,1376
0.29689,0.699128,9.974549,0.060835,0.013273,0.075155,-10.5,-21.84,-39.42,155.3149,-3.6741,-1.5596,55.85466,37.46929,175.857,0,1386
0.474066,0.799688,9.759064,0.096266,-0.075302,0.016512,-11.1,-21.24,-39.18,155.3149,-3.6741,-1.5596,55.85466,37.46929,175.857,0,1396
0.505192,0.828419,9.792584,0.12742,-0.146162,-0.021362,-11.1,-21.24,-39.18,155.3149,-3.6741,-1.5596,55.85466,37.46929,175.857,0,1406
0.354353,0.802082,9.768641,0.12742,-0.146162,-0.021362,-10.92,-21.66,-39.36,152.6905,-3.7331,-1.4413,55.85466,37.46929,175.857,0,1416
0.234639,0.732648,9.732727,0.129863,-0.153493,-0.028081,-10.92,-21.66,-39.36,152.6905,-3.7331,-1.4413,55.85466,37.46929,175.857,0,1426
0.208302,0.691945,9.72315,0.110316,-0.13028,-0.015253,-10.92,-21.9,-39.36,152.6905,-3.7331,-1.4413,55.85466,37.46929,175.857,0,1437
0.208302,0.691945,9.72315,0.078551,-0.088741,0.014679,-10.92,-21.9,-39.36,152.6905,-3.7331,-1.4413,55.85466,37.46929,175.857,0,1446
0.239427,0.735042,9.816526,0.044342,-0.039261,0.031783,-11.16,-21.9,-38.76,152.9074,-4.003,-1.7221,55.85466,37.46929,175.857,0,1456
0.289707,0.770957,9.857229,0.037012,-0.011772,0.044611,-11.16,-21.9,-38.76,152.9074,-4.003,-1.7221,55.85466,37.46929,175.857,0,1466
0.316044,0.775745,9.873989,0.030292,0.012663,0.034838,-10.92,-22.32,-39,152.9074,-4.003,-1.7221,55.85466,37.46929,175.857,0,1476
0.328016,0.749408,9.850046,0.033957,0.021826,0.026286,-10.92,-22.32,-39,152.9074,-4.003,-1.7221,55.85466,37.46929,175.857,0,1486
0.328016,0.749408,9.850046,0.04312,0.016328,0.015901,-11.4,-22.2,-39.12,153.0107,-4.1468,-1.8629,55.85466,37.46929,175.857,0,1496
0.371113,0.756591,9.761458,0.051062,-0.001998,0.00857,-11.4,-22.2,-39.12,153.0107,-4.1468,-1.8629,55.85466,37.46929,175.857,0,1506
0.454912,0.888276,9.672871,0.052894,-0.046591,-0.020751,-11.82,-22.26,-39.12,153.0107,-4.1468,-1.8629,55.85466,37.46929,175.857,0,1516
0.454912,0.888276,9.672871,0.051672,-0.059419,-0.049462,-11.82,-22.26,-39.12,153.0107,-4.1468,-1.8629,55.85466,37.46929,175.857,0,1526
0.447729,0.833208,9.727939,0.054116,-0.056976,-0.052516,-11.1,-22.68,-39.12,154.0618,-4.2361,-1.838,55.85466,37.46929,175.857,0,1536
0.366324,0.735042,9.864412,0.048618,-0.044148,-0.045797,-11.1,-22.68,-39.12,154.0618,-4.2361,-1.838,55.85466,37.46929,175.857,0,1546
0.356747,0.730254,9.881172,0.044342,-0.022768,-0.042742,-10.86,-22.8,-39.06,154.0618,-4.2361,-1.838,55.85466,37.46929,175.857,0,1556
0.356747,0.730254,9.881172,0.044342,-0.022768,-0.042742,-10.38,-22.68,-39,154.0618,-4.2361,-1.838,55.85466,37.46929,175.857,0,1566
0.33041,0.713494,9.775824,0.03579,-0.019102,-0.042131,-10.38,-22.68,-39,154.0618,-4.2361,-1.838,55.85466,37.46929,175.857,0,1576
0.284919,0.651243,9.845258,0.037623,-0.033763,-0.039077,-10.62,-21.96,-39.3,152.9728,-4.3829,-1.9658,55.85466,37.46929,175.857,0,1586
0.335198,0.629694,9.900327,0.051062,-0.048424,-0.022584,-10.62,-21.96,-39.3,152.9728,-4.3829,-1.9658,55.85466,37.46929,175.857,0,1596
0.335198,0.629694,9.900327,0.077329,-0.055143,-0.013421,-11.22,-22.02,-39.12,152.9728,-4.3829,-1.9658,55.85466,37.46929,175.857,0,1606
0.34717,0.718282,9.885961,0.09199,-0.051478,-0.002425,-11.22,-22.02,-39.12,152.9728,-4.3829,-1.9658,55.85466,37.46929,175.857,0,1617
0.282524,0.84039,9.699207,0.085881,-0.017881,0.014679,-11.28,-22.68,-39.12,154.1691,-4.4857,-2.0331,55.85466,37.46929,175.857,0,1626
0.371113,0.967287,9.445415,0.050451,0.001056,0.012846,-11.34,-22.62,-39.36,154.1691,-4.4857,-2.0331,55.85466,37.46929,175.857,0,1636
0.402238,1.017567,9.42626,-0.005749,0.010219,-0.001203,-11.34,-22.62,-39.36,154.1691,-4.4857,-2.0331,55.85466,37.46929,175.857,0,1646
0.402238,1.017567,9.42626,-0.046677,0.01755,-0.028692,-11.04,-22.86,-39.3,154.1691,-4.4857,-2.0331,55.85466,37.46929,175.857,0,1657
0.416604,0.948133,9.567522,-0.060116,0.01816,-0.039077,-11.04,-22.86,-39.3,154.1691,-4.4857,-2.0331,55.85466,37.46929,175.857,0,1667
0.390267,0.816448,9.766247,-0.05584,0.016939,-0.044575,-11.16,-22.68,-38.34,154.1117,-4.6693,-2.0864,55.85466,37.46929,175.857,0,1676
0.402238,0.811659,9.950606,-0.035681,0.01816,-0.04824,-11.16,-22.68,-38.34,154.1117,-4.6693,-2.0864,55.85466,37.46929,175.857,0,1687
0.402238,0.811659,9.950606,-0.012468,0.005943,-0.053738,-11.76,-22.68,-38.64,154.1117,-4.6693,-2.0864,55.85466,37.46929,175.857,0,1696
0.328016,0.703917,9.830893,0.05717,-0.107678,-0.018918,-11.76,-22.68,-38.64,154.1117,-4.6693,-2.0864,55.85466,37.46929,175.857,0,1706
0.03352,0.409421,9.783007,0.131696,-0.209692,0.030562,-11.34,-22.44,-39.36,152.9155,-4.5969,-2.0457,55.85466,37.46929,175.857,0,1716
0.466884,1.113338,9.955395,0.131696,-0.209692,0.030562,-11.34,-22.44,-39.36,152.9155,-4.5969,-2.0457,55.85466,37.46929,175.857,0,1727
0.466884,1.113338,9.955395,0.123144,-0.209692,0.000629,-11.4,-22.2,-38.76,152.9155,-4.5969,-2.0457,55.85466,37.46929,175.857,0,1736
0.493221,0.89067,9.811738,0.065722,-0.104013,-0.05496,-11.4,-22.2,-38.76,152.9155,-4.5969,-2.0457,55.85466,37.46929,175.857,0,1746
0.416604,0.703917,9.613013,0.00769,-0.053922,-0.033579,-11.64,-22.62,-39.36,152.0329,-4.7258,-2.2707,55.854675,37.46924,178.8578,0,1756
0.416604,1.027144,9.775824,-0.005138,-0.042926,-0.019529,-11.64,-22.62,-39.36,152.0329,-4.7258,-2.2707,55.854675,37.46924,178.8578,0,1766
0.416604,1.027144,9.775824,-0.016744,-0.015437,-0.032358,-11.58,-22.86,-39.6,152.0329,-4.7258,-2.2707,55.854675,37.46924,178.8578,0,1776
0.368718,0.883487,9.636956,-0.037514,-0.00322,-0.033579,-11.58,-22.86,-39.6,152.0329,-4.7258,-2.2707,55.854675,37.46924,178.8578,0,1786
0.402238,0.806871,9.708784,-0.042401,-0.005052,-0.029303,-11.64,-22.56,-39.06,152.2788,-4.841,-2.4934,55.854675,37.46924,178.8578,0,1797
0.464489,0.87391,9.694419,-0.031405,-0.030709,-0.031136,-11.64,-22.56,-39.06,152.2788,-4.841,-2.4934,55.854675,37.46924,178.8578,0,1806
0.464489,0.87391,9.694419,-0.033238,-0.0246,-0.037244,-11.22,-22.74,-38.52,152.2788,-4.841,-2.4934,55.854675,37.46924,178.8578,0,1816
0.445335,0.835602,9.842864,-0.046677,0.013273,-0.028692,-11.22,-22.74,-38.52,152.2788,-4.841,-2.4934,55.854675,37.46924,178.8578,0,1826
0.450124,0.775745,9.924269,-0.057672,0.053591,-0.019529,-11.28,-22.86,-38.88,154.7074,-4.776,-2.5139,55.854675,37.46924,178.8578,0,1836
0.423787,0.811659,9.883567,-0.05584,0.073138,-0.007923,-11.28,-22.86,-38.88,154.7074,-4.776,-2.5139,55.854675,37.46924,178.8578,0,1847
0.38069,0.816448,9.80695,-0.054007,0.070695,-0.001203,-11.4,-23.1,-39.42,154.7074,-4.776,-2.5139,55.854675,37.46924,178.8578,0,1856
0.435758,0.849968,9.802161,-0.052175,0.076803,0.00124,-11.4,-23.1,-39.42,154.7074,-4.776,-2.5139,55.854675,37.46924,178.8578,0,1866
0.435758,0.849968,9.802161,-0.067446,0.095129,-0.002425,-11.4,-23.04,-38.52,154.7313,-4.679,-2.4804,55.854675,37.46924,178.8578,0,1877
0.426181,0.74462,9.873989,-0.127311,0.19409,0.037892,-11.4,-23.04,-38.52,154.7313,-4.679,-2.4804,55.854675,37.46924,178.8578,0,1886
0.299284,0.639271,10.060742,-0.127311,0.19409,0.037892,-11.16,-22.26,-38.4,154.7313,-4.679,-2.4804,55.854675,37.46924,178.8578,0,1896
0.287313,0.766168,9.917087,-0.158465,0.266172,0.053774,-11.16,-22.26,-38.4,154.7313,-4.679,-2.4804,55.854675,37.46924,178.8578,0,1906
0.402238,0.816448,9.873989,-0.129144,0.235628,0.055607,-11.22,-22.26,-39.06,153.3583,-4.5381,-2.2826,55.854675,37.46924,178.8578,0,1916
0.402238,0.816448,9.873989,-0.091881,0.18004,0.042168,-11.22,-22.26,-39.06,153.3583,-4.5381,-2.2826,55.854675,37.46924,178.8578,0,1926
0.421392,0.92419,9.814133,-0.039346,0.099405,0.00857,-10.8,-22.74,-39.06,153.3583,-4.5381,-2.2826,55.854675,37.46924,178.8578,0,1936
0.395055,0.919402,9.828498,0.008912,0.028545,-0.028081,-10.8,-22.74,-39.06,153.3583,-4.5381,-2.2826,55.854675,37.46924,178.8578,0,1946
0.31365,0.847573,9.821315,0.038233,-0.006885,-0.051905,-10.92,-22.86,-38.82,153.9617,-4.2419,-1.7774,55.854675,37.46924,178.8578,0,1957
0.270553,0.797294,9.792584,0.041288,0.002278,-0.050073,-10.92,-22.86,-38.82,153.9617,-4.2419,-1.7774,55.854675,37.46924,178.8578,0,1967
0.270553,0.797294,9.792584,0.019297,0.026713,-0.035412,-11.46,-22.68,-39.24,153.9617,-4.2419,-1.7774,55.854675,37.46924,178.8578,0,1976
0.225062,0.763774,9.737515,-0.006971,0.06031,-0.021973,-11.46,-22.68,-39.24,153.9617,-4.2419,-1.7774,55.854675,37.46924,178.8578,0,1986
0.249005,0.725465,9.737515,-0.032627,0.082301,-0.010977,-10.92,-21.96,-40.2,152.6361,-4.2893,-1.7209,55.854675,37.46924,178.8578,0,1996
0.234639,0.696734,9.80695,-0.025907,0.074971,-0.002425,-10.92,-21.96,-40.2,152.6361,-4.2893,-1.7209,55.854675,37.46924,178.8578,0,2006
0.198725,0.701523,9.783007,-0.003916,0.053591,0.003073,-10.74,-21.78,-40.14,152.6361,-4.2893,-1.7209,55.854675,37.46924,178.8578,0,2016
0.198725,0.701523,9.783007,0.011966,0.020604,-0.001814,-10.74,-21.78,-40.14,152.6361,-4.2893,-1.7209,55.854675,37.46924,178.8578,0,2026
0.150839,0.69434,9.751882,0.026627,-0.00322,0.006127,-10.98,-22.26,-39.48,152.4424,-4.2678,-1.5762,55.854675,37.46924,178.8578,0,2036
0.217879,0.701523,9.780613,0.026627,-0.00322,0.006127,-10.98,-22.26,-39.48,152.4424,-4.2678,-1.5762,55.854675,37.46924,178.8578,0,2046
0.282524,0.754197,9.79019,0.027849,-0.003831,0.011625,-10.86,-22.14,-39.36,152.4424,-4.2678,-1.5762,55.854675,37.46924,178.8578,0,2056
0.282524,0.754197,9.79019,0.018686,0.002278,0.004905,-10.86,-22.14,-39.36,152.4424,-4.2678,-1.5762,55.854675,37.46924,178.8578,0,2066
0.328016,0.768562,9.689631,0.018686,0.002278,0.004905,-11.1,-22.02,-39.54,152.3011,-4.2931,-1.521,55.854675,37.46924,178.8578,0,2076
0.301679,0.778139,9.727939,0.003414,0.006554,-0.01281,-11.1,-22.02,-39.54,152.3011,-4.2931,-1.521,55.854675,37.46924,178.8578,0,2086
0.251399,0.725465,9.775824,-0.000251,0.001667,-0.015864,-11.34,-22.08,-39.6,152.3011,-4.2931,-1.521,55.854675,37.46924,178.8578,0,2096
0.22985,0.730254,9.780613,0.010745,-0.002609,-0.018308,-11.34,-22.08,-39.6,152.3011,-4.2931,-1.521,55.854675,37.46924,178.8578,0,2106
0.22985,0.730254,9.780613,0.013188,0.004111,-0.01281,-10.86,-21.96,-39.48,152.2973,-4.3343,-1.5225,55.854675,37.46924,178.8578,0,2116
0.253793,0.761379,9.737515,0.011966,0.009608,-0.013421,-10.86,-21.96,-39.48,152.2973,-4.3343,-1.5225,55.854675,37.46924,178.8578,0,2126
0.270553,0.785322,9.684841,0.010134,0.004721,-0.01281,-11.04,-21.78,-39.42,152.2973,-4.3343,-1.5225,55.854675,37.46924,178.8578,0,2136
0.21309,0.790111,9.672871,0.011355,0.002278,-0.008534,-11.04,-21.78,-39.42,152.2973,-4.3343,-1.5225,55.854675,37.46924,178.8578,0,2146
0.186753,0.778139,9.677659,0.005858,0.001056,-0.007923,-11.46,-22.14,-39.18,152.2603,-4.362,-1.5148,55.854675,37.46924,178.8578,0,2156
0.186753,0.778139,9.677659,0.005858,0.001056,-0.007923,-11.46,-22.14,-39.18,152.2603,-4.362,-1.5148,55.854675,37.46924,178.8578,0,2166
0.215485,0.763774,9.735122,-0.009414,0.001667,-0.004258,-10.8,-22.86,-39.48,152.2603,-4.362,-1.5148,55.854675,37.46924,178.8578,0,2176
0.237033,0.780534,9.749487,-0.01369,0.016328,-0.002425,-10.8,-22.86,-39.48,152.2603,-4.362,-1.5148,55.854675,37.46924,178.8578,0,2186
0.237033,0.780534,9.747093,-0.02041,0.01083,-0.010977,-11.04,-22.92,-39.84,153.3534,-4.4201,-1.5,55.854675,37.46924,178.8578,0,2195
0.275342,0.780534,9.747093,-0.021631,-0.002609,-0.016475,-11.04,-22.92,-39.84,153.3534,-4.4201,-1.5,55.854675,37.46924,178.8578,0,2206
0.260976,0.747014,9.77343,-0.024686,-0.008718,-0.024416,-11.28,-23.34,-39.66,153.3534,-4.4201,-1.5,55.854675,37.46924,178.8578,0,2216
0.24661,0.742225,9.811738,-0.033849,-0.009329,-0.031136,-11.28,-23.34,-39.66,153.3534,-4.4201,-1.5,55.854675,37.46924,178.8578,0,2226
0.24661,0.742225,9.811738,-0.045455,0.005943,-0.03419,-10.8,-23.46,-39.24,153.3216,-4.4239,-1.4632,55.854675,37.46924,178.8578,0,2236
0.210696,0.737437,9.809344,-0.050953,-0.000166,-0.020751,-10.8,-23.46,-39.24,153.3216,-4.4239,-1.4632,55.854675,37.46924,178.8578,0,2245
0.232245,0.723071,9.91948,-0.039346,-0.008718,-0.015253,-10.92,-22.62,-39.66,153.3216,-4.4239,-1.4632,55.854675,37.46924,178.8578,0,2256
0.203513,0.756591,9.945818,-0.02774,-0.004442,-0.000593,-10.92,-22.62,-39.66,153.3216,-4.4239,-1.4632,55.854675,37.46924,178.8578,0,2266
0.203513,0.756591,9.945818,-0.028962,-0.005052,-0.00609,-10.62,-22.32,-39.54,152.129,-4.371,-1.4598,55.854675,37.46924,178.8578,0,2276
0.306467,0.715888,9.821315,-0.028962,-0.005052,-0.00609,-10.62,-22.32,-39.54,152.129,-4.371,-1.4598,55.854675,37.46924,178.8578,0,2285
0.328016,0.732648,9.799767,-0.031405,-0.007496,-0.009145,-11.46,-22.5,-38.46,152.129,-4.371,-1.4598,55.854675,37.46924,178.8578,0,2297
0.328016,0.718282,9.814133,-0.031405,-0.007496,-0.009145,-11.46,-22.5,-38.46,152.129,-4.371,-1.4598,55.854675,37.46924,178.8578,0,2306
0.328016,0.718282,9.814133,-0.043622,-0.008107,-0.017697,-11.58,-22.8,-38.58,151.1508,-4.3015,-1.4475,55.854675,37.46924,178.8578,0,2316
0.335198,0.66082,9.883567,-0.043622,-0.01055,-0.017086,-11.58,-22.8,-38.58,151.1508,-4.3015,-1.4475,55.854675,37.46924,178.8578,0,2325
0.299284,0.699128,9.948212,-0.012468,-0.016659,-0.009145,-10.38,-22.14,-39.12,151.1508,-4.3015,-1.4475,55.854675,37.46924,178.8578,0,2336
0.256187,0.718282,9.79019,0.017464,-0.019102,-0.004869,-10.38,-22.14,-39.12,151.1508,-4.3015,-1.4475,55.854675,37.46924,178.8578,0,2346
0.272947,0.758985,9.677659,0.019907,-0.032541,-0.002425,-11.1,-21.78,-38.88,152.4,-4.2211,-1.5243,55.854675,37.46924,178.8578,0,2356
0.272947,0.758985,9.677659,0.012577,-0.047202,-0.007923,-11.1,-21.78,-38.88,152.4,-4.2211,-1.5243,55.854675,37.46924,178.8578,0,2366
0.256187,0.730254,9.677659,-0.011858,-0.04537,-0.014642,-11.34,-22.5,-38.7,152.4,-4.2211,-1.5243,55.854675,37.46924,178.8578,0,2376
0.222668,0.663214,9.794978,-0.027129,-0.028876,-0.010366,-11.34,-22.5,-38.7,152.4,-4.2211,-1.5243,55.854675,37.46924,178.8578,0,2386
0.29689,0.641666,9.895537,-0.025907,-0.017881,-0.00609,-10.38,-22.98,-38.94,156.068,-4.229,-1.6183,55.854675,37.46924,178.8578,0,2396
0.294496,0.684763,9.905115,-0.025907,-0.017881,-0.00609,-10.38,-22.98,-38.94,156.068,-4.229,-1.6183,55.854675,37.46924,178.8578,0,2406
0.294496,0.684763,9.905115,-0.017966,-0.014826,-0.010977,-10.68,-22.74,-39.42,156.068,-4.229,-1.6183,55.854675,37.46924,178.8578,0,2416
0.29689,0.672791,9.804555,-0.016744,-0.016048,-0.017086,-10.68,-22.74,-39.42,156.068,-4.229,-1.6183,55.854675,37.46924,178.8578,0,2426
0.239427,0.641666,9.775824,-0.019799,-0.030709,-0.018918,-10.98,-22.14,-40.26,152.6604,-4.1621,-1.6666,55.854675,37.46924,178.8578,0,2436
0.203513,0.6273,9.897932,-0.017966,-0.031931,-0.008534,-10.98,-22.14,-40.26,152.6604,-4.1621,-1.6666,55.854675,37.46924,178.8578,0,2446
0.203513,0.6273,9.897932,-0.009414,-0.025211,0.003073,-10.68,-22.2,-40.26,152.6604,-4.1621,-1.6666,55.854675,37.46924,178.8578,0,2456
0.232245,0.648849,9.893144,-0.005138,-0.016659,0.006127,-10.68,-22.2,-40.26,152.6604,-4.1621,-1.6666,55.854675,37.46924,178.8578,0,2466
0.270553,0.66082,9.857229,-0.008803,0.004111,0.010403,-10.56,-22.44,-39.66,152.7796,-4.0701,-1.6889,55.854675,37.46924,178.8578,0,2476
0.294496,0.648849,9.821315,-0.008192,0.012052,0.014068,-10.56,-22.44,-39.66,152.7796,-4.0701,-1.6889,55.854675,37.46924,178.8578,0,2486
0.294496,0.648849,9.821315,-0.008192,0.012052,0.014068,-10.38,-22.32,-39.6,152.7796,-4.0701,-1.6889,55.854675,37.46924,178.8578,0,2496
0.275342,0.67758,9.766247,-0.003305,0.007776,0.00796,-10.38,-22.32,-39.6,152.7796,-4.0701,-1.6889,55.854675,37.46924,178.8578,0,2506
0.260976,0.641666,9.766247,-0.010636,0.007165,0.011014,-10.74,-22.14,-39.3,152.7857,-3.9829,-1.6355,55.854675,37.46924,178.8578,0,2516
0.268159,0.653637,9.775824,-0.016744,0.011441,0.013457,-10.74,-22.14,-39.3,152.7857,-3.9829,-1.6355,55.854675,37.46924,178.8578,0,2526
0.253793,0.646454,9.830893,-0.02774,0.01816,0.01529,-11.16,-22.14,-39.18,152.7857,-3.9829,-1.6355,55.854675,37.46924,178.8578,0,2536
0.253793,0.646454,9.830893,-0.024686,0.01755,0.017123,-11.16,-22.14,-39.18,152.7857,-3.9829,-1.6355,55.854675,37.46924,178.8578,0,2546
0.277736,0.66082,9.833286,-0.015523,0.007776,0.014679,-11.04,-22.02,-39.06,152.7604,-3.9268,-1.5895,55.854675,37.46924,178.8578,0,2556
0.289707,0.658426,9.835681,-0.005138,-0.006885,0.011625,-11.04,-22.02,-39.06,152.7604,-3.9268,-1.5895,55.854675,37.46924,178.8578,0,2566
0.28013,0.684763,9.835681,0.002803,-0.019102,0.011625,-10.92,-22.08,-38.88,152.7604,-3.9268,-1.5895,55.854675,37.46924,178.8578,0,2576
0.294496,0.663214,9.866806,0.001582,-0.017881,0.013457,-10.38,-22.26,-38.76,152.7604,-3.9268,-1.5895,55.854675,37.46924,178.8578,0,2586
0.294496,0.663214,9.866806,-0.005138,-0.005052,0.017733,-10.38,-22.26,-38.76,152.7604,-3.9268,-1.5895,55.854675,37.46924,178.8578,0,2597
0.356747,0.732648,9.888355,-0.005138,-0.005052,0.017733,-10.32,-22.26,-38.94,155.1857,-3.8586,-1.5703,55.854675,37.46924,178.8578,0,2606
0.354353,0.735042,9.890749,-0.017966,0.010219,0.009792,-10.32,-22.26,-38.94,155.1857,-3.8586,-1.5703,55.854675,37.46924,178.8578,0,2616
0.325621,0.723071,9.924269,-0.019188,0.01816,0.003073,-11.04,-22.14,-39.54,155.1857,-3.8586,-1.5703,55.854675,37.46924,178.8578,0,2626
0.325621,0.723071,9.924269,-0.008192,0.01755,0.003684,-11.04,-21.9,-39.84,155.1857,-3.8586,-1.5703,55.854675,37.46924,178.8578,0,2636
0.306467,0.720677,9.897932,0.00036,0.008997,-0.002425,-11.04,-21.9,-39.84,155.1857,-3.8586,-1.5703,55.854675,37.46924,178.8578,0,2647
0.33041,0.713494,9.794978,0.010134,-0.009329,-0.007923,-11.28,-22.02,-40.26,152.8604,-3.8732,-1.6323,55.854675,37.46924,178.8578,0,2656
0.31365,0.701523,9.833286,0.011966,-0.016659,-0.009756,-11.28,-22.02,-40.26,152.8604,-3.8732,-1.6323,55.854675,37.46924,178.8578,0,2666
0.29689,0.675186,9.893144,0.013799,-0.015437,-0.007923,-11.34,-22.26,-40.08,152.8604,-3.8732,-1.6323,55.854675,37.46924,178.8578,0,2676
0.29689,0.675186,9.893144,0.01441,-0.011161,-0.007312,-11.34,-22.26,-40.08,152.8604,-3.8732,-1.6323,55.854675,37.46924,178.8578,0,2687
0.304073,0.684763,9.885961,0.01441,-0.001998,-0.009756,-11.16,-22.8,-39.24,154.0805,-3.9504,-1.7044,55.854675,37.46924,178.8578,0,2696
0.275342,0.687157,9.885961,0.013188,0.006554,-0.005479,-11.16,-22.8,-39.24,154.0805,-3.9504,-1.7044,55.854675,37.46924,178.8578,0,2706
0.234639,0.708705,9.833286,0.015021,0.008997,-0.005479,-10.62,-22.68,-39.18,154.0805,-3.9504,-1.7044,55.854675,37.46924,178.8578,0,2716
0.24661,0.713494,9.809344,0.020518,0.002889,-0.002425,-10.62,-22.68,-39.18,154.0805,-3.9504,-1.7044,55.854675,37.46924,178.8578,0,2726
0.24661,0.713494,9.809344,0.020518,-0.00322,-0.002425,-10.92,-21.72,-39.42,152.953,-4.0007,-1.7492,55.854675,37.46924,178.8578,0,2736
0.287313,0.668003,9.818921,0.018686,-0.001998,-0.002425,-10.92,-21.72,-39.42,152.953,-4.0007,-1.7492,55.854675,37.46924,178.8578,0,2746
0.292102,0.69434,9.833286,0.016853,0.006554,-0.004258,-11.76,-22.14,-39.48,152.953,-4.0007,-1.7492,55.854675,37.46924,178.8578,0,2756
0.299284,0.69434,9.818921,0.005858,0.015717,-0.009145,-11.76,-22.14,-39.48,152.953,-4.0007,-1.7492,55.854675,37.46924,178.8578,0,2766
0.299284,0.69434,9.818921,-0.00636,0.018771,-0.010977,-11.4,-22.5,-39,152.8262,-4.0511,-1.6974,55.854683,37.469227,181.266,0,2775
0.306467,0.682368,9.857229,-0.006971,0.026713,-0.009145,-11.4,-22.5,-39,152.8262,-4.0511,-1.6974,55.854683,37.469227,181.266,0,2786
0.29689,0.691945,9.883567,-0.006971,0.026713,-0.009145,-10.74,-22.02,-38.82,152.8262,-4.0511,-1.6974,55.854683,37.469227,181.266,0,2796
0.323227,0.67758,9.787795,0.001582,0.021215,-0.009145,-10.74,-22.02,-38.82,152.8262,-4.0511,-1.6974,55.854683,37.469227,181.266,0,2806
0.354353,0.699128,9.742304,0.006468,0.010219,-0.008534,-11.16,-21.84,-39.48,152.7895,-4.0431,-1.6703,55.854683,37.469227,181.266,0,2816
0.354353,0.699128,9.742304,0.004636,0.005332,-0.015253,-11.16,-21.84,-39.48,152.7895,-4.0431,-1.6703,55.854683,37.469227,181.266,0,2826
0.356747,0.718282,9.75667,0.002192,0.007776,-0.017086,-11.46,-22.02,-39.48,152.7895,-4.0431,-1.6703,55.854683,37.469227,181.266,0,2836
0.308861,0.720677,9.77343,-0.002695,0.009608,-0.02014,-11.46,-22.02,-39.48,152.7895,-4.0431,-1.6703,55.854683,37.469227,181.266,0,2846
0.251399,0.701523,9.735122,0.001582,0.007776,-0.015253,-11.04,-22.32,-39.3,152.7829,-4.0409,-1.6649,55.854683,37.469227,181.266,0,2856
0.299284,0.758985,9.732727,-0.002695,0.005943,-0.009145,-11.04,-22.32,-39.3,152.7829,-4.0409,-1.6649,55.854683,37.469227,181.266,0,2866
0.299284,0.758985,9.732727,-0.003916,0.010219,-0.007312,-11.04,-22.26,-39.3,152.7829,-4.0409,-1.6649,55.854683,37.469227,181.266,0,2876
0.256187,0.770957,9.742304,-0.016744,0.007165,-0.020751,-10.98,-22.62,-39.24,152.7829,-4.0409,-1.6649,55.854683,37.469227,181.266,0,2886
0.232245,0.730254,9.809344,-0.02041,0.010219,-0.016475,-10.98,-22.62,-39.24,152.7829,-4.0409,-1.6649,55.854683,37.469227,181.266,0,2896
0.208302,0.708705,9.885961,-0.022853,0.013884,-0.018308,-11.7,-22.26,-39.42,150.4904,-4.0698,-1.6963,55.854683,37.469227,181.266,0,2906
0.205908,0.696734,9.852441,-0.018577,0.016939,-0.01281,-11.7,-22.26,-39.42,150.4904,-4.0698,-1.6963,55.854683,37.469227,181.266,0,2916
0.205908,0.696734,9.852441,-0.012468,0.0035,-0.014642,-11.46,-22.32,-39.54,150.4904,-4.0698,-1.6963,55.854683,37.469227,181.266,0,2926
0.227456,0.689551,9.847652,-0.008192,0.006554,-0.014642,-11.46,-22.32,-39.54,150.4904,-4.0698,-1.6963,55.854683,37.469227,181.266,0,2936
0.256187,0.67758,9.871595,-0.008803,0.007165,-0.013421,-11.04,-22.38,-39.42,152.7131,-4.0812,-1.6433,55.854683,37.469227,181.266,0,2946
0.272947,0.67758,9.79019,-0.008803,0.015717,-0.007923,-10.74,-22.14,-39.48,152.7131,-4.0812,-1.6433,55.854683,37.469227,181.266,0,2956
0.272947,0.67758,9.79019,-0.018577,0.021215,-0.009145,-10.74,-22.14,-39.48,152.7131,-4.0812,-1.6433,55.854683,37.469227,181.266,0,2967
0.299284,0.69434,9.79019,-0.02774,0.022436,-0.01281,-10.68,-22.14,-39.42,152.7131,-4.0812,-1.6433,55.854683,37.469227,181.266,0,2976
0.24661,0.701523,9.797373,-0.024075,0.021215,-0.011588,-10.68,-22.14,-39.42,152.7131,-4.0812,-1.6433,55.854683,37.469227,181.266,0,2986
0.227456,0.672791,9.797373,-0.024075,0.021215,-0.011588,-11.04,-22.38,-39.48,152.5735,-4.0663,-1.5481,55.854683,37.469227,181.266,0,2996
0.227456,0.672791,9.797373,-0.019799,0.015717,-0.011588,-11.04,-22.38,-39.48,152.5735,-4.0663,-1.5481,55.854683,37.469227,181.266,0,3006
0.249005,0.64406,9.885961,-0.019188,0.013273,-0.009756,-10.86,-22.62,-39.48,152.5735,-4.0663,-1.5481,55.854683,37.469227,181.266,0,3016
0.203513,0.591386,9.957788,-0.012468,0.018771,0.001851,-10.86,-22.62,-39.48,152.5735,-4.0663,-1.5481,55.854683,37.469227,181.266,0,3026
0.203513,0.591386,9.957788,-0.012468,0.018771,0.001851,-10.14,-22.26,-38.82,154.9323,-4.0239,-1.4983,55.854683,37.469227,181.266,0,3036
0.203513,0.591386,9.957788,-0.012468,0.018771,0.001851,-10.14,-22.26,-38.82,154.9323,-4.0239,-1.4983,55.854683,37.469227,181.266,0,3046
0.203513,0.591386,9.957788,-0.012468,0.018771,0.001851,-10.14,-22.26,-38.82,154.9323,-4.0239,-1.4983,55.854683,37.469227,181.266,0,3056
0.167599,0.572232,9.964972,0.033957,-0.000166,0.024453,-10.14,-22.44,-39,154.9323,-4.0239,-1.4983,55.854683,37.469227,181.266,0,3066
0.277736,0.826025,9.545974,0.033957,-0.000166,0.024453,-10.38,-22.68,-39.84,155.9782,-3.9649,-1.4478,55.854683,37.469227,181.266,0,3076
0.277736,0.826025,9.545974,0.003414,-0.007496,0.006127,-10.38,-22.68,-39.84,155.9782,-3.9649,-1.4478,55.854683,37.469227,181.266,0,3086
0.320833,0.859545,9.524426,-0.014301,-0.001387,-0.002425,-10.32,-22.14,-39.72,155.9782,-3.9649,-1.4478,55.854683,37.469227,181.266,0,3096
0.181965,0.725465,9.701602,-0.04912,0.010219,-0.012199,-10.32,-22.14,-39.72,155.9782,-3.9649,-1.4478,55.854683,37.469227,181.266,0,3106
0.136474,0.596174,9.828498,-0.061338,0.021215,-0.000593,-10.44,-22.08,-38.58,154.8201,-3.9715,-1.4051,55.854683,37.469227,181.266,0,3116
0.136474,0.596174,9.828498,-0.054007,0.013273,0.011625,-10.74,-22.5,-38.46,154.8201,-3.9715,-1.4051,55.854683,37.469227,181.266,0,3126
0.210696,0.617723,9.943423,-0.029573,0.002278,0.01529,-10.74,-22.5,-38.46,154.8201,-3.9715,-1.4051,55.854683,37.469227,181.266,0,3135
0.244216,0.596174,9.976943,-0.015523,-0.003831,0.010403,-10.5,-22.44,-38.64,154.8201,-3.9715,-1.4051,55.854683,37.469227,181.266,0,3146
0.158022,0.565049,9.957788,-0.002695,-0.009329,0.010403,-10.5,-22.44,-38.64,154.8201,-3.9715,-1.4051,55.854683,37.469227,181.266,0,3156
0.110137,0.545895,10.000886,-0.00636,-0.004442,0.023231,-11.04,-22.02,-38.16,152.4197,-3.929,-1.359,55.854683,37.469227,181.266,0,3166
0.110137,0.545895,10.000886,-0.00636,0.011441,0.045222,-11.1,-22.32,-38.46,152.4197,-3.929,-1.359,55.854683,37.469227,181.266,0,3176
0.131685,0.550683,9.984126,-0.00636,0.011441,0.045222,-11.1,-22.32,-38.46,152.4197,-3.929,-1.359,55.854683,37.469227,181.266,0,3186
0.24661,0.605752,9.931452,-0.010636,0.019382,0.061716,-11.28,-22.8,-38.88,152.4197,-3.929,-1.359,55.854683,37.469227,181.266,0,3196
0.28013,0.639271,9.873989,-0.007581,0.030989,0.058051,-11.28,-22.8,-38.88,152.4197,-3.929,-1.359,55.854683,37.469227,181.266,0,3207
0.28013,0.639271,9.873989,-0.001473,0.026102,0.052553,-10.5,-22.86,-39.42,155.841,-3.8014,-1.2775,55.854683,37.469227,181.266,0,3216
0.311256,0.682368,9.787795,0.000971,0.012663,0.040946,-10.5,-22.86,-39.42,155.841,-3.8014,-1.2775,55.854683,37.469227,181.266,0,3226
0.289707,0.684763,9.79019,0.003414,0.004721,0.032394,-9.48,-22.14,-39.42,155.841,-3.8014,-1.2775,55.854683,37.469227,181.266,0,3236
0.249005,0.715888,9.747093,0.004025,-0.002609,0.033616,-9.48,-22.14,-39.42,155.841,-3.8014,-1.2775,55.854683,37.469227,181.266,0,3246
0.272947,0.701523,9.70639,0.00036,-0.003831,0.031783,-9.54,-21.6,-39.24,154.7307,-3.722,-1.2283,55.854683,37.469227,181.266,0,3256
0.272947,0.701523,9.70639,-0.012468,-0.00322,0.033616,-9.54,-21.6,-39.24,154.7307,-3.722,-1.2283,55.854683,37.469227,181.266,0,3266
0.294496,0.718282,9.783007,-0.016744,0.000445,0.034227,-10.92,-21.9,-39.12,154.7307,-3.722,-1.2283,55.854683,37.469227,181.266,0,3276
0.323227,0.735042,9.80695,-0.016744,0.000445,0.034227,-10.92,-21.9,-39.12,154.7307,-3.722,-1.2283,55.854683,37.469227,181.266,0,3286
0.323227,0.735042,9.80695,-0.012468,-0.002609,0.028729,-11.52,-21.72,-39.78,150.1488,-3.758,-1.3077,55.854683,37.469227,181.266,0,3296
0.337593,0.72786,9.794978,-0.012468,-0.004442,0.020177,-11.52,-21.72,-39.78,150.1488,-3.758,-1.3077,55.854683,37.469227,181.266,0,3306
0.316044,0.691945,9.799767,-0.014301,-0.008107,0.015901,-11.1,-21.78,-39.72,150.1488,-3.758,-1.3077,55.854683,37.469227,181.266,0,3316
0.299284,0.703917,9.864412,-0.014301,-0.009329,0.009792,-11.1,-21.78,-39.72,150.1488,-3.758,-1.3077,55.854683,37.469227,181.266,0,3326
0.299284,0.703917,9.864412,-0.002084,-0.017881,0.00796,-11.34,-22.2,-39.12,152.5705,-3.8338,-1.42,55.854683,37.469227,181.266,0,3336
0.306467,0.66082,9.854836,-0.005138,-0.01055,0.00857,-11.34,-22.2,-39.12,152.5705,-3.8338,-1.42,55.854683,37.469227,181.266,0,3346
0.301679,0.66082,9.79019,-0.012468,0.001056,0.00796,-11.22,-22.14,-39.18,152.5705,-3.8338,-1.42,55.854683,37.469227,181.266,0,3356
0.270553,0.656031,9.799767,-0.027129,0.005332,0.007349,-11.22,-22.14,-39.18,152.5705,-3.8338,-1.42,55.854683,37.469227,181.266,0,3366
0.284919,0.636877,9.830893,-0.024075,-0.004442,0.005516,-10.68,-22.2,-39.18,152.7037,-3.8984,-1.5387,55.854683,37.469227,181.266,0,3376
0.284919,0.636877,9.830893,-0.017355,-0.009329,0.00124,-10.68,-22.2,-39.18,152.7037,-3.8984,-1.5387,55.854683,37.469227,181.266,0,3386
0.203513,0.6273,9.869201,-0.014301,-0.007496,0.003073,-11.16,-22.2,-39.12,152.7037,-3.8984,-1.5387,55.854683,37.469227,181.266,0,3396
0.203513,0.612934,9.754275,-0.01369,-0.012383,0.00857,-11.16,-22.2,-39.12,152.7037,-3.8984,-1.5387,55.854683,37.469227,181.266,0,3406
0.210696,0.648849,9.80695,-0.019799,-0.012994,0.004905,-11.46,-21.84,-39.3,152.8355,-3.8596,-1.6005,55.854683,37.469227,181.266,0,3416
0.210696,0.648849,9.80695,-0.014301,-0.016048,-0.001814,-11.46,-21.84,-39.3,152.8355,-3.8596,-1.6005,55.854683,37.469227,181.266,0,3426
0.184359,0.61054,9.938635,0.005247,-0.015437,0.003684,-11.4,-22.08,-39.66,152.8355,-3.8596,-1.6005,55.854683,37.469227,181.266,0,3436
0.134079,0.600963,9.850046,0.018686,-0.017881,0.004905,-11.4,-22.08,-39.66,152.8355,-3.8596,-1.6005,55.854683,37.469227,181.266,0,3446
0.134079,0.600963,9.850046,0.015021,-0.0246,0.01529,-10.86,-21.96,-39.84,152.8282,-3.8295,-1.5893,55.854683,37.469227,181.266,0,3456
0.138868,0.61054,9.77343,0.015021,-0.0246,0.01529,-10.86,-21.96,-39.84,152.8282,-3.8295,-1.5893,55.854683,37.469227,181.266,0,3466
0.244216,0.672791,9.792584,0.005247,-0.016659,0.021399,-10.74,-21.12,-39.96,152.8282,-3.8295,-1.5893,55.854683,37.469227,181.266,0,3476
0.268159,0.675186,9.77343,-0.003305,-0.001998,0.024453,-10.74,-21.12,-39.96,152.8282,-3.8295,-1.5893,55.854683,37.469227,181.266,0,3486
0.268159,0.675186,9.77343,-0.016744,0.0035,0.016512,-11.16,-21.42,-40.02,151.4751,-3.8003,-1.5161,55.854683,37.469227,181.266,0,3496
0.244216,0.670397,9.80695,-0.02041,0.008387,0.013457,-11.16,-21.42,-40.02,151.4751,-3.8003,-1.5161,55.854683,37.469227,181.266,0,3506
0.289707,0.622511,9.785401,-0.030794,0.021215,0.00796,-10.86,-21.9,-39.36,151.4751,-3.8003,-1.5161,55.854683,37.469227,181.266,0,3516
0.270553,0.636877,9.799767,-0.02102,0.008387,0.007349,-10.86,-21.84,-39.24,151.4751,-3.8003,-1.5161,55.854683,37.469227,181.266,0,3526
0.270553,0.636877,9.799767,-0.016134,0.000445,0.003684,-10.86,-21.84,-39.24,151.4751,-3.8003,-1.5161,55.854683,37.469227,181.266,0,3537
0.244216,0.605752,9.787795,-0.010636,-0.011161,1.8E-05,-10.62,-21.96,-39.36,152.6475,-3.7482,-1.4223,55.854683,37.469227,181.266,0,3546
0.237033,0.59378,9.794978,-0.002695,-0.018492,0.003684,-10.8,-21.6,-39.78,152.6475,-3.7482,-1.4223,55.854683,37.469227,181.266,0,3556
0.220273,0.586597,9.754275,0.002192,-0.020935,0.00124,-10.8,-21.6,-39.78,152.6475,-3.7482,-1.4223,55.854683,37.469227,181.266,0,3566
0.220273,0.586597,9.754275,-0.004527,-0.014215,0.005516,-11.46,-21.78,-39.18,152.6475,-3.7482,-1.4223,55.854683,37.469227,181.266,0,3576
0.232245,0.581809,9.780613,-0.012468,-0.001998,0.005516,-11.46,-21.78,-39.18,152.6475,-3.7482,-1.4223,55.854683,37.469227,181.266,0,3586
0.174782,0.598569,9.847652,-0.01369,0.013884,0.013457,-11.34,-21.96,-39,152.7434,-3.6788,-1.4455,55.854683,37.469227,181.266,0,3596
0.148445,0.61054,9.804555,-0.019799,0.020604,0.017123,-11.34,-21.96,-39,152.7434,-3.6788,-1.4455,55.854683,37.469227,181.266,0,3606
0.148445,0.61054,9.804555,-0.019799,0.020604,0.017123,-11.16,-22.02,-39.36,152.7434,-3.6788,-1.4455,55.854683,37.469227,181.266,0,3616
0.165205,0.6273,9.802161,-0.014301,0.012052,0.015901,-11.16,-22.02,-39.36,152.7434,-3.6788,-1.4455,55.854683,37.469227,181.266,0,3626
0.237033,0.634483,9.751882,-0.001473,-0.004442,0.017733,-10.8,-21.78,-39.78,152.6951,-3.64,-1.4062,55.854683,37.469227,181.266,0,3636
0.253793,0.622511,9.835681,-0.010025,-0.001998,0.003073,-10.8,-21.78,-39.78,152.6951,-3.64,-1.4062,55.854683,37.469227,181.266,0,3646
0.253793,0.622511,9.835681,-0.012468,0.005332,-0.002425,-10.98,-21.66,-39.66,152.6951,-3.64,-1.4062,55.854683,37.469227,181.266,0,3656
0.158022,0.581809,9.859624,-0.003305,0.007776,0.006127,-10.98,-21.66,-39.66,152.6951,-3.64,-1.4062,55.854683,37.469227,181.266,0,3665
0.138868,0.579415,9.80695,-0.002084,0.005943,0.014679,-11.34,-21.72,-39.48,152.6372,-3.6048,-1.3385,55.854683,37.469227,181.266,0,3676
0.184359,0.629694,9.763853,0.00036,-0.000776,0.018955,-11.34,-21.72,-39.48,152.6372,-3.6048,-1.3385,55.854683,37.469227,181.266,0,3686
0.184359,0.629694,9.763853,0.001582,-0.011161,0.013457,-11.16,-21.48,-39.42,152.6372,-3.6048,-1.3385,55.854683,37.469227,181.266,0,3696
0.265765,0.620117,9.763853,0.00036,-0.011161,0.004905,-11.16,-21.84,-39.42,152.6372,-3.6048,-1.3385,55.854683,37.469227,181.266,0,3706
0.222668,0.591386,9.780613,0.002192,0.000445,-0.000593,-11.16,-21.84,-39.42,152.6372,-3.6048,-1.3385,55.854683,37.469227,181.266,0,3716
0.222668,0.591386,9.780613,-0.012468,0.0035,0.001851,-11.1,-22.32,-40.14,152.5237,-3.5783,-1.2672,55.854683,37.469227,181.266,0,3726
0.203513,0.584203,9.737515,-0.012468,0.0035,0.001851,-11.1,-22.32,-40.14,152.5237,-3.5783,-1.2672,55.854683,37.469227,181.266,0,3736
0.244216,0.605752,9.715967,-0.016744,0.008387,0.007349,-11.1,-22.32,-40.14,152.5237,-3.5783,-1.2672,55.854683,37.469227,181.266,0,3746
0.272947,0.588992,9.799767,-0.02041,-0.001998,0.00857,-11.4,-21.96,-39.96,152.5237,-3.5783,-1.2672,55.854683,37.469227,181.266,0,3756
0.272947,0.588992,9.799767,-0.018577,-0.00322,0.006738,-11.4,-21.96,-39.96,152.5237,-3.5783,-1.2672,55.854683,37.469227,181.266,0,3767
0.284919,0.567443,9.862018,-0.002695,-0.011772,0.004905,-11.46,-21.42,-39.72,151.294,-3.556,-1.2692,55.854683,37.469227,181.266,0,3776
0.282524,0.553077,9.924269,0.015021,-0.01055,0.004905,-11.46,-21.42,-39.72,151.294,-3.556,-1.2692,55.854694,37.469227,184.356,0,3786
0.268159,0.648849,9.768641,0.033347,-0.008718,0.010403,-10.92,-21.24,-39.6,151.294,-3.556,-1.2692,55.854694,37.469227,184.356,0,3796
0.268159,0.648849,9.768641,0.024184,-0.009939,0.006127,-10.92,-21.24,-39.6,151.294,-3.556,-1.2692,55.854694,37.469227,184.356,0,3806
0.272947,0.766168,9.562734,0.001582,-0.013605,-0.003647,-11.22,-21.66,-39.6,152.6767,-3.5125,-1.3263,55.854694,37.469227,184.356,0,3816
0.284919,0.794899,9.483723,-0.039346,-0.01055,-0.013421,-11.22,-21.66,-39.6,152.6767,-3.5125,-1.3263,55.854694,37.469227,184.356,0,3826
0.316044,0.720677,9.62259,-0.074166,0.012052,-0.028081,-11.46,-21.96,-39.18,152.6767,-3.5125,-1.3263,55.854694,37.469227,184.356,0,3836
0.169994,0.579415,9.93624,-0.086383,0.035265,-0.020751,-11.46,-21.96,-39.18,152.6767,-3.5125,-1.3263,55.854694,37.469227,184.356,0,3846
0.169994,0.579415,9.93624,-0.068057,0.040152,-0.004869,-10.92,-21.9,-38.94,152.7642,-3.5864,-1.4091,55.854694,37.469227,184.356,0,3856
0.172388,0.495615,10.034406,-0.038736,0.019993,0.000629,-10.92,-21.9,-38.94,152.7642,-3.5864,-1.4091,55.854694,37.469227,184.356,0,3866
0.227456,0.5435,10.058349,-0.038736,0.019993,0.000629,-10.74,-21.18,-39.18,152.7642,-3.5864,-1.4091,55.854694,37.469227,184.356,0,3876
0.282524,0.550683,9.96976,-0.000251,-0.004442,-0.007312,-10.74,-21.18,-39.18,152.7642,-3.5864,-1.4091,55.854694,37.469227,184.356,0,3886
0.282524,0.545895,9.909904,0.021129,-0.023989,-0.013421,-10.86,-21.12,-39.54,151.5344,-3.5204,-1.3934,55.854694,37.469227,184.356,0,3896
0.282524,0.545895,9.909904,0.021129,-0.01727,-0.015864,-10.86,-21.12,-39.54,151.5344,-3.5204,-1.3934,55.854694,37.469227,184.356,0,3906
0.205908,0.548289,9.850046,0.006468,0.009608,-0.00609,-10.86,-21.66,-40.14,151.5344,-3.5204,-1.3934,55.854694,37.469227,184.356,0,3916
0.253793,0.569837,9.818921,-0.003305,0.019993,-0.000593,-10.86,-21.66,-40.14,151.5344,-3.5204,-1.3934,55.854694,37.469227,184.356,0,3926
0.265765,0.608146,9.814133,-0.004527,0.029767,-0.001203,-10.92,-21.96,-39.78,152.8032,-3.5303,-1.414,55.854694,37.469227,184.356,0,3936
0.26337,0.636877,9.727939,0.004025,0.023658,-0.00609,-10.92,-21.96,-39.78,152.8032,-3.5303,-1.414,55.854694,37.469227,184.356,0,3946
0.26337,0.636877,9.727939,0.018075,-0.001998,-0.009756,-11.34,-22.14,-39.66,152.8032,-3.5303,-1.414,55.854694,37.469227,184.356,0,3956
0.249005,0.622511,9.682447,0.022351,-0.014215,-0.017086,-11.34,-22.14,-39.66,152.8032,-3.5303,-1.414,55.854694,37.469227,184.356,0,3966
0.239427,0.596174,9.708784,0.015631,-0.016048,-0.017086,-11.34,-21.96,-39.54,152.7219,-3.532,-1.3647,55.854694,37.469227,184.356,0,3976
0.189148,0.59378,9.696813,0.005858,-0.008107,-0.017697,-11.34,-21.96,-39.54,152.7219,-3.532,-1.3647,55.854694,37.469227,184.356,0,3986
0.189148,0.59378,9.696813,-0.00636,-0.006885,-0.01281,-11.1,-22.02,-39.48,152.7219,-3.532,-1.3647,55.854694,37.469227,184.356,0,3995
0.177176,0.538712,9.668081,-0.00636,-0.006885,-0.01281,-11.1,-22.02,-39.48,152.7219,-3.532,-1.3647,55.854694,37.469227,184.356,0,4006
0.126897,0.541106,9.646533,-0.014301,-0.011161,-0.003036,-10.26,-22.14,-39.66,155.0831,-3.5772,-1.3796,55.854694,37.469227,184.356,0,4017
0.284919,0.56026,9.814133,-0.015523,-0.0246,0.006738,-10.26,-22.14,-39.66,155.0831,-3.5772,-1.3796,55.854694,37.469227,184.356,0,4026
0.342381,0.588992,9.847652,-0.02102,-0.015437,0.005516,-9.66,-21.72,-39.72,155.0831,-3.5772,-1.3796,55.854694,37.469227,184.356,0,4036
0.342381,0.588992,9.847652,-0.018577,-0.005663,-0.006701,-9.66,-21.72,-39.72,155.0831,-3.5772,-1.3796,55.854694,37.469227,184.356,0,4046
0.256187,0.608146,9.771035,-0.013079,-0.005052,-0.01281,-10.5,-21.42,-39.9,153.9851,-3.5543,-1.4109,55.854694,37.469227,184.356,0,4056
0.203513,0.57702,9.747093,-0.016134,-0.016048,-0.010366,-10.5,-21.42,-39.9,153.9851,-3.5543,-1.4109,55.854694,37.469227,184.356,0,4067
0.22985,0.600963,9.826104,-0.017355,-0.020324,-0.003036,-10.74,-21.66,-39.72,153.9851,-3.5543,-1.4109,55.854694,37.469227,184.356,0,4076
0.26337,0.615329,9.845258,-0.007581,-0.027654,-0.002425,-10.74,-21.66,-39.72,153.9851,-3.5543,-1.4109,55.854694,37.469227,184.356,0,4086
0.26337,0.615329,9.845258,-0.006971,-0.023989,-0.001814,-10.98,-21.3,-39.18,151.6484,-3.4864,-1.4313,55.854694,37.469227,184.356,0,4095
0.323227,0.6273,9.830893,-0.016744,-0.021546,-0.008534,-10.98,-21.3,-39.18,151.6484,-3.4864,-1.4313,55.854694,37.469227,184.356,0,4106
0.392661,0.682368,9.890749,-0.017966,-0.014826,-0.024416,-11.1,-21.18,-39.78,151.6484,-3.4864,-1.4313,55.854694,37.469227,184.356,0,4116
0.325621,0.622511,9.931452,-0.011858,-0.016659,-0.035412,-11.1,-21.18,-39.78,151.6484,-3.4864,-1.4313,55.854694,37.469227,184.356,0,4126
0.222668,0.586597,9.964972,-0.005138,-0.013605,-0.034801,-11.16,-21.54,-40.26,152.978,-3.4552,-1.4818,55.854694,37.469227,184.356,0,4136
0.222668,0.586597,9.964972,0.00769,-0.011161,-0.030525,-11.16,-21.54,-40.26,152.978,-3.4552,-1.4818,55.854694,37.469227,184.356,0,4146
0.21309,0.591386,9.914692,0.01441,-0.014826,-0.021973,-11.64,-21.6,-39.18,152.978,-3.4552,-1.4818,55.854694,37.469227,184.356,0,4156
0.21309,0.591386,9.914692,0.01441,-0.014826,-0.021973,-11.64,-21.6,-39.18,152.978,-3.4552,-1.4818,55.854694,37.469227,184.356,0,4165
0.21309,0.591386,9.914692,0.01441,-0.014826,-0.021973,-11.64,-21.6,-39.18,152.978,-3.4552,-1.4818,55.854694,37.469227,184.356,0,4176
0.193936,0.57702,9.852441,0.015631,-0.013605,-0.024416,-11.76,-21.84,-38.94,150.8209,-3.4823,-1.5674,55.854694,37.469227,184.356,0,4186
0.193936,0.57702,9.852441,0.009523,-0.004442,-0.015253,-11.76,-21.84,-38.94,150.8209,-3.4823,-1.5674,55.854694,37.469227,184.356,0,4196
0.222668,0.538712,9.859624,0.008912,-0.003831,-0.016475,-11.28,-21.54,-39.36,150.8209,-3.4823,-1.5674,55.854694,37.469227,184.356,0,4205
0.260976,0.569837,9.828498,0.011355,-0.001387,-0.02014,-11.28,-21.54,-39.36,150.8209,-3.4823,-1.5674,55.854694,37.469227,184.356,0,4216
0.249005,0.584203,9.780613,0.011355,-0.001387,-0.02014,-10.98,-21,-38.88,151.8294,-3.4835,-1.541,55.854694,37.469227,184.356,0,4226
0.249005,0.584203,9.780613,0.013188,-0.012994,-0.025638,-10.98,-21,-38.88,151.8294,-3.4835,-1.541,55.854694,37.469227,184.356,0,4236
0.256187,0.548289,9.737515,0.011355,-0.023989,-0.032968,-11.16,-21,-38.82,151.8294,-3.4835,-1.541,55.854694,37.469227,184.356,0,4246
0.244216,0.545895,9.816526,0.002803,-0.015437,-0.025638,-11.16,-21,-38.82,151.8294,-3.4835,-1.541,55.854694,37.469227,184.356,0,4256
0.24661,0.533923,9.866806,-0.000251,-0.001998,-0.01281,-11.28,-21.3,-39.54,151.7821,-3.4597,-1.5076,55.854694,37.469227,184.356,0,4266
0.258582,0.545895,9.847652,0.003414,0.008387,-0.00609,-11.4,-21.78,-39.3,151.7821,-3.4597,-1.5076,55.854694,37.469227,184.356,0,4276
0.258582,0.545895,9.847652,0.001582,0.007776,-0.004258,-11.4,-21.78,-39.3,151.7821,-3.4597,-1.5076,55.854694,37.469227,184.356,0,4286
0.28013,0.581809,9.845258,0.001582,0.005332,-0.003036,-11.46,-21.9,-39.42,151.7821,-3.4597,-1.5076,55.854694,37.469227,184.356,0,4296
0.284919,0.586597,9.823709,0.002803,-0.004442,-0.007923,-11.22,-21.78,-39,153.0442,-3.3956,-1.485,55.854694,37.469227,184.356,0,4306
0.301679,0.57702,9.850046,0.003414,-0.000166,-0.002425,-11.22,-21.78,-39,153.0442,-3.3956,-1.485,55.854694,37.469227,184.356,0,4316
0.301679,0.57702,9.850046,-0.000251,0.011441,0.000629,-10.5,-21.54,-39.42,153.0442,-3.3956,-1.485,55.854694,37.469227,184.356,0,4325
0.320833,0.620117,9.850046,0.003414,0.012052,-0.002425,-10.56,-21.78,-39.66,153.0442,-3.3956,-1.485,55.854694,37.469227,184.356,0,4336
0.320833,0.629694,9.842864,0.010134,0.01083,-0.004869,-10.56,-21.78,-39.66,153.0442,-3.3956,-1.485,55.854694,37.469227,184.356,0,4346
0.323227,0.646454,9.797373,0.004636,0.005332,-0.009145,-10.86,-21.96,-39.24,153.0952,-3.3619,-1.4995,55.854694,37.469227,184.356,0,4356
0.323227,0.668003,9.804555,0.003414,0.008387,-0.013421,-10.86,-21.96,-39.24,153.0952,-3.3619,-1.4995,55.854694,37.469227,184.356,0,4366
0.323227,0.668003,9.804555,0.003414,0.008387,-0.013421,-10.62,-21.42,-39.24,153.0952,-3.3619,-1.4995,55.854694,37.469227,184.356,0,4377
0.332804,0.64406,9.799767,0.004025,0.012663,-0.011588,-10.62,-21.42,-39.24,153.0952,-3.3619,-1.4995,55.854694,37.469227,184.356,0,4387
0.344776,0.656031,9.775824,0.010134,0.008387,-0.015253,-10.86,-21.6,-39.72,153.1455,-3.3956,-1.5534,55.854694,37.469227,184.356,0,4396
0.339987,0.636877,9.775824,0.005247,0.004721,-0.025638,-10.86,-21.6,-39.72,153.1455,-3.3956,-1.5534,55.854694,37.469227,184.356,0,4406
0.339987,0.636877,9.775824,0.005858,-0.000166,-0.037855,-11.34,-21.6,-39.54,153.1455,-3.3956,-1.5534,55.854694,37.469227,184.356,0,4416
0.282524,0.6273,9.845258,0.010134,0.004721,-0.031747,-11.34,-21.6,-39.54,153.1455,-3.3956,-1.5534,55.854694,37.469227,184.356,0,4426
0.181965,0.569837,9.797373,0.013188,0.007165,-0.024416,-11.4,-21.12,-39.42,151.9796,-3.4793,-1.6307,55.854694,37.469227,184.356,0,4436
0.141262,0.567443,9.763853,0.005247,0.009608,-0.014032,-11.4,-21.12,-39.42,151.9796,-3.4793,-1.6307,55.854694,37.469227,184.356,0,4445
0.143657,0.572232,9.720756,-0.003916,0.015106,-0.006701,-11.4,-21.66,-39.72,151.9796,-3.4793,-1.6307,55.854694,37.469227,184.356,0,4456
0.143657,0.572232,9.720756,-0.010636,0.010219,0.004905,-11.4,-21.66,-39.72,151.9796,-3.4793,-1.6307,55.854694,37.469227,184.356,0,4466
0.181965,0.586597,9.77343,-0.007581,0.008387,-0.000593,-11.04,-21.6,-39.78,153.1555,-3.5448,-1.638,55.854694,37.469227,184.356,0,4476
0.253793,0.59378,9.761458,-0.009414,0.001056,-0.004869,-11.04,-21.6,-39.78,153.1555,-3.5448,-1.638,55.854694,37.469227,184.356,0,4486
0.22985,0.555472,9.818921,-0.007581,-0.00322,-0.003647,-11.28,-21.12,-39.42,153.1555,-3.5448,-1.638,55.854694,37.469227,184.356,0,4496
0.244216,0.553077,9.854836,-0.002084,-0.000776,-0.003036,-11.28,-21.12,-39.42,153.1555,-3.5448,-1.638,55.854694,37.469227,184.356,0,4506
0.244216,0.553077,9.854836,-0.002695,0.007165,-0.001814,-11.28,-21.12,-38.82,151.7731,-3.5154,-1.5242,55.854694,37.469227,184.356,0,4516
0.234639,0.591386,9.838076,0.00036,0.011441,1.8E-05,-11.28,-21.12,-38.82,151.7731,-3.5154,-1.5242,55.854694,37.469227,184.356,0,4526
0.181965,0.636877,9.730332,-0.000862,0.002278,0.001851,-11.1,-21.3,-39.12,151.7731,-3.5154,-1.5242,55.854694,37.469227,184.356,0,4537
0.191542,0.701523,9.682447,-0.008192,-0.005663,-0.002425,-11.1,-21.3,-39.12,151.7731,-3.5154,-1.5242,55.854694,37.469227,184.356,0,4546
0.172388,0.672791,9.720756,-0.016134,-0.013605,-0.006701,-10.98,-21.54,-39.18,152.9588,-3.4685,-1.4695,55.854694,37.469227,184.356,0,4556
0.172388,0.672791,9.720756,-0.016134,-0.013605,-0.006701,-10.98,-21.54,-39.18,152.9588,-3.4685,-1.4695,55.854694,37.469227,184.356,0,4566
0.153234,0.612934,9.768641,-0.033238,-0.008718,-0.001203,-10.68,-21.36,-38.64,152.9588,-3.4685,-1.4695,55.854694,37.469227,184.356,0,4576
0.150839,0.536318,9.931452,-0.056451,0.004721,0.003684,-10.68,-21.36,-38.64,152.9588,-3.4685,-1.4695,55.854694,37.469227,184.356,0,4586
0.153234,0.521952,10.015251,-0.058283,0.013884,0.00857,-10.8,-21.12,-38.64,151.5974,-3.494,-1.4042,55.854694,37.469227,184.356,0,4596
0.153234,0.447729,9.979338,-0.050342,0.011441,0.017733,-10.8,-21.12,-38.64,151.5974,-3.494,-1.4042,55.854694,37.469227,184.356,0,4606
0.153234,0.447729,9.979338,-0.038736,-0.008718,0.025064,-10.62,-21.3,-39.24,151.5974,-3.494,-1.4042,55.854694,37.469227,184.356,0,4617
0.153234,0.385478,10.144543,-0.029573,-0.025211,0.03667,-10.62,-21.3,-39.24,151.5974,-3.494,-1.4042,55.854694,37.469227,184.356,0,4626
0.155628,0.387873,10.257073,0.002803,-0.025211,0.055607,-10.44,-21.54,-40.32,155.0472,-3.4023,-1.2739,55.854694,37.469227,184.356,0,4636
0.138868,0.440547,10.185245,0.032125,-0.026433,0.072711,-10.44,-21.54,-40.32,155.0472,-3.4023,-1.2739,55.854694,37.469227,184.356,0,4646
0.215485,0.538712,10.005674,0.051062,-0.036817,0.089205,-10.68,-21.84,-40.74,155.0472,-3.4023,-1.2739,55.854694,37.469227,184.356,0,4655
0.215485,0.538712,10.005674,0.058392,-0.049035,0.091648,-10.68,-21.84,-40.74,155.0472,-3.4023,-1.2739,55.854694,37.469227,184.356,0,4666
0.320833,0.634483,9.897932,0.051062,-0.049035,0.086761,-10.62,-22.14,-39.54,152.7458,-3.2253,-1.2155,55.854694,37.469227,184.356,0,4676
0.409421,0.653637,9.885961,0.043731,-0.028265,0.083707,-10.62,-22.14,-39.54,152.7458,-3.2253,-1.2155,55.854694,37.469227,184.356,0,4686
0.421392,0.684763,9.833286,0.043731,-0.028265,0.083707,-10.26,-21.72,-38.64,152.7458,-3.2253,-1.2155,55.854694,37.469227,184.356,0,4696
0.442941,0.689551,9.696813,0.03579,-0.014215,0.07149,-10.26,-21.72,-38.64,152.7458,-3.2253,-1.2155,55.854694,37.469227,184.356,0,4706
0.442941,0.689551,9.696813,0.029681,-0.018492,0.062937,-10.68,-21.18,-39.06,151.6017,-3.2545,-1.2723,55.854694,37.469227,184.356,0,4716
0.426181,0.730254,9.677659,0.022351,-0.020324,0.05744,-10.68,-21.18,-39.06,151.6017,-3.2545,-1.2723,55.854694,37.469227,184.356,0,4726
0.452518,0.69434,9.663293,0.016853,-0.027044,0.044001,-11.58,-21.54,-39.48,151.6017,-3.2545,-1.2723,55.854694,37.469227,184.356,0,4736
0.416604,0.703917,9.749487,0.002192,-0.008107,0.034227,-11.58,-21.54,-39.48,151.6017,-3.2545,-1.2723,55.854694,37.469227,184.356,0,4746
0.402238,0.648849,9.720756,-0.003305,0.008997,0.026896,-11.4,-22.02,-39.66,152.8374,-3.3245,-1.3254,55.854694,37.469227,184.356,0,4756
0.402238,0.648849,9.720756,-0.001473,0.004111,0.034838,-11.4,-22.02,-39.66,152.8374,-3.3245,-1.3254,55.854694,37.469227,184.356,0,4766
0.368718,0.620117,9.711179,-0.002084,-0.006274,0.02934,-10.92,-21.84,-39.9,152.8374,-3.3245,-1.3254,55.854694,37.469227,184.356,0,4776
0.39745,0.648849,9.682447,-0.000862,-0.01727,0.016512,-10.92,-21.84,-39.9,152.8374,-3.3245,-1.3254,55.854694,37.469227,184.356,0,4786
0.395055,0.605752,9.715967,0.002192,-0.018492,0.011014,-11.16,-22.08,-39.36,152.8758,-3.3314,-1.3438,55.854694,37.469227,184.356,0,4796
0.368718,0.608146,9.703996,0.005858,-0.028265,0.00857,-11.16,-22.08,-39.36,152.8758,-3.3314,-1.3438,55.854725,37.4692,186.9435,0,4806
0.368718,0.608146,9.703996,0.007079,-0.030098,0.00796,-10.86,-21.96,-39.42,152.8758,-3.3314,-1.3438,55.854725,37.4692,186.9435,0,4816
0.378295,0.569837,9.711179,0.002192,-0.021546,0.005516,-10.86,-21.96,-39.42,152.8758,-3.3314,-1.3438,55.854725,37.4692,186.9435,0,4826
0.368718,0.565049,9.744699,-0.005749,-0.003831,0.005516,-10.86,-21.42,-40.02,151.888,-3.4097,-1.5431,55.854725,37.4692,186.9435,0,4836
0.34717,0.57702,9.713573,-0.018577,0.013884,0.004294,-10.86,-21.42,-40.02,151.888,-3.4097,-1.5431,55.854725,37.4692,186.9435,0,4846
0.328016,0.584203,9.701602,-0.033849,0.028545,0.013457,-11.16,-21.24,-39.9,151.888,-3.4097,-1.5431,55.854725,37.4692,186.9435,0,4856
0.328016,0.584203,9.701602,-0.046677,0.040152,0.011014,-11.16,-21.24,-39.9,151.888,-3.4097,-1.5431,55.854725,37.4692,186.9435,0,4866
0.311256,0.620117,9.749487,-0.048509,0.045649,0.011014,-11.7,-21,-39.66,149.886,-3.4698,-1.795,55.854725,37.4692,186.9435,0,4876
0.318439,0.598569,9.749487,-0.044844,0.03221,0.007349,-11.7,-21,-39.66,149.886,-3.4698,-1.795,55.854725,37.4692,186.9435,0,4886
0.308861,0.6273,9.754275,-0.033238,0.013273,0.003073,-12.06,-21.3,-39.66,149.886,-3.4698,-1.795,55.854725,37.4692,186.9435,0,4896
0.335198,0.608146,9.783007,-0.025297,0.010219,0.000629,-12.06,-21.54,-39.6,149.886,-3.4698,-1.795,55.854725,37.4692,186.9435,0,4906
0.335198,0.608146,9.783007,-0.028962,0.010219,-0.003036,-12.06,-21.54,-39.6,149.886,-3.4698,-1.795,55.854725,37.4692,186.9435,0,4915
0.371113,0.588992,9.775824,-0.033849,0.007776,-0.000593,-11.82,-21.96,-39.78,151.2985,-3.4034,-1.8362,55.854725,37.4692,186.9435,0,4926
0.366324,0.521952,9.929058,-0.030183,0.012052,-0.001203,-11.28,-22.08,-39.48,151.2985,-3.4034,-1.8362,55.854725,37.4692,186.9435,0,4936
0.38069,0.490826,10.027223,-0.015523,0.015717,-0.005479,-11.28,-22.08,-39.48,151.2985,-3.4034,-1.8362,55.854725,37.4692,186.9435,0,4945
0.38069,0.490826,10.027223,0.015021,0.011441,-0.009756,-11.04,-22.08,-39.06,151.2985,-3.4034,-1.8362,55.854725,37.4692,186.9435,0,4956
0.390267,0.507586,9.993703,0.040677,0.001056,-0.013421,-11.04,-22.08,-39.06,151.2985,-3.4034,-1.8362,55.854725,37.4692,186.9435,0,4968
0.387873,0.56026,9.873989,0.051672,-0.012994,-0.023195,-10.8,-22.5,-39.78,153.6994,-3.3714,-1.8796,55.854725,37.4692,186.9435,0,4976
0.385478,0.639271,9.668081,0.04984,-0.013605,-0.031136,-10.8,-22.5,-39.78,153.6994,-3.3714,-1.8796,55.854725,37.4692,186.9435,0,4986
0.39745,0.670397,9.569917,0.025405,0.002889,-0.040299,-10.92,-21.48,-39.96,153.6994,-3.3714,-1.8796,55.854725,37.4692,186.9435,0,4996
0.359141,0.684763,9.591465,-0.002695,0.02488,-0.047018,-10.92,-21.48,-39.96,153.6994,-3.3714,-1.8796,55.854725,37.4692,186.9435,0,5006
0.359141,0.684763,9.591465,-0.019188,0.037708,-0.044575,-11.16,-21,-39,152.5823,-3.4072,-1.958,55.854725,37.4692,186.9435,0,5016
0.304073,0.653637,9.608225,-0.02774,0.037708,-0.052516,-11.16,-21,-39,152.5823,-3.4072,-1.958,55.854725,37.4692,186.9435,0,5026
0.22985,0.634483,9.641745,-0.028962,0.030378,-0.05496,-10.8,-21.78,-38.52,152.5823,-3.4072,-1.958,55.854725,37.4692,186.9435,0,5036
0.165205,0.588992,9.711179,-0.017355,0.007165,-0.049462,-10.8,-21.78,-38.52,152.5823,-3.4072,-1.958,55.854725,37.4692,186.9435,0,5046
0.141262,0.56026,9.720756,-0.016134,0.0035,-0.050683,-10.56,-22.02,-39.42,153.783,-3.4625,-1.9841,55.854725,37.4692,186.9435,0,5056
0.141262,0.56026,9.720756,-0.026518,0.004721,-0.048851,-10.56,-22.02,-39.42,153.783,-3.4625,-1.9841,55.854725,37.4692,186.9435,0,5066
0.174782,0.517163,9.744699,-0.038125,0.021826,-0.043353,-11.1,-21.66,-40.14,153.783,-3.4625,-1.9841,55.854725,37.4692,186.9435,0,5076
0.165205,0.438152,9.854836,-0.043012,0.026102,-0.036634,-11.1,-21.66,-40.14,153.783,-3.4625,-1.9841,55.854725,37.4692,186.9435,0,5086
0.162811,0.368718,9.953,-0.032016,0.032821,-0.020751,-10.98,-21.6,-39.9,153.5868,-3.477,-1.8655,55.854725,37.4692,186.9435,0,5096
0.208302,0.399844,9.972155,-0.015523,0.021215,-0.011588,-10.98,-21.6,-39.9,153.5868,-3.477,-1.8655,55.854725,37.4692,186.9435,0,5106
0.208302,0.399844,9.972155,0.00769,0.008997,-0.008534,-10.62,-21.6,-40.2,153.5868,-3.477,-1.8655,55.854725,37.4692,186.9435,0,5117
0.258582,0.488432,9.907509,0.031514,-0.006885,-0.009145,-10.62,-21.6,-40.2,153.5868,-3.477,-1.8655,55.854725,37.4692,186.9435,0,5126
0.275342,0.56026,9.725544,0.031514,-0.006885,-0.009145,-10.92,-21.54,-39.48,153.3382,-3.313,-1.6277,55.854725,37.4692,186.9435,0,5136
0.270553,0.591386,9.579494,0.025405,-0.008718,-0.007923,-10.92,-21.54,-39.48,153.3382,-3.313,-1.6277,55.854725,37.4692,186.9435,0,5146
0.253793,0.56026,9.62259,-0.011858,-0.009329,-0.008534,-11.04,-22.14,-39.72,153.3382,-3.313,-1.6277,55.854725,37.4692,186.9435,0,5156
0.253793,0.56026,9.62259,-0.04912,-0.000166,0.001851,-11.04,-22.14,-39.72,153.3382,-3.313,-1.6277,55.854725,37.4692,186.9435,0,5166
0.294496,0.52674,9.847652,-0.04912,-0.00322,0.006127,-11.1,-22.44,-39.72,153.2662,-3.207,-1.529,55.854725,37.4692,186.9435,0,5176
0.349564,0.466884,9.979338,-0.033849,-0.021546,0.00796,-11.1,-22.44,-39.72,153.2662,-3.207,-1.529,55.854725,37.4692,186.9435,0,5186
0.392661,0.481249,10.111023,-0.017355,-0.023989,0.000629,-11.04,-21.9,-38.88,153.2662,-3.207,-1.529,55.854725,37.4692,186.9435,0,5196
0.399844,0.478855,10.223554,0.002803,-0.027044,-0.007923,-11.04,-21.9,-38.88,153.2662,-3.207,-1.529,55.854725,37.4692,186.9435,0,5206
0.399844,0.478855,10.223554,0.032125,-0.029487,0.001851,-10.86,-21.42,-38.82,152.1546,-3.0881,-1.5232,55.854725,37.4692,186.9435,0,5216
0.404632,0.450124,10.168485,0.046175,-0.026433,0.015901,-10.86,-21.42,-38.82,152.1546,-3.0881,-1.5232,55.854725,37.4692,186.9435,0,5226
0.442941,0.529135,10.041589,0.052283,-0.016048,0.01529,-10.86,-21.54,-39.42,152.1546,-3.0881,-1.5232,55.854725,37.4692,186.9435,0,5235
0.572232,0.6273,9.964972,0.050451,-0.005663,0.004294,-10.86,-21.54,-39.42,152.1546,-3.0881,-1.5232,55.854725,37.4692,186.9435,0,5246
0.579415,0.713494,9.881172,0.060225,-0.00322,-0.010977,-10.56,-21.6,-40.32,153.6317,-3.0436,-1.6701,55.854725,37.4692,186.9435,0,5256
0.579415,0.713494,9.881172,0.080383,-0.016659,-0.037244,-10.56,-21.6,-40.32,153.6317,-3.0436,-1.6701,55.854725,37.4692,186.9435,0,5266
0.418998,0.826025,9.682447,0.091379,-0.037428,-0.051294,-10.86,-21.66,-40.2,153.6317,-3.0436,-1.6701,55.854725,37.4692,186.9435,0,5276
0.306467,0.885882,9.445415,0.074885,-0.041094,-0.065955,-10.86,-21.66,-40.2,153.6317,-3.0436,-1.6701,55.854725,37.4692,186.9435,0,5287
0.249005,0.790111,9.380769,0.018075,-0.018492,-0.074507,-11.16,-21.54,-39.84,153.6421,-3.1486,-1.7303,55.854725,37.4692,186.9435,0,5296
0.249005,0.790111,9.380769,-0.040568,0.012052,-0.067177,-11.16,-21.54,-39.84,153.6421,-3.1486,-1.7303,55.854725,37.4692,186.9435,0,5307
0.150839,0.600963,9.620196,-0.040568,0.012052,-0.067177,-10.38,-21.84,-39.36,153.6421,-3.1486,-1.7303,55.854725,37.4692,186.9435,0,5316
0.114925,0.478855,9.840469,-0.068668,0.042595,-0.043353,-10.38,-21.84,-39.36,153.6421,-3.1486,-1.7303,55.854725,37.4692,186.9435,0,5326
0.201119,0.418998,10.017646,-0.060727,0.05298,-0.028692,-9.84,-21.96,-39,156.0045,-3.2723,-1.7875,55.854725,37.4692,186.9435,0,5336
0.24661,0.404632,10.032011,-0.032627,0.036486,-0.028081,-9.84,-21.96,-39,156.0045,-3.2723,-1.7875,55.854725,37.4692,186.9435,0,5346
0.169994,0.320833,9.964972,0.002192,0.005332,-0.031747,-10.5,-21.9,-39.48,156.0045,-3.2723,-1.7875,55.854725,37.4692,186.9435,0,5356
0.169994,0.320833,9.964972,0.011355,-0.001387,-0.012199,-10.5,-21.9,-39.48,156.0045,-3.2723,-1.7875,55.854725,37.4692,186.9435,0,5366
0.114925,0.304073,9.981731,0.004636,0.019993,0.00796,-11.1,-21.78,-39.6,153.5796,-3.1489,-1.6921,55.854725,37.4692,186.9435,0,5376
0.102954,0.39745,9.972155,-0.000862,0.047482,0.032394,-11.1,-21.78,-39.6,153.5796,-3.1489,-1.6921,55.854725,37.4692,186.9435,0,5386
0.220273,0.495615,9.890749,-0.005749,0.058478,0.044611,-11.34,-21.24,-39.3,153.5796,-3.1489,-1.6921,55.854725,37.4692,186.9435,0,5395
0.258582,0.562655,9.847652,-0.002695,0.059088,0.042168,-11.52,-20.94,-39.3,153.5796,-3.1489,-1.6921,55.854725,37.4692,186.9435,0,5406
0.258582,0.562655,9.847652,0.015021,0.045649,0.031783,-11.52,-20.94,-39.3,153.5796,-3.1489,-1.6921,55.854725,37.4692,186.9435,0,5416
0.306467,0.620117,9.751882,0.023573,0.029767,0.020177,-11.28,-20.94,-39.36,152.2053,-3.1522,-1.5895,55.854725,37.4692,186.9435,0,5426
0.268159,0.634483,9.665688,0.034568,0.009608,0.012236,-11.28,-20.94,-39.36,152.2053,-3.1522,-1.5895,55.854725,37.4692,186.9435,0,5436
0.222668,0.66082,9.608225,0.04251,-0.008718,0.00857,-10.92,-21.36,-39,152.2053,-3.1522,-1.5895,55.854725,37.4692,186.9435,0,5446
0.203513,0.646454,9.596253,0.027849,-0.020935,0.006738,-10.92,-21.36,-39,152.2053,-3.1522,-1.5895,55.854725,37.4692,186.9435,0,5456
0.203513,0.646454,9.596253,0.01441,-0.016048,0.014068,-10.86,-21.48,-39.18,152.068,-3.2069,-1.5348,55.854725,37.4692,186.9435,0,5466
0.234639,0.579415,9.660899,-0.002695,-0.008718,0.021399,-10.86,-21.48,-39.18,152.068,-3.2069,-1.5348,55.854725,37.4692,186.9435,0,5476
0.258582,0.562655,9.754275,-0.019799,0.01816,0.019566,-10.86,-21.42,-39.54,152.068,-3.2069,-1.5348,55.854725,37.4692,186.9435,0,5486
0.289707,0.550683,9.862018,-0.023464,0.026713,0.015901,-10.86,-21.42,-39.54,152.068,-3.2069,-1.5348,55.854725,37.4692,186.9435,0,5496
0.289707,0.550683,9.862018,-0.006971,0.01755,0.013457,-10.56,-21.78,-39.6,153.2941,-3.2326,-1.5596,55.854725,37.4692,186.9435,0,5506
0.287313,0.584203,9.873989,0.018075,-0.007496,0.006738,-10.56,-21.78,-39.6,153.2941,-3.2326,-1.5596,55.854725,37.4692,186.9435,0,5516
0.272947,0.572232,9.814133,0.027238,-0.028265,0.003073,-10.92,-22.32,-39.72,153.2941,-3.2326,-1.5596,55.854725,37.4692,186.9435,0,5526
0.337593,0.598569,9.725544,0.027238,-0.028265,0.003073,-10.92,-22.32,-39.72,153.2941,-3.2326,-1.5596,55.854725,37.4692,186.9435,0,5536
0.337593,0.641666,9.742304,0.02174,-0.036207,-0.003036,-11.34,-22.08,-39.42,153.2232,-3.2606,-1.5275,55.854725,37.4692,186.9435,0,5546
0.337593,0.641666,9.742304,-0.005138,-0.006274,-0.001203,-11.34,-22.08,-39.42,153.2232,-3.2606,-1.5275,55.854725,37.4692,186.9435,0,5556
0.320833,0.641666,9.763853,-0.025907,0.01755,0.00124,-11.1,-21.6,-39.24,153.2232,-3.2606,-1.5275,55.854725,37.4692,186.9435,0,5566
0.306467,0.608146,9.763853,-0.038736,0.023047,0.006738,-11.1,-21.6,-39.24,153.2232,-3.2606,-1.5275,55.854725,37.4692,186.9435,0,5576
0.366324,0.634483,9.905115,-0.042401,0.023047,-0.000593,-10.8,-21.66,-39.3,153.252,-3.3296,-1.5819,55.854725,37.4692,186.9435,0,5586
0.354353,0.64406,9.943423,-0.030183,0.012052,-0.005479,-10.8,-21.66,-39.3,153.252,-3.3296,-1.5819,55.854725,37.4692,186.9435,0,5596
0.354353,0.64406,9.943423,-0.004527,-0.000166,-0.015864,-10.8,-21.72,-39.12,153.252,-3.3296,-1.5819,55.854725,37.4692,186.9435,0,5607
0.318439,0.64406,9.873989,0.002192,-0.006274,-0.025638,-10.8,-21.72,-39.12,153.252,-3.3296,-1.5819,55.854725,37.4692,186.9435,0,5616
0.256187,0.66082,9.842864,0.006468,-0.022157,-0.029303,-10.92,-21.6,-38.52,153.2838,-3.3715,-1.624,55.854725,37.4692,186.9435,0,5626
0.210696,0.634483,9.859624,0.008301,-0.021546,-0.030525,-10.92,-21.6,-38.52,153.2838,-3.3715,-1.624,55.854725,37.4692,186.9435,0,5636
0.203513,0.605752,9.909904,0.002803,-0.015437,-0.029914,-11.1,-22.02,-39.24,153.2838,-3.3715,-1.624,55.854725,37.4692,186.9435,0,5645
0.203513,0.605752,9.909904,-0.003305,-0.002609,-0.023805,-10.98,-21.6,-39.66,153.2838,-3.3715,-1.624,55.854725,37.4692,186.9435,0,5656
0.249005,0.598569,9.948212,0.003414,0.004721,-0.024416,-10.98,-21.6,-39.66,153.2838,-3.3715,-1.624,55.854725,37.4692,186.9435,0,5666
0.249005,0.608146,9.859624,0.011355,0.005332,-0.031747,-10.8,-21.66,-38.94,153.2908,-3.4731,-1.6815,55.854725,37.4692,186.9435,0,5676
0.134079,0.538712,9.80695,0.013799,0.004111,-0.037244,-10.8,-21.66,-38.94,153.2908,-3.4731,-1.6815,55.854725,37.4692,186.9435,0,5687
0.071828,0.466884,9.792584,0.011966,-0.000776,-0.037855,-10.92,-21.84,-39.18,153.2908,-3.4731,-1.6815,55.854725,37.4692,186.9435,0,5696
0.071828,0.466884,9.792584,0.010745,-0.002609,-0.023195,-10.92,-21.84,-39.18,153.2908,-3.4731,-1.6815,55.854725,37.4692,186.9435,0,5706
0.107742,0.476461,9.742304,-0.000862,-0.005052,-0.018308,-11.1,-21.84,-40.08,153.1436,-3.5261,-1.6208,55.854725,37.4692,186.9435,0,5716
0.112531,0.505192,9.809344,0.000971,0.001056,-0.008534,-11.1,-21.84,-40.08,153.1436,-3.5261,-1.6208,55.854725,37.4692,186.9435,0,5726
0.093377,0.536318,9.761458,0.000971,0.001056,-0.008534,-10.8,-22.08,-39.6,153.1436,-3.5261,-1.6208,55.854725,37.4692,186.9435,0,5736
0.076617,0.505192,9.735122,0.003414,-0.006885,-0.007312,-10.8,-22.08,-39.6,153.1436,-3.5261,-1.6208,55.854725,37.4692,186.9435,0,5746
0.076617,0.505192,9.735122,0.006468,-0.020935,0.002462,-10.62,-22.26,-39.12,152.9635,-3.4606,-1.4683,55.854725,37.4692,186.9435,0,5756
0.105348,0.533923,9.828498,0.003414,-0.019102,0.00796,-10.62,-22.26,-39.12,152.9635,-3.4606,-1.4683,55.854725,37.4692,186.9435,0,5766
0.169994,0.5435,9.852441,-0.003916,-0.001387,0.013457,-10.86,-21.84,-39.06,152.9635,-3.4606,-1.4683,55.854725,37.4692,186.9435,0,5776
0.169994,0.5435,9.852441,-0.003916,0.010219,0.026286,-10.86,-21.84,-39.06,152.9635,-3.4606,-1.4683,55.854725,37.4692,186.9435,0,5786
0.158022,0.531529,9.840469,-0.000862,0.007776,0.030562,-11.16,-21.42,-39.48,151.5224,-3.3704,-1.2883,55.85475,37.469177,186.1446,0,5795
0.208302,0.61054,9.852441,0.013799,0.005943,0.027507,-11.16,-21.42,-39.48,151.5224,-3.3704,-1.2883,55.85475,37.469177,186.1446,0,5806
0.217879,0.69434,9.749487,0.02907,-0.007496,0.027507,-10.62,-21.24,-39.6,151.5224,-3.3704,-1.2883,55.85475,37.469177,186.1446,0,5816
0.289707,0.797294,9.627379,0.013188,-0.006885,0.014679,-10.62,-21.24,-39.6,151.5224,-3.3704,-1.2883,55.85475,37.469177,186.1446,0,5826
0.287313,0.787716,9.550762,0.013188,-0.006885,0.014679,-10.26,-21.48,-39.54,153.6919,-3.3538,-1.1399,55.85475,37.469177,186.1446,0,5836
0.287313,0.787716,9.550762,-0.00636,0.006554,-0.003647,-10.26,-21.48,-39.54,153.6919,-3.3538,-1.1399,55.85475,37.469177,186.1446,0,5846
0.215485,0.713494,9.581888,-0.029573,0.010219,0.000629,-10.38,-21.72,-39.3,153.6919,-3.3538,-1.1399,55.85475,37.469177,186.1446,0,5856
0.165205,0.632089,9.584282,-0.044233,0.01755,0.009792,-10.38,-21.72,-39.3,153.6919,-3.3538,-1.1399,55.85475,37.469177,186.1446,0,5866
0.191542,0.596174,9.699207,-0.054618,0.021215,0.011625,-10.68,-22.02,-39.18,152.4852,-3.4427,-1.1539,55.85475,37.469177,186.1446,0,5876
0.177176,0.512375,9.72315,-0.046066,0.009608,0.018344,-10.68,-22.02,-39.18,152.4852,-3.4427,-1.1539,55.85475,37.469177,186.1446,0,5886
0.177176,0.512375,9.72315,-0.031405,-0.007496,0.028729,-11.16,-21.96,-39.84,152.4852,-3.4427,-1.1539,55.85475,37.469177,186.1446,0,5896
0.234639,0.588992,9.749487,-0.014301,-0.016048,0.026896,-11.16,-21.96,-39.84,152.4852,-3.4427,-1.1539,55.85475,37.469177,186.1446,0,5906
0.31365,0.730254,9.579494,-0.016744,-0.027654,0.018344,-11.34,-21.6,-40.56,152.3712,-3.4995,-1.1468,55.85475,37.469177,186.1446,0,5916
0.284919,0.804476,9.462174,-0.033849,-0.031931,0.014679,-11.34,-21.6,-40.56,152.3712,-3.4995,-1.1468,55.85475,37.469177,186.1446,0,5926
0.284919,0.804476,9.462174,-0.067446,-0.027654,0.011014,-11.52,-21.72,-40.02,152.3712,-3.4995,-1.1468,55.85475,37.469177,186.1446,0,5936
0.265765,0.85715,9.483723,-0.096768,-0.018492,0.004294,-11.52,-21.72,-40.02,152.3712,-3.4995,-1.1468,55.85475,37.469177,186.1446,0,5947
0.210696,0.830813,9.656111,-0.11265,-0.023989,0.004905,-10.92,-21.78,-39.36,152.5115,-3.5507,-1.2292,55.85475,37.469177,186.1446,0,5956
0.210696,0.718282,9.833286,-0.113872,-0.029487,0.012846,-10.92,-21.78,-39.36,152.5115,-3.5507,-1.2292,55.85475,37.469177,186.1446,0,5966
0.210696,0.718282,9.833286,-0.108985,-0.042315,0.017123,-10.56,-22.08,-39.54,152.5115,-3.5507,-1.2292,55.85475,37.469177,186.1446,0,5976
0.241822,0.629694,9.981731,-0.099211,-0.039872,0.023231,-10.56,-22.08,-39.54,152.5115,-3.5507,-1.2292,55.85475,37.469177,186.1446,0,5986
0.24661,0.572232,10.156514,-0.080885,-0.030098,0.037892,-11.04,-21.66,-40.02,152.6913,-3.4772,-1.3164,55.85475,37.469177,186.1446,0,5996
0.189148,0.521952,10.180456,-0.066225,-0.030709,0.046444,-11.04,-21.66,-40.02,152.6913,-3.4772,-1.3164,55.85475,37.469177,186.1446,0,6006
0.189148,0.521952,10.180456,-0.044233,-0.03865,0.060494,-11.16,-20.94,-39.36,152.6913,-3.4772,-1.3164,55.85475,37.469177,186.1446,0,6016
0.265765,0.519558,10.1206,-0.02774,-0.052089,0.069657,-11.16,-20.94,-39.36,152.6913,-3.4772,-1.3164,55.85475,37.469177,186.1446,0,6026
0.433364,0.562655,10.166091,-0.022242,-0.036207,0.051331,-11.1,-21.36,-38.76,151.8084,-3.2603,-1.4039,55.85475,37.469177,186.1446,0,6038
0.615329,0.567443,10.099051,-0.028962,-0.007496,0.018955,-11.1,-21.36,-38.76,151.8084,-3.2603,-1.4039,55.85475,37.469177,186.1446,0,6046
0.639271,0.531529,10.099051,-0.017966,0.012663,-0.014032,-11.22,-21.78,-39.54,151.8084,-3.2603,-1.4039,55.85475,37.469177,186.1446,0,6056
0.639271,0.531529,10.099051,-0.002084,0.008387,-0.047629,-11.22,-21.78,-39.54,151.8084,-3.2603,-1.4039,55.85475,37.469177,186.1446,0,6066
0.495615,0.450124,9.998491,0.032125,-0.015437,-0.067177,-11.4,-21.6,-39.66,153.234,-3.1789,-1.4944,55.85475,37.469177,186.1446,0,6076
0.232245,0.366324,9.859624,0.065112,-0.041704,-0.064123,-11.4,-21.6,-39.66,153.234,-3.1789,-1.4944,55.85475,37.469177,186.1446,0,6086
0.10056,0.371113,9.586677,0.072442,-0.053311,-0.056181,-11.4,-21.24,-40.02,153.234,-3.1789,-1.4944,55.85475,37.469177,186.1446,0,6096
0.10056,0.371113,9.586677,0.072442,-0.053311,-0.056181,-11.4,-21.24,-40.02,153.234,-3.1789,-1.4944,55.85475,37.469177,186.1446,0,6106
0.071828,0.409421,9.411894,0.04984,-0.040483,-0.042742,-11.22,-21.24,-40.32,152.0133,-3.1909,-1.4973,55.85475,37.469177,186.1446,0,6116
0.023943,0.423787,9.296969,-0.011247,-0.000776,-0.028081,-11.22,-21.24,-40.32,152.0133,-3.1909,-1.4973,55.85475,37.469177,186.1446,0,6126
-0.014366,0.337593,9.387952,-0.065003,0.030378,-0.019529,-11.28,-21.42,-39.9,152.0133,-3.1909,-1.4973,55.85475,37.469177,186.1446,0,6137
-0.038308,0.29689,9.579494,-0.093103,0.037097,-0.003036,-11.28,-21.42,-39.9,152.0133,-3.1909,-1.4973,55.85475,37.469177,186.1446,0,6146
-0.038308,0.29689,9.579494,-0.096157,0.02488,0.012236,-11.4,-21.42,-40.5,152.0417,-3.273,-1.5595,55.85475,37.469177,186.1446,0,6156
-0.031126,0.275342,9.701602,-0.07722,-0.008718,0.02934,-11.4,-21.42,-40.5,152.0417,-3.273,-1.5595,55.85475,37.469177,186.1446,0,6166
0.129291,0.282524,9.854836,-0.060116,-0.038039,0.039725,-11.46,-21.3,-40.44,152.0417,-3.273,-1.5595,55.85475,37.469177,186.1446,0,6176
0.284919,0.356747,9.976943,-0.048509,-0.04598,0.04339,-11.46,-21.3,-40.44,152.0417,-3.273,-1.5595,55.85475,37.469177,186.1446,0,6186
0.284919,0.356747,9.976943,-0.052175,-0.021546,0.054996,-11.16,-21.24,-39.66,152.2842,-3.009,-1.5608,55.85475,37.469177,186.1446,0,6196
0.36393,0.41421,10.046377,-0.060727,0.004721,0.054385,-11.16,-21.24,-39.66,152.2842,-3.009,-1.5608,55.85475,37.469177,186.1446,0,6207
0.428575,0.471672,10.08708,-0.058894,0.019993,0.054385,-10.98,-20.82,-40.68,152.2842,-3.009,-1.5608,55.85475,37.469177,186.1446,0,6216
0.474066,0.555472,10.113417,-0.048509,0.019993,0.049498,-11.04,-20.82,-40.26,152.2842,-3.009,-1.5608,55.85475,37.469177,186.1446,0,6226
0.474066,0.555472,10.113417,-0.048509,0.019993,0.049498,-11.04,-20.82,-40.26,152.2842,-3.009,-1.5608,55.85475,37.469177,186.1446,0,6236
0.572232,0.665608,9.993703,-0.024686,0.014495,0.034838,-10.62,-20.4,-40.02,151.1382,-2.8723,-1.5747,55.85475,37.469177,186.1446,0,6246
0.596174,0.713494,9.895537,-0.012468,-0.004442,0.018344,-10.68,-20.58,-39,151.1382,-2.8723,-1.5747,55.85475,37.469177,186.1446,0,6256
0.565049,0.713494,9.890749,-0.007581,-0.011772,-0.001203,-10.68,-20.58,-39,151.1382,-2.8723,-1.5747,55.85475,37.469177,186.1446,0,6266
0.565049,0.713494,9.890749,-0.009414,0.001056,-0.012199,-11.22,-20.28,-39.72,151.1382,-2.8723,-1.5747,55.85475,37.469177,186.1446,0,6276
0.531529,0.668003,9.871595,-0.011247,0.018771,-0.026249,-11.22,-20.28,-39.72,151.1382,-2.8723,-1.5747,55.85475,37.469177,186.1446,0,6286
0.476461,0.672791,9.809344,-0.005749,0.008997,-0.028081,-10.98,-20.52,-39.42,152.4618,-2.8226,-1.5695,55.85475,37.469177,186.1446,0,6296
0.375901,0.656031,9.742304,0.004636,0.007776,-0.043353,-10.98,-20.52,-39.42,152.4618,-2.8226,-1.5695,55.85475,37.469177,186.1446,0,6306
0.375901,0.656031,9.742304,-0.002084,0.007776,-0.05557,-10.98,-20.7,-39.48,152.4618,-2.8226,-1.5695,55.85475,37.469177,186.1446,0,6316
0.323227,0.574626,9.62259,-0.02041,0.007165,-0.05496,-10.98,-20.7,-39.48,152.4618,-2.8226,-1.5695,55.85475,37.469177,186.1446,0,6326
0.191542,0.553077,9.603436,-0.03507,0.016328,-0.054349,-10.98,-21.24,-39.18,152.4468,-2.8108,-1.5539,55.85475,37.469177,186.1446,0,6336
0.095771,0.378295,9.601042,-0.04912,0.013884,-0.047629,-10.98,-21.24,-39.18,152.4468,-2.8108,-1.5539,55.85475,37.469177,186.1446,0,6346
0.095771,0.378295,9.601042,-0.063781,0.009608,-0.043353,-10.68,-21.24,-38.76,152.4468,-2.8108,-1.5539,55.85475,37.469177,186.1446,0,6357
0.081405,0.304073,9.778218,-0.058894,0.012663,-0.031747,-10.68,-21.24,-38.76,152.4468,-2.8108,-1.5539,55.85475,37.469177,186.1446,0,6366
0.06704,0.201119,9.943423,-0.042401,0.007776,-0.017086,-11.52,-20.46,-39.06,148.8234,-2.6989,-1.51,55.85475,37.469177,186.1446,0,6376
0.0838,0.114925,9.950606,-0.029573,-0.000776,-0.002425,-11.52,-20.46,-39.06,148.8234,-2.6989,-1.51,55.85475,37.469177,186.1446,0,6388
0.0838,0.114925,9.950606,-0.014912,-0.003831,0.014679,-11.76,-20.04,-39.06,148.8234,-2.6989,-1.51,55.85475,37.469177,186.1446,0,6396
0.158022,0.167599,9.90272,-0.015523,-0.011161,0.019566,-11.76,-20.04,-39.06,148.8234,-2.6989,-1.51,55.85475,37.469177,186.1446,0,6406
0.244216,0.205908,9.859624,-0.015523,-0.011161,0.019566,-11.4,-20.88,-39.48,152.5,-2.6466,-1.4987,55.85475,37.469177,186.1446,0,6416
0.323227,0.284919,9.900327,-0.017355,-0.015437,0.020788,-11.04,-21.06,-39.6,152.5,-2.6466,-1.4987,55.85475,37.469177,186.1446,0,6426
0.421392,0.337593,9.964972,-0.015523,-0.019102,0.014679,-11.04,-21.06,-39.6,152.5,-2.6466,-1.4987,55.85475,37.469177,186.1446,0,6437
0.421392,0.337593,9.964972,-0.016744,-0.009329,0.00796,-11.1,-21.06,-39.36,152.5,-2.6466,-1.4987,55.85475,37.469177,186.1446,0,6446
0.416604,0.356747,9.941029,-0.024075,0.002278,-0.004258,-11.1,-21.06,-39.36,152.5,-2.6466,-1.4987,55.85475,37.469177,186.1446,0,6456
0.383084,0.332804,9.981731,-0.030183,0.009608,-0.010366,-11.04,-20.76,-39.66,152.6824,-2.4395,-1.4962,55.85475,37.469177,186.1446,0,6466
0.342381,0.31365,10.048771,-0.030794,0.01755,-0.01281,-11.04,-20.76,-39.66,152.6824,-2.4395,-1.4962,55.85475,37.469177,186.1446,0,6476
0.308861,0.26337,9.998491,-0.018577,0.019993,-0.010977,-10.8,-21.18,-39.96,152.6824,-2.4395,-1.4962,55.85475,37.469177,186.1446,0,6487
0.308861,0.26337,9.998491,-0.011247,0.016328,-0.00609,-10.62,-21.06,-40.08,152.6824,-2.4395,-1.4962,55.85475,37.469177,186.1446,0,6496
0.282524,0.249005,10.022434,0.00769,-0.009939,-0.013421,-10.62,-21.06,-40.08,152.6824,-2.4395,-1.4962,55.85475,37.469177,186.1446,0,6506
0.320833,0.22985,10.022434,0.026016,-0.014826,-0.009756,-10.68,-20.64,-39.96,153.0896,-2.1399,-1.5874,55.85475,37.469177,186.1446,0,6516
0.325621,0.217879,10.099051,0.039455,-0.012994,-0.004258,-10.68,-20.64,-39.96,153.0896,-2.1399,-1.5874,55.85475,37.469177,186.1446,0,6526
0.272947,0.287313,10.022434,0.058392,-0.00322,0.00796,-10.8,-21,-39.36,153.0896,-2.1399,-1.5874,55.85475,37.469177,186.1446,0,6536
0.272947,0.287313,10.022434,0.061446,-0.000776,0.017733,-10.8,-21,-39.36,153.0896,-2.1399,-1.5874,55.85475,37.469177,186.1446,0,6546
0.308861,0.339987,9.842864,0.05717,0.002278,0.017123,-11.34,-21.24,-39.24,153.3224,-1.9878,-1.6678,55.85475,37.469177,186.1446,0,6556
0.342381,0.478855,9.703996,0.052283,0.009608,0.014679,-11.34,-21.24,-39.24,153.3224,-1.9878,-1.6678,55.85475,37.469177,186.1446,0,6566
0.368718,0.565049,9.560339,0.030903,0.011441,0.009181,-11.4,-21,-39.42,153.3224,-1.9878,-1.6678,55.85475,37.469177,186.1446,0,6577
0.335198,0.581809,9.471751,0.009523,0.015717,0.001851,-11.4,-21,-39.42,153.3224,-1.9878,-1.6678,55.85475,37.469177,186.1446,0,6587
0.335198,0.581809,9.471751,-0.01369,0.022436,-0.003036,-11.22,-21.36,-39.3,153.2784,-2.0637,-1.6792,55.85475,37.469177,186.1446,0,6596
0.325621,0.541106,9.478934,-0.01369,0.022436,-0.003036,-11.22,-21.36,-39.3,153.2784,-2.0637,-1.6792,55.85475,37.469177,186.1446,0,6606
0.289707,0.495615,9.579494,-0.032627,0.014495,-0.009145,-11.22,-21.6,-39.72,153.2784,-2.0637,-1.6792,55.85475,37.469177,186.1446,0,6616
0.289707,0.486038,9.62259,-0.038125,0.008997,-0.016475,-11.4,-21.6,-40.26,153.2784,-2.0637,-1.6792,55.85475,37.469177,186.1446,0,6625
0.289707,0.486038,9.62259,-0.026518,-0.006885,-0.02014,-11.4,-21.6,-40.26,153.2784,-2.0637,-1.6792,55.85475,37.469177,186.1446,0,6636
0.237033,0.390267,9.783007,-0.017966,-0.013605,-0.01281,-10.8,-21.18,-39.6,153.2378,-2.1628,-1.6896,55.85475,37.469177,186.1446,0,6646
0.198725,0.325621,9.845258,-0.008192,-0.012383,-0.004258,-10.8,-21.18,-39.6,153.2378,-2.1628,-1.6896,55.85475,37.469177,186.1446,0,6656
0.28013,0.366324,9.830893,-0.008192,-0.012383,-0.004258,-10.44,-20.88,-39.18,153.2378,-2.1628,-1.6896,55.85475,37.469177,186.1446,0,6666
0.36393,0.430969,9.787795,-0.000251,-0.020324,0.001851,-10.56,-21.18,-39.3,153.2378,-2.1628,-1.6896,55.85475,37.469177,186.1446,0,6676
0.36393,0.430969,9.787795,-0.000862,-0.026433,-0.004869,-10.56,-21.18,-39.3,153.2378,-2.1628,-1.6896,55.85475,37.469177,186.1446,0,6686
0.375901,0.411815,9.73991,-0.002084,-0.039872,-0.017697,-11.04,-21.48,-39.54,153.3164,-2.1034,-1.7069,55.85475,37.469177,186.1446,0,6696
0.311256,0.320833,9.885961,-0.015523,-0.040483,-0.032358,-11.04,-21.48,-39.54,153.3164,-2.1034,-1.7069,55.85475,37.469177,186.1446,0,6706
0.256187,0.210696,9.967366,-0.024686,-0.025822,-0.037855,-11.22,-21,-39.6,153.3164,-2.1034,-1.7069,55.85475,37.469177,186.1446,0,6716
0.256187,0.210696,9.967366,-0.03446,-0.005663,-0.022584,-11.22,-21,-39.6,153.3164,-2.1034,-1.7069,55.85475,37.469177,186.1446,0,6726
0.268159,0.122108,10.010463,-0.032627,0.002889,-0.010977,-11.16,-20.34,-39.24,152.1469,-2.167,-1.7918,55.85475,37.469177,186.1446,0,6737
0.301679,0.148445,10.055954,-0.01369,0.005332,-0.001203,-11.16,-20.34,-39.24,152.1469,-2.167,-1.7918,55.85475,37.469177,186.1446,0,6746
0.318439,0.208302,10.046377,0.024794,-0.014215,1.8E-05,-11.16,-20.34,-39.96,152.1469,-2.167,-1.7918,55.85475,37.469177,186.1446,0,6756
0.292102,0.332804,9.873989,0.044953,-0.033152,-0.004258,-11.16,-20.34,-39.96,152.1469,-2.167,-1.7918,55.85475,37.469177,186.1446,0,6766
0.292102,0.332804,9.873989,0.039455,-0.034374,-0.014642,-11.34,-20.64,-39.84,153.5051,-2.0608,-1.7998,55.85475,37.469177,186.1446,0,6776
0.270553,0.395055,9.763853,0.015021,-0.021546,-0.017086,-11.34,-20.64,-39.84,153.5051,-2.0608,-1.7998,55.85475,37.469177,186.1446,0,6786
0.251399,0.418998,9.708784,-0.008803,-0.005663,-0.014642,-10.8,-20.76,-39.72,153.5051,-2.0608,-1.7998,55.85477,37.469162,186.8454,0,6796
0.239427,0.421392,9.804555,-0.008803,-0.005663,-0.014642,-10.8,-20.76,-39.72,153.5051,-2.0608,-1.7998,55.85477,37.469162,186.8454,0,6806
0.239427,0.392661,9.91948,-0.021631,-0.00322,-0.005479,-10.56,-21.3,-39.96,153.6162,-1.9808,-1.8267,55.85477,37.469162,186.8454,0,6816
0.258582,0.428575,9.98652,-0.004527,-0.008107,0.00796,-10.56,-21.3,-39.96,153.6162,-1.9808,-1.8267,55.85477,37.469162,186.8454,0,6826
0.258582,0.428575,9.98652,0.015631,-0.030709,0.001851,-11.52,-21.72,-39.78,153.6162,-1.9808,-1.8267,55.85477,37.469162,186.8454,0,6836
0.36393,0.433364,9.905115,0.017464,-0.03865,0.001851,-11.52,-21.72,-39.78,153.6162,-1.9808,-1.8267,55.85477,37.469162,186.8454,0,6846
0.387873,0.385478,10.084685,0.021129,-0.032541,-0.005479,-11.22,-21.3,-39.18,153.4905,-1.97,-1.7642,55.85477,37.469162,186.8454,0,6856
0.435758,0.325621,10.182851,0.037012,-0.030709,-0.014642,-11.22,-21.3,-39.18,153.4905,-1.97,-1.7642,55.85477,37.469162,186.8454,0,6866
0.435758,0.265765,10.199611,0.063279,-0.034374,-0.020751,-10.74,-21.12,-39.12,153.4905,-1.97,-1.7642,55.85477,37.469162,186.8454,0,6876
0.430969,0.265765,10.199611,0.095044,-0.041094,-0.027471,-10.74,-21.12,-39.12,153.4905,-1.97,-1.7642,55.85477,37.469162,186.8454,0,6886
0.385478,0.277736,10.1206,0.129252,-0.048424,-0.023805,-11.64,-20.94,-39.78,151.2321,-2.0653,-1.8201,55.85477,37.469162,186.8454,0,6896
0.38069,0.383084,9.883567,0.149411,-0.058809,-0.025638,-11.64,-20.94,-39.78,151.2321,-2.0653,-1.8201,55.85477,37.469162,186.8454,0,6906
0.335198,0.428575,9.682447,0.15613,-0.064306,-0.031747,-11.58,-21,-40.26,151.2321,-2.0653,-1.8201,55.85477,37.469162,186.8454,0,6916
0.335198,0.428575,9.682447,0.139026,-0.061863,-0.037244,-11.58,-21,-40.26,151.2321,-2.0653,-1.8201,55.85477,37.469162,186.8454,0,6926
0.325621,0.474066,9.545974,0.109705,-0.053922,-0.042131,-11.82,-20.82,-39.6,151.2449,-2.2679,-1.9422,55.85477,37.469162,186.8454,0,6936
0.332804,0.488432,9.57231,0.091379,-0.042315,-0.043353,-11.82,-20.82,-39.6,151.2449,-2.2679,-1.9422,55.85477,37.469162,186.8454,0,6946
0.292102,0.421392,9.577099,0.077329,-0.034374,-0.043353,-12.42,-20.94,-39.06,151.2449,-2.2679,-1.9422,55.85477,37.469162,186.8454,0,6956
0.244216,0.402238,9.584282,0.078551,-0.044759,-0.044575,-12.42,-20.94,-39.06,151.2449,-2.2679,-1.9422,55.85477,37.469162,186.8454,0,6966
0.244216,0.402238,9.584282,0.080994,-0.056365,-0.034801,-11.46,-21.3,-39.3,153.4941,-2.5684,-2.0724,55.85477,37.469162,186.8454,0,6976
0.270553,0.366324,9.63935,0.087714,-0.055754,-0.030525,-11.46,-21.3,-39.3,153.4941,-2.5684,-2.0724,55.85477,37.469162,186.8454,0,6986
0.241822,0.423787,9.562734,0.08527,-0.0527,-0.017086,-11.28,-21.06,-39.18,153.4941,-2.5684,-2.0724,55.85477,37.469162,186.8454,0,6996
0.222668,0.524346,9.366403,0.063279,-0.053922,0.000629,-11.28,-21.06,-39.18,153.4941,-2.5684,-2.0724,55.85477,37.469162,186.8454,0,7006
0.270553,0.620117,9.27542,0.063279,-0.053922,0.000629,-11.88,-21.54,-39.48,152.3587,-2.7602,-2.1712,55.85477,37.469162,186.8454,0,7016
0.34717,0.672791,9.421472,0.012577,-0.050867,0.003073,-11.88,-21.54,-39.48,152.3587,-2.7602,-2.1712,55.85477,37.469162,186.8454,0,7026
0.34717,0.672791,9.421472,-0.021631,-0.055143,-0.000593,-12.24,-21.96,-39.24,152.3587,-2.7602,-2.1712,55.85477,37.469162,186.8454,0,7036
0.409421,0.639271,9.596253,-0.026518,-0.068582,-0.001814,-12.24,-21.96,-39.24,152.3587,-2.7602,-2.1712,55.85477,37.469162,186.8454,0,7047
0.447729,0.545895,9.888355,-0.03446,-0.069193,-0.010366,-12.24,-21.48,-39.12,151.2117,-2.8815,-2.2858,55.85477,37.469162,186.8454,0,7056
0.488432,0.529135,10.029617,-0.016134,-0.057587,-0.004258,-12.24,-21.48,-39.12,151.2117,-2.8815,-2.2858,55.85477,37.469162,186.8454,0,7066
0.498009,0.541106,9.953,0.009523,-0.04598,0.004905,-11.76,-20.94,-39.24,151.2117,-2.8815,-2.2858,55.85477,37.469162,186.8454,0,7077
0.498009,0.541106,9.953,0.015021,-0.033152,0.011625,-11.76,-20.94,-39.24,151.2117,-2.8815,-2.2858,55.85477,37.469162,186.8454,0,7086
0.500403,0.665608,9.797373,0.008912,-0.014826,0.00796,-11.7,-21.06,-38.7,151.5481,-2.8387,-2.4734,55.85477,37.469162,186.8454,0,7096
0.505192,0.802082,9.713573,-0.011247,-0.005052,-0.001814,-11.7,-21.06,-38.7,151.5481,-2.8387,-2.4734,55.85477,37.469162,186.8454,0,7106
0.490826,0.818842,9.720756,-0.027129,0.006554,-0.01281,-11.82,-21.12,-38.88,151.5481,-2.8387,-2.4734,55.85477,37.469162,186.8454,0,7116
0.493221,0.790111,9.797373,-0.043012,0.019993,-0.022584,-11.82,-21.12,-38.88,151.5481,-2.8387,-2.4734,55.85477,37.469162,186.8454,0,7126
0.493221,0.790111,9.797373,-0.065003,0.045649,-0.030525,-11.76,-21.36,-39.06,151.5723,-2.8421,-2.4904,55.85477,37.469162,186.8454,0,7136
0.428575,0.64406,9.917087,-0.065614,0.068862,-0.030525,-11.76,-21.36,-39.06,151.5723,-2.8421,-2.4904,55.85477,37.469162,186.8454,0,7146
0.423787,0.524346,9.917087,-0.055229,0.08169,-0.020751,-11.82,-21.24,-39.54,151.5723,-2.8421,-2.4904,55.85477,37.469162,186.8454,0,7157
0.39745,0.538712,9.888355,-0.039346,0.078025,-0.018308,-11.82,-21.24,-39.54,151.5723,-2.8421,-2.4904,55.85477,37.469162,186.8454,0,7166
0.39745,0.538712,9.888355,-0.014301,0.06031,-0.016475,-11.7,-21.24,-39.72,151.5866,-2.7457,-2.4217,55.85477,37.469162,186.8454,0,7176
0.385478,0.531529,9.727939,-0.014301,0.06031,-0.016475,-11.7,-21.24,-39.72,151.5866,-2.7457,-2.4217,55.85477,37.469162,186.8454,0,7186
0.36393,0.5435,9.617802,-0.010025,0.035265,-0.022584,-11.4,-21.66,-39.66,151.5866,-2.7457,-2.4217,55.85477,37.469162,186.8454,0,7196
0.275342,0.565049,9.63935,-0.02102,0.027934,-0.024416,-11.4,-21.66,-39.66,151.5866,-2.7457,-2.4217,55.85477,37.469162,186.8454,0,7206
0.249005,0.529135,9.598648,-0.027129,0.03221,-0.019529,-11.46,-21.06,-39.96,153.7557,-2.6641,-2.2566,55.85477,37.469162,186.8454,0,7216
0.249005,0.529135,9.598648,-0.039346,0.029767,-0.006701,-11.46,-21.06,-39.96,153.7557,-2.6641,-2.2566,55.85477,37.469162,186.8454,0,7226
0.275342,0.517163,9.63935,-0.047899,0.021826,0.001851,-11.88,-20.88,-39.78,153.7557,-2.6641,-2.2566,55.85477,37.469162,186.8454,0,7236
0.339987,0.474066,9.680053,-0.050342,0.011441,0.006127,-11.88,-20.88,-39.78,153.7557,-2.6641,-2.2566,55.85477,37.469162,186.8454,0,7246
0.38069,0.483644,9.747093,-0.052785,0.008997,0.009792,-11.94,-21.48,-39.6,151.3259,-2.6085,-2.1844,55.85477,37.469162,186.8454,0,7257
0.440547,0.462095,9.897932,-0.055229,0.009608,0.009792,-11.94,-21.48,-39.6,151.3259,-2.6085,-2.1844,55.85477,37.469162,186.8454,0,7266
0.440547,0.462095,9.897932,-0.044844,0.007165,0.005516,-12,-21.78,-39.24,151.3259,-2.6085,-2.1844,55.85477,37.469162,186.8454,0,7276
0.445335,0.466884,9.976943,-0.025907,0.010219,-0.006701,-12,-21.78,-39.24,151.3259,-2.6085,-2.1844,55.85477,37.469162,186.8454,0,7287
0.438152,0.514769,9.957788,-0.017355,0.013884,-0.013421,-11.22,-21.18,-39.6,153.7302,-2.4925,-2.1546,55.85477,37.469162,186.8454,0,7296
0.354353,0.507586,9.869201,-0.017355,0.013884,-0.013421,-11.22,-21.18,-39.6,153.7302,-2.4925,-2.1546,55.85477,37.469162,186.8454,0,7307
0.289707,0.488432,9.847652,-0.017355,0.015717,-0.019529,-10.68,-20.76,-39.66,153.7302,-2.4925,-2.1546,55.85477,37.469162,186.8454,0,7316
0.289707,0.488432,9.847652,-0.022242,0.016939,-0.018308,-10.68,-20.76,-39.66,153.7302,-2.4925,-2.1546,55.85477,37.469162,186.8454,0,7326
0.272947,0.471672,9.838076,-0.026518,0.023047,-0.01281,-11.52,-20.82,-39.24,151.266,-2.615,-2.1692,55.85477,37.469162,186.8454,0,7336
0.292102,0.440547,9.905115,-0.03446,0.027934,-0.009145,-11.52,-20.82,-39.24,151.266,-2.615,-2.1692,55.85477,37.469162,186.8454,0,7346
0.227456,0.354353,10.020041,-0.022853,0.044428,-0.007923,-11.4,-20.82,-39.48,151.266,-2.615,-2.1692,55.85477,37.469162,186.8454,0,7357
0.158022,0.335198,9.96976,-0.022853,0.044428,-0.007923,-11.4,-20.82,-39.48,151.266,-2.615,-2.1692,55.85477,37.469162,186.8454,0,7366
0.158022,0.335198,9.96976,-0.010025,0.042595,0.003684,-10.56,-21.24,-39.06,153.4636,-2.666,-2.1038,55.85477,37.469162,186.8454,0,7376
0.143657,0.385478,9.905115,-0.005138,0.040152,0.020177,-10.56,-21.24,-39.06,153.4636,-2.666,-2.1038,55.85477,37.469162,186.8454,0,7386
0.220273,0.478855,9.794978,-0.003305,0.027323,0.024453,-10.98,-21.54,-39.18,153.4636,-2.666,-2.1038,55.85477,37.469162,186.8454,0,7396
0.323227,0.52674,9.759064,-0.008803,0.023658,0.017733,-10.98,-21.54,-39.18,153.4636,-2.666,-2.1038,55.85477,37.469162,186.8454,0,7406
0.323227,0.52674,9.759064,-0.014301,0.019382,0.011014,-11.46,-21,-39.42,153.1634,-2.6048,-1.888,55.85477,37.469162,186.8454,0,7416
0.308861,0.476461,9.775824,-0.02041,0.016939,0.010403,-11.46,-21,-39.42,153.1634,-2.6048,-1.888,55.85477,37.469162,186.8454,0,7426
0.294496,0.430969,9.818921,-0.017355,0.004721,0.018344,-11.22,-21.3,-39.24,153.1634,-2.6048,-1.888,55.85477,37.469162,186.8454,0,7436
0.294496,0.404632,9.888355,-0.006971,-0.004442,0.034227,-11.22,-21.3,-39.24,153.1634,-2.6048,-1.888,55.85477,37.469162,186.8454,0,7446
0.351958,0.399844,9.91948,0.007079,-0.008107,0.042779,-11.34,-21.84,-39.6,154.0675,-2.5933,-1.7119,55.85477,37.469162,186.8454,0,7456
0.351958,0.399844,9.91948,0.007079,-0.008107,0.042779,-11.34,-21.84,-39.6,154.0675,-2.5933,-1.7119,55.85477,37.469162,186.8454,0,7466
0.512375,0.435758,9.852441,0.020518,-0.009939,0.036059,-11.28,-21.12,-39.66,154.0675,-2.5933,-1.7119,55.85477,37.469162,186.8454,0,7476
0.521952,0.409421,9.771035,0.024184,-0.012383,0.023842,-11.28,-21.12,-39.66,154.0675,-2.5933,-1.7119,55.85477,37.469162,186.8454,0,7486
0.52674,0.399844,9.833286,0.015631,-0.008718,0.017733,-11.1,-20.64,-39.6,152.9236,-2.5896,-1.7216,55.85477,37.469162,186.8454,0,7496
0.52674,0.399844,9.833286,0.004636,0.013273,0.012236,-11.1,-20.64,-39.6,152.9236,-2.5896,-1.7216,55.85477,37.469162,186.8454,0,7506
0.502798,0.435758,9.852441,0.008912,0.02488,0.009792,-10.86,-20.82,-39.42,152.9236,-2.5896,-1.7216,55.85477,37.469162,186.8454,0,7516
0.409421,0.498009,9.77343,0.013799,0.032821,0.006738,-10.86,-20.82,-39.42,152.9236,-2.5896,-1.7216,55.85477,37.469162,186.8454,0,7526
0.41421,0.581809,9.565128,0.010745,0.015106,-0.00609,-11.34,-21.66,-39.54,154.3702,-2.5928,-1.8992,55.85477,37.469162,186.8454,0,7536
0.407027,0.562655,9.548368,-0.007581,0.01083,-0.015864,-11.34,-21.66,-39.54,154.3702,-2.5928,-1.8992,55.85477,37.469162,186.8454,0,7546
0.407027,0.562655,9.548368,-0.007581,0.01083,-0.015864,-11.28,-22.02,-39.6,154.3702,-2.5928,-1.8992,55.85477,37.469162,186.8454,0,7556
0.395055,0.514769,9.58907,-0.035681,0.024269,-0.024416,-11.28,-22.02,-39.6,154.3702,-2.5928,-1.8992,55.85477,37.469162,186.8454,0,7566
0.366324,0.390267,9.761458,-0.058894,0.034043,-0.017697,-10.74,-21.12,-39.3,153.4062,-2.6349,-2.0527,55.85477,37.469162,186.8454,0,7576
0.306467,0.318439,9.933846,-0.060116,0.040152,-0.017086,-10.74,-21.12,-39.3,153.4062,-2.6349,-2.0527,55.85477,37.469162,186.8454,0,7586
0.306467,0.318439,9.933846,-0.04179,0.025491,-0.01281,-10.86,-20.34,-39.54,153.4062,-2.6349,-2.0527,55.85477,37.469162,186.8454,0,7596
0.26337,0.308861,9.933846,-0.005749,-0.005663,-0.009145,-10.86,-20.34,-39.54,153.4062,-2.6349,-2.0527,55.85477,37.469162,186.8454,0,7606
0.344776,0.351958,9.857229,0.008912,-0.026433,-0.006701,-11.1,-20.88,-40.02,153.5616,-2.6131,-2.1157,55.85477,37.469162,186.8454,0,7616
0.356747,0.409421,9.835681,0.018686,-0.038039,-0.01281,-11.1,-20.88,-40.02,153.5616,-2.6131,-2.1157,55.85477,37.469162,186.8454,0,7626
0.375901,0.418998,9.845258,0.015021,-0.032541,-0.014642,-11.46,-21.3,-39.24,153.5616,-2.6131,-2.1157,55.85477,37.469162,186.8454,0,7636
0.375901,0.418998,9.845258,0.005247,-0.028876,-0.020751,-11.46,-21.3,-39.24,153.5616,-2.6131,-2.1157,55.85477,37.469162,186.8454,0,7646
0.29689,0.349564,9.960183,-0.000251,-0.009939,-0.013421,-11.28,-20.58,-38.88,153.6391,-2.5431,-2.1482,55.85477,37.469162,186.8454,0,7657
0.258582,0.342381,9.967366,0.004636,-0.000776,-0.00609,-11.28,-20.58,-38.88,153.6391,-2.5431,-2.1482,55.85477,37.469162,186.8454,0,7666
0.272947,0.390267,9.854836,0.018075,-0.003831,0.003073,-11.04,-21.06,-39.6,153.6391,-2.5431,-2.1482,55.85477,37.469162,186.8454,0,7676
0.272947,0.390267,9.854836,0.022962,-0.008718,0.001851,-11.04,-21.06,-39.6,153.6391,-2.5431,-2.1482,55.85477,37.469162,186.8454,0,7686
0.411815,0.483644,9.754275,0.018075,-0.012383,-0.004869,-10.98,-21.72,-39.96,154.8651,-2.4654,-2.1419,55.85477,37.469162,186.8454,0,7696
0.409421,0.445335,9.737515,0.009523,-0.011772,-0.015864,-10.98,-21.72,-39.96,154.8651,-2.4654,-2.1419,55.85477,37.469162,186.8454,0,7707
0.409421,0.445335,9.737515,-0.003916,-0.001387,-0.015864,-10.62,-21.42,-39.9,154.8651,-2.4654,-2.1419,55.85477,37.469162,186.8454,0,7716
0.354353,0.36393,9.854836,-0.003916,0.01083,-0.009756,-10.62,-21.42,-39.9,154.8651,-2.4654,-2.1419,55.85477,37.469162,186.8454,0,7727
0.323227,0.36393,9.914692,0.010745,0.007165,-0.001814,-11.64,-21.24,-39.24,151.3113,-2.4456,-2.1027,55.85477,37.469162,186.8454,0,7736
0.339987,0.385478,9.876384,0.010745,0.007165,-0.001814,-11.58,-21.06,-39.12,151.3113,-2.4456,-2.1027,55.85477,37.469162,186.8454,0,7746
0.339987,0.385478,9.876384,0.022962,-0.000776,1.8E-05,-11.58,-21.06,-39.12,151.3113,-2.4456,-2.1027,55.85477,37.469162,186.8454,0,7756
0.375901,0.454912,9.768641,0.026627,-0.012994,-0.007312,-11.94,-21,-39.36,151.3113,-2.4456,-2.1027,55.85477,37.469162,186.8454,0,7766
0.373507,0.435758,9.761458,0.024184,-0.012994,-0.006701,-11.94,-21,-39.36,151.3113,-2.4456,-2.1027,55.85477,37.469162,186.8454,0,7776
0.378295,0.418998,9.811738,0.013799,-0.009939,-0.00609,-11.04,-20.28,-39.3,152.4038,-2.4151,-2.0796,55.85477,37.469162,186.8454,0,7786
0.385478,0.435758,9.864412,0.008912,-0.008107,-0.001814,-10.86,-20.58,-39.06,152.4038,-2.4151,-2.0796,55.85477,37.469162,186.8454,0,7796
0.385478,0.435758,9.864412,0.004025,0.002889,-0.000593,-10.86,-20.58,-39.06,152.4038,-2.4151,-2.0796,55.85477,37.469162,186.8454,0,7807
0.447729,0.452518,9.878778,0.004025,0.002889,-0.000593,-10.86,-20.58,-39.06,152.4038,-2.4151,-2.0796,55.854786,37.46915,187.9189,0,7816
0.409421,0.459701,9.850046,0.00036,0.010219,-0.005479,-11.34,-20.52,-39.12,153.6399,-2.453,-2.1028,55.854786,37.46915,187.9189,0,7826
0.387873,0.486038,9.821315,-0.004527,0.021826,-0.009145,-11.58,-21.36,-39.24,153.6399,-2.453,-2.1028,55.854786,37.46915,187.9189,0,7836
0.38069,0.478855,9.794978,-0.008192,0.019382,-0.011588,-11.58,-21.36,-39.24,153.6399,-2.453,-2.1028,55.854786,37.46915,187.9189,0,7846
0.38069,0.478855,9.794978,-0.00636,0.007776,-0.019529,-11.16,-21.48,-39.36,153.6399,-2.453,-2.1028,55.854786,37.46915,187.9189,0,7856
0.337593,0.478855,9.771035,-0.002084,0.001056,-0.018918,-11.16,-21.48,-39.36,153.6399,-2.453,-2.1028,55.854786,37.46915,187.9189,0,7865
0.335198,0.459701,9.778218,-0.00636,-0.006274,-0.016475,-11.34,-20.94,-39.54,153.6941,-2.4887,-2.1311,55.854786,37.46915,187.9189,0,7876
0.311256,0.452518,9.799767,-0.011858,-0.001998,-0.011588,-11.34,-20.94,-39.54,153.6941,-2.4887,-2.1311,55.854786,37.46915,187.9189,0,7886
0.28013,0.435758,9.811738,-0.016134,0.001667,-0.005479,-11.88,-20.82,-39.78,153.6941,-2.4887,-2.1311,55.854786,37.46915,187.9189,0,7896
0.28013,0.435758,9.811738,-0.023464,0.005943,-0.001814,-11.88,-20.82,-39.78,153.6941,-2.4887,-2.1311,55.854786,37.46915,187.9189,0,7906
0.272947,0.435758,9.905115,-0.032627,0.016328,-0.001814,-11.88,-20.7,-39.54,151.3129,-2.5394,-2.1374,55.854786,37.46915,187.9189,0,7916
0.294496,0.442941,9.962578,-0.021631,0.010219,-0.003647,-11.88,-20.7,-39.54,151.3129,-2.5394,-2.1374,55.854786,37.46915,187.9189,0,7926
0.292102,0.385478,10.015251,-0.005749,0.000445,-0.004258,-11.52,-21.06,-39.36,151.3129,-2.5394,-2.1374,55.854786,37.46915,187.9189,0,7936
0.253793,0.39745,9.991309,0.012577,-0.005052,0.002462,-11.52,-21.06,-39.36,151.3129,-2.5394,-2.1374,55.854786,37.46915,187.9189,0,7946
0.253793,0.39745,9.991309,0.02846,-0.012994,0.005516,-10.92,-21.6,-39.24,154.5855,-2.5224,-2.0178,55.854786,37.46915,187.9189,0,7957
0.217879,0.402238,9.921875,0.031514,-0.011772,0.017733,-10.92,-21.6,-39.24,154.5855,-2.5224,-2.0178,55.854786,37.46915,187.9189,0,7966
0.225062,0.402238,9.814133,0.029681,-0.016048,0.024453,-10.98,-21.42,-39.72,154.5855,-2.5224,-2.0178,55.854786,37.46915,187.9189,0,7976
0.301679,0.418998,9.814133,0.007079,-0.012383,0.032394,-10.98,-21.42,-39.72,154.5855,-2.5224,-2.0178,55.854786,37.46915,187.9189,0,7986
0.375901,0.409421,9.881172,-0.000862,-0.005052,0.032394,-11.04,-20.76,-39.66,153.3849,-2.5333,-1.9694,55.854786,37.46915,187.9189,0,7996
0.375901,0.409421,9.881172,-0.000862,-0.005052,0.032394,-11.04,-20.76,-39.66,153.3849,-2.5333,-1.9694,55.854786,37.46915,187.9189,0,8006
0.423787,0.392661,10.020041,0.006468,-0.000166,0.033005,-11.34,-20.34,-39.42,153.3849,-2.5333,-1.9694,55.854786,37.46915,187.9189,0,8016
0.488432,0.395055,10.0368,0.018686,0.001667,0.036059,-11.34,-20.34,-39.42,153.3849,-2.5333,-1.9694,55.854786,37.46915,187.9189,0,8026
0.517163,0.466884,10.063137,0.02907,0.010219,0.036059,-11.64,-20.82,-39.72,150.9392,-2.5136,-1.8897,55.854786,37.46915,187.9189,0,8036
0.498009,0.512375,9.854836,0.044953,0.019382,0.028729,-11.64,-20.82,-39.72,150.9392,-2.5136,-1.8897,55.854786,37.46915,187.9189,0,8046
0.509981,0.586597,9.672871,0.048618,0.016328,0.023231,-11.58,-21.12,-39.66,150.9392,-2.5136,-1.8897,55.854786,37.46915,187.9189,0,8055
0.509981,0.586597,9.672871,0.046175,-0.000776,0.00857,-11.58,-21.12,-39.66,150.9392,-2.5136,-1.8897,55.854786,37.46915,187.9189,0,8066
0.514769,0.608146,9.579494,0.040066,-0.01055,1.8E-05,-11.1,-21.48,-39.78,153.3567,-2.5265,-1.949,55.854786,37.46915,187.9189,0,8076
0.502798,0.615329,9.603436,0.033957,-0.020935,-0.009756,-11.1,-21.48,-39.78,153.3567,-2.5265,-1.949,55.854786,37.46915,187.9189,0,8086
0.512375,0.605752,9.660899,0.029681,-0.016048,-0.018918,-11.1,-21.48,-39.9,153.3567,-2.5265,-1.949,55.854786,37.46915,187.9189,0,8096
0.407027,0.536318,9.60583,0.029681,-0.012383,-0.025027,-11.1,-21.48,-39.9,153.3567,-2.5265,-1.949,55.854786,37.46915,187.9189,0,8106
0.407027,0.536318,9.60583,0.025405,-0.019713,-0.025027,-11.16,-20.94,-39.24,153.5417,-2.7045,-2.1713,55.854786,37.46915,187.9189,0,8116
0.366324,0.550683,9.591465,0.021129,-0.021546,-0.02686,-11.16,-20.94,-39.24,153.5417,-2.7045,-2.1713,55.854786,37.46915,187.9189,0,8126
0.368718,0.553077,9.567522,0.00769,-0.021546,-0.032968,-10.8,-21.24,-39.06,153.5417,-2.7045,-2.1713,55.854786,37.46915,187.9189,0,8136
0.361536,0.495615,9.613013,-0.009414,-0.003831,-0.037855,-10.8,-21.24,-39.06,153.5417,-2.7045,-2.1713,55.854786,37.46915,187.9189,0,8146
0.337593,0.452518,9.672871,-0.029573,0.004111,-0.041521,-10.74,-21.48,-39.78,153.7385,-2.9036,-2.3682,55.854786,37.46915,187.9189,0,8156
0.337593,0.452518,9.672871,-0.033849,0.021215,-0.037855,-10.74,-21.48,-39.78,153.7385,-2.9036,-2.3682,55.854786,37.46915,187.9189,0,8166
0.253793,0.407027,9.835681,-0.02774,0.026102,-0.031747,-11.16,-21.72,-39.6,153.7385,-2.9036,-2.3682,55.854786,37.46915,187.9189,0,8176
0.217879,0.411815,9.814133,-0.009414,0.009608,-0.029303,-11.16,-21.72,-39.6,153.7385,-2.9036,-2.3682,55.854786,37.46915,187.9189,0,8186
0.210696,0.426181,9.737515,-0.003305,-0.005052,-0.029303,-11.4,-21.78,-39.54,154.8893,-2.9641,-2.3975,55.854786,37.46915,187.9189,0,8196
0.210696,0.426181,9.737515,-0.003305,-0.005052,-0.029303,-11.4,-21.78,-39.54,154.8893,-2.9641,-2.3975,55.854786,37.46915,187.9189,0,8206
0.22985,0.442941,9.699207,-0.004527,-0.01727,-0.03419,-11.22,-21.12,-39.42,154.8893,-2.9641,-2.3975,55.854786,37.46915,187.9189,0,8216
0.186753,0.390267,9.780613,-0.013079,-0.012994,-0.023805,-11.22,-21.12,-39.42,154.8893,-2.9641,-2.3975,55.854786,37.46915,187.9189,0,8226
0.232245,0.366324,9.826104,-0.025907,0.002889,-0.013421,-11.16,-21.12,-39.42,153.4839,-2.9008,-2.2369,55.854786,37.46915,187.9189,0,8236
0.308861,0.31365,9.945818,-0.030183,0.015106,-0.003647,-11.16,-21.12,-39.42,153.4839,-2.9008,-2.2369,55.854786,37.46915,187.9189,0,8247
0.308861,0.31365,9.945818,-0.014912,0.023047,-0.000593,-11.7,-21.24,-39.84,153.4839,-2.9008,-2.2369,55.854786,37.46915,187.9189,0,8256
0.318439,0.339987,9.950606,-0.000251,0.021215,0.00124,-11.7,-21.24,-39.84,153.4839,-2.9008,-2.2369,55.854786,37.46915,187.9189,0,8266
0.260976,0.385478,9.895537,0.024184,0.006554,0.003684,-11.88,-21,-39.9,150.926,-2.7698,-2.0281,55.854786,37.46915,187.9189,0,8276
0.24661,0.500403,9.694419,0.036401,-0.008107,0.004905,-11.88,-21,-39.9,150.926,-2.7698,-2.0281,55.854786,37.46915,187.9189,0,8286
0.289707,0.574626,9.545974,0.030903,-0.023989,0.000629,-10.92,-21.3,-40.08,150.926,-2.7698,-2.0281,55.854786,37.46915,187.9189,0,8296
0.289707,0.574626,9.545974,0.002192,-0.030098,-0.010366,-10.92,-21.3,-40.08,150.926,-2.7698,-2.0281,55.854786,37.46915,187.9189,0,8307
0.33041,0.572232,9.682447,-0.023464,-0.007496,-0.009756,-10.62,-21.24,-39.54,153.1138,-2.6389,-1.8617,55.854786,37.46915,187.9189,0,8316
0.328016,0.474066,9.857229,-0.038736,0.01816,-0.004258,-10.62,-21.24,-39.54,153.1138,-2.6389,-1.8617,55.854786,37.46915,187.9189,0,8326
0.356747,0.454912,9.945818,-0.037514,0.025491,0.004905,-10.68,-21.18,-39,153.1138,-2.6389,-1.8617,55.854786,37.46915,187.9189,0,8336
0.402238,0.430969,9.931452,-0.011247,0.004721,0.004294,-10.68,-21.18,-39,153.1138,-2.6389,-1.8617,55.854786,37.46915,187.9189,0,8346
0.402238,0.430969,9.931452,0.00769,-0.023378,-0.001814,-10.92,-21.06,-39.48,153.0082,-2.6599,-1.8211,55.854786,37.46915,187.9189,0,8356
0.418998,0.423787,9.938635,0.01441,-0.025211,-0.007923,-10.92,-21.06,-39.48,153.0082,-2.6599,-1.8211,55.854786,37.46915,187.9189,0,8366
0.454912,0.39745,9.967366,0.01441,-0.025211,-0.007923,-10.74,-20.52,-39.12,153.0082,-2.6599,-1.8211,55.854786,37.46915,187.9189,0,8376
0.435758,0.390267,10.010463,0.016853,-0.020935,-0.004869,-10.74,-20.52,-39.12,153.0082,-2.6599,-1.8211,55.854786,37.46915,187.9189,0,8386
0.435758,0.390267,10.010463,0.010745,-0.000166,-0.001203,-9.9,-20.76,-38.7,155.4694,-2.6622,-1.8433,55.854786,37.46915,187.9189,0,8396
0.402238,0.375901,10.0368,0.024184,0.012052,0.003073,-9.9,-20.76,-38.7,155.4694,-2.6622,-1.8433,55.854786,37.46915,187.9189,0,8406
0.378295,0.447729,9.938635,0.046175,0.0035,0.00796,-10.8,-20.7,-39.66,155.4694,-2.6622,-1.8433,55.854786,37.46915,187.9189,0,8416
0.450124,0.553077,9.73991,0.072442,-0.017881,0.009792,-10.8,-20.7,-39.66,155.4694,-2.6622,-1.8433,55.854786,37.46915,187.9189,0,8425
0.462095,0.6273,9.641745,0.079772,-0.039261,1.8E-05,-11.46,-20.76,-39.96,153.2832,-2.6492,-1.9684,55.854786,37.46915,187.9189,0,8436
0.462095,0.6273,9.641745,0.07122,-0.046591,-0.018918,-11.46,-20.76,-39.96,153.2832,-2.6492,-1.9684,55.854786,37.46915,187.9189,0,8446
0.442941,0.629694,9.61062,0.061446,-0.04598,-0.025638,-11.58,-20.94,-39.12,153.2832,-2.6492,-1.9684,55.854786,37.46915,187.9189,0,8456
0.404632,0.581809,9.615408,0.02907,-0.020935,-0.02686,-11.58,-20.94,-39.12,153.2832,-2.6492,-1.9684,55.854786,37.46915,187.9189,0,8466
0.337593,0.569837,9.689631,0.004636,0.011441,-0.030525,-11.58,-20.7,-39.36,150.9947,-2.8102,-2.1076,55.854786,37.46915,187.9189,0,8476
0.289707,0.548289,9.692024,0.000971,0.016939,-0.033579,-11.58,-20.7,-39.36,150.9947,-2.8102,-2.1076,55.854786,37.46915,187.9189,0,8486
0.289707,0.548289,9.692024,0.010134,0.012663,-0.035412,-11.28,-21.18,-39.78,150.9947,-2.8102,-2.1076,55.854786,37.46915,187.9189,0,8496
0.239427,0.521952,9.682447,0.018686,-0.005663,-0.030525,-11.28,-21.18,-39.78,150.9947,-2.8102,-2.1076,55.854786,37.46915,187.9189,0,8506
0.244216,0.476461,9.627379,0.010745,-0.015437,-0.023195,-11.34,-21.18,-39.42,153.3018,-2.8413,-2.0957,55.854786,37.46915,187.9189,0,8516
0.311256,0.442941,9.720756,-0.008803,-0.011772,-0.025027,-11.34,-21.18,-39.42,153.3018,-2.8413,-2.0957,55.854786,37.46915,187.9189,0,8526
0.306467,0.385478,9.830893,-0.019799,0.004721,-0.019529,-11.22,-21.36,-39.42,153.3018,-2.8413,-2.0957,55.854786,37.46915,187.9189,0,8536
0.320833,0.368718,9.893144,-0.026518,0.020604,-0.012199,-11.22,-21.36,-39.42,153.3018,-2.8413,-2.0957,55.854786,37.46915,187.9189,0,8546
0.320833,0.368718,9.893144,-0.026518,0.020604,-0.012199,-10.98,-22.14,-39.24,154.4283,-2.8784,-2.0937,55.854786,37.46915,187.9189,0,8556
0.304073,0.421392,9.871595,-0.010636,0.007776,-0.004258,-10.98,-22.14,-39.24,154.4283,-2.8784,-2.0937,55.854786,37.46915,187.9189,0,8566
0.337593,0.440547,9.859624,0.004025,-0.013605,0.000629,-10.8,-21.66,-39.36,154.4283,-2.8784,-2.0937,55.854786,37.46915,187.9189,0,8577
0.407027,0.495615,9.895537,0.017464,-0.022157,-0.000593,-10.8,-21.66,-39.36,154.4283,-2.8784,-2.0937,55.854786,37.46915,187.9189,0,8586
0.407027,0.495615,9.895537,0.037623,-0.039261,-0.009145,-11.4,-21.18,-39.42,153.1819,-2.8084,-2.0054,55.854786,37.46915,187.9189,0,8596
0.462095,0.562655,9.890749,0.052894,-0.044148,-0.01281,-11.4,-21.18,-39.42,153.1819,-2.8084,-2.0054,55.854786,37.46915,187.9189,0,8607
0.471672,0.591386,9.814133,0.050451,-0.042315,-0.016475,-11.58,-21.6,-38.7,153.1819,-2.8084,-2.0054,55.854786,37.46915,187.9189,0,8616
0.445335,0.632089,9.763853,0.047396,-0.038039,-0.021973,-11.58,-21.6,-38.7,153.1819,-2.8084,-2.0054,55.854786,37.46915,187.9189,0,8627
0.445335,0.632089,9.763853,0.047396,-0.038039,-0.021973,-11.46,-21.66,-39.12,154.3907,-2.8256,-2.044,55.854786,37.46915,187.9189,0,8636
0.409421,0.622511,9.763853,0.037623,-0.021546,-0.021362,-11.46,-21.66,-39.12,154.3907,-2.8256,-2.044,55.854786,37.46915,187.9189,0,8646
0.41421,0.620117,9.718362,0.020518,-0.00322,-0.018918,-11.46,-21.6,-39.6,154.3907,-2.8256,-2.044,55.854786,37.46915,187.9189,0,8656
0.383084,0.581809,9.754275,0.010134,0.01083,-0.02014,-11.46,-21.6,-39.6,154.3907,-2.8256,-2.044,55.854786,37.46915,187.9189,0,8666
0.383084,0.581809,9.754275,0.004025,0.027323,-0.015253,-11.4,-21.6,-39.48,154.4834,-2.9847,-2.1807,55.854786,37.46915,187.9189,0,8676
0.404632,0.56026,9.727939,-0.004527,0.032821,-0.019529,-11.4,-21.6,-39.48,154.4834,-2.9847,-2.1807,55.854786,37.46915,187.9189,0,8687
0.366324,0.538712,9.732727,0.002192,0.026102,-0.02686,-10.92,-20.94,-39.24,154.4834,-2.9847,-2.1807,55.854786,37.46915,187.9189,0,8696
0.308861,0.512375,9.737515,0.012577,0.012663,-0.025027,-10.92,-20.94,-39.24,154.4834,-2.9847,-2.1807,55.854786,37.46915,187.9189,0,8706
0.282524,0.505192,9.72315,0.013799,0.0035,-0.02686,-10.5,-20.76,-38.88,155.7219,-3.1057,-2.1984,55.854786,37.46915,187.9189,0,8716
0.282524,0.505192,9.72315,0.013188,-0.001387,-0.023195,-10.5,-20.76,-38.88,155.7219,-3.1057,-2.1984,55.854786,37.46915,187.9189,0,8726
0.258582,0.457306,9.785401,0.013188,-0.001387,-0.023195,-10.8,-21.48,-39,155.7219,-3.1057,-2.1984,55.854786,37.46915,187.9189,0,8736
0.220273,0.454912,9.797373,0.018075,0.006554,-0.013421,-10.8,-21.48,-39,155.7219,-3.1057,-2.1984,55.854786,37.46915,187.9189,0,8746
0.220273,0.454912,9.797373,0.030903,0.001056,-0.004258,-11.1,-21.72,-39.12,154.3234,-3.1615,-2.1686,55.854786,37.46915,187.9189,0,8756
0.320833,0.557866,9.72315,0.024794,-0.006885,0.000629,-11.1,-21.72,-39.12,154.3234,-3.1615,-2.1686,55.854786,37.46915,187.9189,0,8766
0.385478,0.615329,9.749487,0.019907,-0.006274,-0.009145,-11.58,-21.48,-38.76,154.3234,-3.1615,-2.1686,55.854786,37.46915,187.9189,0,8776
0.428575,0.656031,9.804555,0.010134,-0.000166,-0.012199,-11.58,-21.48,-38.76,154.3234,-3.1615,-2.1686,55.854786,37.46915,187.9189,0,8786
0.428575,0.656031,9.804555,0.004636,0.007165,-0.018308,-11.34,-21.42,-39,152.964,-3.1538,-2.054,55.854786,37.46915,187.9189,0,8796
0.421392,0.653637,9.854836,0.004636,0.007165,-0.018308,-11.34,-21.42,-39,152.964,-3.1538,-2.054,55.854786,37.46915,187.9189,0,8806
0.423787,0.617723,9.847652,0.008912,0.007165,-0.019529,-10.74,-21.72,-39.54,152.964,-3.1538,-2.054,55.854797,37.46914,188.4796,0,8816
0.440547,0.581809,9.823709,0.013188,0.002889,-0.021973,-10.74,-21.72,-39.54,152.964,-3.1538,-2.054,55.854797,37.46914,188.4796,0,8826
0.440547,0.581809,9.823709,0.010745,0.001667,-0.02686,-10.98,-21.84,-39.24,154.0736,-3.2246,-2.0445,55.854797,37.46914,188.4796,0,8836
0.457306,0.567443,9.77343,0.010134,0.001667,-0.031136,-10.98,-21.84,-39.24,154.0736,-3.2246,-2.0445,55.854797,37.46914,188.4796,0,8846
0.445335,0.536318,9.775824,0.001582,-0.001387,-0.036023,-11.1,-21.78,-39,154.0736,-3.2246,-2.0445,55.854797,37.46914,188.4796,0,8856
0.399844,0.495615,9.838076,-0.001473,0.001056,-0.037244,-11.1,-21.78,-39,154.0736,-3.2246,-2.0445,55.854797,37.46914,188.4796,0,8866
0.375901,0.533923,9.840469,0.004636,-0.000166,-0.031747,-10.98,-21.78,-38.88,154.1276,-3.3147,-2.1234,55.854797,37.46914,188.4796,0,8876
0.375901,0.533923,9.840469,0.008301,-0.00322,-0.031136,-10.98,-21.78,-38.88,154.1276,-3.3147,-2.1234,55.854797,37.46914,188.4796,0,8886
