ACCELEROMETER X (m/s²),ACCELEROMETER Y (m/s²),ACCELEROMETER Z (m/s²),GRAVITY X (m/s²),GRAVITY Y (m/s²),GRAVITY Z (m/s²),GYROSCOPE X (rad/s),GYROSCOPE Y (rad/s),GYROSCOPE Z (rad/s),MAGNETIC FIELD X (μT),MAGNETIC FIELD Y (μT),MAGNETIC FIELD Z (μT),ORIENTATION Z (azimuth °),ORIENTATION X (pitch °),ORIENTATION Y (roll °),LOCATION Latitude : ,LOCATION Longitude : ,LOCATION Altitude ( m),LOCATION Altitude-google ( m),LOCATION Speed ( m/s),LOCATION Accuracy ( m),LOCATION ORIENTATION (°),Satellites in range,GPS NMEA,Time since start in ms ,YYYY-MO-DD HH-MI-SS_SSS
0.013796,0.04728,9.73886,9.63E-4,-5.93E-4,9.80665,6.29E-4,1.25E-4,0.001448,1.56,-15.12,-24.78,189.0586,0.1633,-0.9238,55.813847,37.500088,187.5595,NaN,0.0925,8.0,28.1794,12 / 19,,31,2021-05-01 19:20:58:129
-0.014445,0.010669,9.703183,0.001699,-0.001394,9.806649,0.003072,0.003179,2.26E-4,1.56,-15.78,-23.88,189.0586,0.1633,-0.9238,55.813847,37.500088,187.5595,NaN,0.0925,8.0,28.1794,12 / 19,,42,2021-05-01 19:20:58:140
-0.014445,0.010669,9.703183,0.001699,-0.001394,9.806649,0.00185,0.003179,0.001448,1.56,-15.78,-23.88,189.0586,0.1633,-0.9238,55.813847,37.500088,187.5595,NaN,0.0925,8.0,28.1794,12 / 19,,52,2021-05-01 19:20:58:150
-0.003394,-0.012961,9.mak719647,5.51E-4,-4.33E-4,9.806648,0.002461,0.001346,0.006335,1.68,-15.54,-24.42,188.4339,0.1568,-0.9127,55.813847,37.500088,187.5595,NaN,0.0925,8.0,28.1794,12 / 19,,61,2021-05-01 19:20:58:159
-0.003394,-0.012961,9.719647,5.51E-4,-4.33E-4,9.806648,0.002461,0.001346,0.006335,1.68,-15.54,-24.42,188.4339,0.1568,-0.9127,55.813847,37.500088,187.5595,NaN,0.0925,8.0,28.1794,12 / 19,,71,2021-05-01 19:20:58:169
0.020172,-0.005683,9.721685,0.001204,-7.07E-4,9.806647,0.00185,7.35E-4,0.005113,1.5,-15.6,-24.84,188.4339,0.1568,-0.9127,55.813847,37.500088,187.5595,NaN,0.0925,8.0,28.1794,12 / 19,,82,2021-05-01 19:20:58:180
0.010843,0.029592,9.719612,0.001204,-7.07E-4,9.806647,0.002461,-0.001097,0.002059,1.5,-15.6,-24.84,188.4339,0.1568,-0.9127,55.813847,37.500088,187.5595,NaN,0.0925,8.0,28.1794,12 / 19,,91,2021-05-01 19:20:58:189
-0.004886,0.053575,9.70793,-3.56E-4,4.11E-4,9.806652,0.00185,-4.86E-4,0.002669,0.96,-15.84,-24.12,184.9065,0.1537,-0.9052,55.813847,37.500088,187.5595,NaN,0.0925,8.0,28.1794,12 / 19,,101,2021-05-01 19:20:58:199
-0.004886,0.053575,9.70793,-3.56E-4,4.11E-4,9.806652,-0.001204,0.002568,0.001448,0.96,-15.84,-24.12,184.9065,0.1537,-0.9052,55.813847,37.500088,187.5595,NaN,0.0925,8.0,28.1794,12 / 19,,112,2021-05-01 19:20:58:210
-0.018409,-0.022195,9.719808,-0.001196,0.002122,9.806652,0.002461,0.002568,8.37E-4,1.02,-15.66,-24.54,184.9065,0.1537,-0.9052,55.813847,37.500088,187.5595,NaN,0.0925,8.0,28.1794,12 / 19,,121,2021-05-01 19:20:58:219
0.008945,-0.010104,9.712248,-0.001196,0.002122,9.806652,1.8E-5,0.002568,0.001448,1.02,-15.66,-24.54,184.9065,0.1537,-0.9052,55.813847,37.500088,187.5595,NaN,0.0925,8.0,28.1794,12 / 19,,132,2021-05-01 19:20:58:230
-0.019776,0.052062,9.708239,-7.47E-4,0.001233,9.806651,0.002461,0.003179,0.002059,1.68,-15.72,-24.96,188.4868,0.1655,-0.9132,55.813847,37.500088,187.5595,NaN,0.0925,8.0,28.1794,12 / 19,,141,2021-05-01 19:20:58:239
-0.019776,0.052062,9.708239,-7.47E-4,0.001233,9.806651,6.29E-4,-0.004762,0.003891,1.68,-15.72,-24.96,188.4868,0.1655,-0.9132,55.813847,37.500088,187.5595,NaN,0.0925,8.0,28.1794,12 / 19,,152,2021-05-01 19:20:58:250
-0.008483,0.033516,9.679234,-0.001479,0.002302,9.806649,6.29E-4,-0.004762,0.003891,2.64,-16.08,-25.14,188.4868,0.1655,-0.9132,55.813847,37.500088,187.5595,NaN,0.0925,8.0,28.1794,12 / 19,,161,2021-05-01 19:20:58:259
-0.023347,-0.020014,9.703128,-0.001479,0.002302,9.806649,6.29E-4,-0.001097,0.001448,2.64,-16.08,-25.14,188.4868,0.1655,-0.9132,55.813847,37.500088,187.5595,NaN,0.0925,8.0,28.1794,12 / 19,,172,2021-05-01 19:20:58:270
0.012487,-0.022685,9.736116,-0.001413,6.2E-4,9.80665,6.29E-4,-0.001097,0.001448,2.28,-16.26,-24.66,188.5001,0.1775,-0.9237,55.813847,37.500088,187.5595,NaN,0.0925,8.0,28.1794,12 / 19,,181,2021-05-01 19:20:58:279
0.016393,0.034801,9.745948,-0.001413,6.2E-4,9.80665,0.00185,-0.001708,0.002059,2.28,-16.26,-24.66,188.5001,0.1775,-0.9237,55.813847,37.500088,187.5595,NaN,0.0925,8.0,28.1794,12 / 19,,192,2021-05-01 19:20:58:290
0.016393,0.034801,9.745948,-0.002789,9.76E-4,9.806649,0.001239,-0.002319,-3.85E-4,1.44,-15.9,-24.06,188.5001,0.1775,-0.9237,55.813847,37.500088,187.5595,NaN,0.0925,8.0,28.1794,12 / 19,,201,2021-05-01 19:20:58:299
-0.028005,-0.036047,9.751038,-0.002789,9.76E-4,9.806649,-5.93E-4,-0.002319,2.26E-4,1.44,-15.9,-24.06,188.5001,0.1775,-0.9237,55.813847,37.500088,187.5595,NaN,0.0925,8.0,28.1794,12 / 19,,211,2021-05-01 19:20:58:309
0.022935,-0.040136,9.769455,-0.001505,9.27E-4,9.806651,0.002461,0.006233,0.002669,1.2,-15.78,-24.3,184.9556,0.1808,-0.9407,55.813847,37.500088,187.5595,NaN,0.0925,8.0,28.1794,12 / 19,,221,2021-05-01 19:20:58:319
0.019373,0.001013,9.774489,-0.001505,9.27E-4,9.806651,0.004905,0.003179,0.002669,1.2,-15.78,-24.3,184.9556,0.1808,-0.9407,55.813847,37.500088,187.5595,NaN,0.0925,8.0,28.1794,12 / 19,,231,2021-05-01 19:20:58:329
0.019373,0.001013,9.774489,-0.001188,1.88E-4,9.806651,0.003072,7.35E-4,0.002059,0.96,-15.72,-24.9,184.9556,0.1808,-0.9407,55.813847,37.500088,187.5595,NaN,0.0925,8.0,28.1794,12 / 19,,241,2021-05-01 19:20:58:339
-0.001021,0.034341,9.674397,-0.001188,1.88E-4,9.806651,-0.001204,0.003179,0.001448,0.96,-15.72,-24.9,184.9556,0.1808,-0.9407,55.813847,37.500088,187.5595,NaN,0.0925,8.0,28.1794,12 / 19,,251,2021-05-01 19:20:58:349
0.002166,-0.050223,9.729035,-1.28E-4,2.04E-4,9.806649,-0.001815,0.003179,0.002669,1.2,-15.96,-24.78,185.0235,0.1813,-0.9477,55.813847,37.500088,187.5595,NaN,0.0925,8.0,28.1794,12 / 19,,261,2021-05-01 19:20:58:359
-0.016341,0.044886,9.780075,-1.28E-4,2.04E-4,9.806649,-0.001815,0.003179,0.002669,1.2,-15.96,-24.78,185.0235,0.1813,-0.9477,55.813847,37.500088,187.5595,NaN,0.0925,8.0,28.1794,12 / 19,,271,2021-05-01 19:20:58:369
-0.010063,0.008305,9.772622,-5.18E-4,3.51E-4,9.806648,0.002461,0.001957,0.005724,1.26,-16.32,-24.54,185.0235,0.1813,-0.9477,55.813847,37.500088,187.5595,NaN,0.0925,8.0,28.1794,12 / 19,,281,2021-05-01 19:20:58:379
0.009507,-0.063001,9.736058,-8.28E-4,0.001011,9.806649,6.29E-4,-0.003541,0.002059,1.26,-16.14,-24.72,185.0235,0.1813,-0.9477,55.813847,37.500088,187.5595,NaN,0.0925,8.0,28.1794,12 / 19,,291,2021-05-01 19:20:58:389
0.009507,-0.063001,9.736058,-8.28E-4,0.001011,9.806649,-5.93E-4,-0.003541,2.26E-4,1.26,-16.14,-24.72,185.0235,0.1813,-0.9477,55.813847,37.500088,187.5595,NaN,0.0925,8.0,28.1794,12 / 19,,301,2021-05-01 19:20:58:399
0.014852,-0.007825,9.621284,-8.86E-4,0.0016,9.80665,1.8E-5,7.35E-4,-9.96E-4,1.26,-16.26,-24.36,184.9732,0.1867,-0.953,55.813847,37.500088,187.5595,NaN,0.0925,8.0,28.1794,12 / 19,,312,2021-05-01 19:20:58:410
0.006536,0.032996,9.576129,-8.86E-4,0.0016,9.80665,1.8E-5,-0.002319,0.001448,1.26,-16.26,-24.36,184.9732,0.1867,-0.953,55.813847,37.500088,187.5595,NaN,0.0925,8.0,28.1794,12 / 19,,322,2021-05-01 19:20:58:420
0.019882,-0.074113,9.637669,-0.003187,0.003254,9.806648,1.8E-5,1.25E-4,0.001448,1.14,-16.38,-24.18,184.9732,0.1867,-0.953,55.813847,37.500088,187.5595,NaN,0.0925,8.0,28.1794,12 / 19,,331,2021-05-01 19:20:58:429
0.019882,-0.074113,9.637669,-0.003133,0.003731,9.806649,-5.93E-4,0.001346,0.001448,1.38,-15.6,-24.42,184.9732,0.1867,-0.953,55.813847,37.500088,187.5595,NaN,0.0925,8.0,28.1794,12 / 19,,341,2021-05-01 19:20:58:439
0.03331,-0.047201,9.869854,-0.003133,0.003731,9.806649,0.002461,-0.001097,2.26E-4,1.38,-15.6,-24.42,184.9732,0.1867,-0.953,55.813847,37.500088,187.5595,NaN,0.0925,8.0,28.1794,12 / 19,,352,2021-05-01 19:20:58:450
-0.024832,0.150761,9.675372,-7.39E-4,0.001693,9.806651,-5.93E-4,0.003179,0.002059,1.74,-16.08,-24.6,188.5684,0.2068,-0.9732,55.813847,37.500088,187.5595,NaN,0.0925,8.0,28.1794,12 / 19,,361,2021-05-01 19:20:58:459
-0.06281,0.119949,9.530009,-7.39E-4,0.001693,9.806651,-5.93E-4,0.003179,0.002059,1.74,-16.08,-24.6,188.5684,0.2068,-0.9732,55.813847,37.500088,187.5595,NaN,0.0925,8.0,28.1794,12 / 19,,372,2021-05-01 19:20:58:470
0.016579,-0.202899,9.792555,-0.001057,0.001592,9.806651,0.002461,-0.001097,0.00328,1.26,-16.26,-24.96,188.5684,0.2068,-0.9732,55.813847,37.500088,187.5595,NaN,0.0925,8.0,28.1794,12 / 19,,381,2021-05-01 19:20:58:479
0.042036,0.083993,9.745997,-0.001057,0.001592,9.806651,0.001239,0.001957,2.26E-4,1.26,-16.26,-24.96,188.5684,0.2068,-0.9732,55.813847,37.500088,187.5595,NaN,0.0925,8.0,28.1794,12 / 19,,393,2021-05-01 19:20:58:491
0.042036,0.083993,9.745997,-5.41E-4,-0.002324,9.80665,0.002461,0.005012,0.001448,1.92,-16.14,-25.02,188.5779,0.2151,-0.9807,55.813847,37.500088,187.5595,NaN,0.0925,8.0,28.1794,12 / 19,,402,2021-05-01 19:20:58:500
-0.031478,0.035472,9.763695,-5.41E-4,-0.002324,9.80665,0.00185,0.001346,8.37E-4,1.92,-16.14,-25.02,188.5779,0.2151,-0.9807,55.813847,37.500088,187.5595,NaN,0.0925,8.0,28.1794,12 / 19,,411,2021-05-01 19:20:58:509
0.019042,-0.148546,9.668324,-7.15E-4,-0.004694,9.806648,1.8E-5,-0.00293,0.001448,2.1,-16.02,-24.3,188.5779,0.2151,-0.9807,55.813847,37.500088,187.5595,NaN,0.0925,8.0,28.1794,12 / 19,,421,2021-05-01 19:20:58:519
0.020559,0.057137,9.643247,-7.15E-4,-0.004694,9.806648,0.002461,-0.00293,0.001448,2.1,-16.02,-24.3,188.5779,0.2151,-0.9807,55.813847,37.500088,187.5595,NaN,0.0925,8.0,28.1794,12 / 19,,431,2021-05-01 19:20:58:529
0.020559,0.057137,9.643247,-3.03E-4,-0.002279,9.80665,0.00185,0.001957,8.37E-4,1.62,-16.5,-24.72,188.5843,0.1874,-0.9807,55.813847,37.500088,187.5595,NaN,0.0925,8.0,28.1794,12 / 19,,441,2021-05-01 19:20:58:539
-0.031162,0.030793,9.682213,-3.03E-4,-0.002279,9.80665,-0.001815,-0.004151,0.002059,1.62,-16.5,-24.72,188.5843,0.1874,-0.9807,55.813847,37.500088,187.5595,NaN,0.0925,8.0,28.1794,12 / 19,,451,2021-05-01 19:20:58:549
0.016173,-0.068235,9.642548,7.54E-4,-0.004553,9.806649,0.001239,-0.001708,0.004502,1.8,-16.14,-24.72,188.5843,0.1874,-0.9807,55.813847,37.500088,187.5595,NaN,0.0925,8.0,28.1794,12 / 19,,462,2021-05-01 19:20:58:560
0.023292,-0.004375,9.776899,7.54E-4,-0.004553,9.806649,0.001239,-0.001708,0.004502,1.8,-16.14,-24.72,188.5843,0.1874,-0.9807,55.813847,37.500088,187.5595,NaN,0.0925,8.0,28.1794,12 / 19,,471,2021-05-01 19:20:58:569
0.029649,0.006573,9.712167,9.24E-4,-0.002401,9.80665,0.001239,0.001957,0.002059,1.68,-15.96,-24.48,188.5198,0.1617,-0.9724,55.813847,37.500088,187.5595,NaN,0.0925,8.0,28.1794,12 / 19,,481,2021-05-01 19:20:58:579
0.029649,0.006573,9.712167,9.24E-4,-0.002401,9.80665,0.002461,0.003179,8.37E-4,1.68,-15.96,-24.48,188.5198,0.1617,-0.9724,55.813847,37.500088,187.5595,NaN,0.0925,8.0,28.1794,12 / 19,,491,2021-05-01 19:20:58:589
-0.018799,-0.005431,9.674582,0.002263,-0.004112,9.80665,0.004294,0.00379,2.26E-4,1.38,-16.08,-24.96,188.5198,0.1617,-0.9724,55.813847,37.500088,187.5595,NaN,0.0925,8.0,28.1794,12 / 19,,501,2021-05-01 19:20:58:599
0.005266,0.007864,9.691021,0.002263,-0.004112,9.80665,0.001239,1.25E-4,2.26E-4,1.38,-16.08,-24.96,188.5198,0.1617,-0.9724,55.813847,37.500088,187.5595,NaN,0.0925,8.0,28.1794,12 / 19,,511,2021-05-01 19:20:58:609
0.024945,0.01679,9.772162,0.001876,-0.001328,9.806649,-5.93E-4,-0.002319,8.37E-4,1.5,-15.66,-25.32,188.5572,0.1399,-0.9557,55.813847,37.500088,187.5595,NaN,0.0925,8.0,28.1794,12 / 19,,522,2021-05-01 19:20:58:620
0.011103,-0.003927,9.736306,0.001876,-0.001328,9.806649,0.004294,0.005622,8.37E-4,1.5,-15.66,-25.32,188.5572,0.1399,-0.9557,55.813847,37.500088,187.5595,NaN,0.0925,8.0,28.1794,12 / 19,,531,2021-05-01 19:20:58:629
0.011103,-0.003927,9.736306,0.003713,-0.0022,9.806648,1.8E-5,7.35E-4,0.004502,1.26,-16.44,-25.2,188.5572,0.1399,-0.9557,55.813847,37.500088,187.5595,NaN,0.0925,8.0,28.1794,12 / 19,,541,2021-05-01 19:20:58:639
-0.022286,-0.005931,9.641049,0.003713,-0.0022,9.806648,0.00185,-4.86E-4,0.002669,1.26,-16.44,-25.2,188.5572,0.1399,-0.9557,55.813847,37.500088,187.5595,NaN,0.0925,8.0,28.1794,12 / 19,,551,2021-05-01 19:20:58:649
0.007736,0.025717,9.702982,7.64E-4,-4.96E-4,9.80665,0.002461,-0.001708,8.37E-4,1.26,-16.38,-25.38,185.0067,0.1305,-0.9324,55.813847,37.500088,187.5595,NaN,0.0925,8.0,28.1794,12 / 19,,561,2021-05-01 19:20:58:659
0.007736,0.025717,9.702982,7.64E-4,-4.96E-4,9.80665,0.002461,-0.001708,8.37E-4,1.26,-16.38,-25.38,185.0067,0.1305,-0.9324,55.813847,37.500088,187.5595,NaN,0.0925,8.0,28.1794,12 / 19,,572,2021-05-01 19:20:58:670
0.026942,0.025827,9.750467,0.001525,-1.23E-4,9.80665,-0.001815,-0.003541,2.26E-4,1.5,-15.78,-25.2,185.0067,0.1305,-0.9324,55.813843,37.500084,187.8849,NaN,0.4227,24.0,1.5033,10 / 20,,581,2021-05-01 19:20:58:679
0.007453,0.051584,9.74369,0.001525,-1.23E-4,9.80665,0.00185,7.35E-4,0.002669,1.5,-15.78,-25.2,185.0067,0.1305,-0.9324,55.813843,37.500084,187.8849,NaN,0.4227,24.0,1.5033,10 / 20,,592,2021-05-01 19:20:58:690
0.001644,-0.022386,9.72912,8.8E-5,5.41E-4,9.80665,0.002461,1.25E-4,0.001448,1.14,-15.54,-24.24,184.9365,0.1305,-0.9234,55.813843,37.500084,187.8849,NaN,0.4227,24.0,1.5033,10 / 20,,602,2021-05-01 19:20:58:700
0.00494,-0.005772,9.695604,8.8E-5,5.41E-4,9.80665,-0.001815,-0.004762,0.00328,1.14,-15.54,-24.24,184.9365,0.1305,-0.9234,55.813843,37.500084,187.8849,NaN,0.4227,24.0,1.5033,10 / 20,,611,2021-05-01 19:20:58:709
0.00494,-0.005772,9.695604,2.97E-4,0.001395,9.80665,6.29E-4,0.001346,0.002059,0.9,-15.3,-24.48,184.9365,0.1305,-0.9234,55.813843,37.500084,187.8849,NaN,0.4227,24.0,1.5033,10 / 20,,621,2021-05-01 19:20:58:719
-0.007461,0.062456,9.753521,2.97E-4,0.001395,9.80665,0.003072,7.35E-4,0.002669,0.9,-15.3,-24.48,184.9365,0.1305,-0.9234,55.813843,37.500084,187.8849,NaN,0.4227,24.0,1.5033,10 / 20,,631,2021-05-01 19:20:58:729
-0.017202,0.009054,9.743902,-3.29E-4,0.002011,9.80665,0.003072,0.001346,0.002059,1.26,-15.96,-24.9,184.9902,0.1388,-0.9224,55.813843,37.500084,187.8849,NaN,0.4227,24.0,1.5033,10 / 20,,642,2021-05-01 19:20:58:740
-0.017202,0.009054,9.743902,-3.29E-4,0.002011,9.80665,0.002461,0.002568,0.001448,1.26,-15.96,-24.9,184.9902,0.1388,-0.9224,55.813843,37.500084,187.8849,NaN,0.4227,24.0,1.5033,10 / 20,,652,2021-05-01 19:20:58:750
1.16E-4,-0.009234,9.724403,-9.2E-4,0.003723,9.806649,0.002461,0.002568,0.001448,1.5,-15.84,-24.66,184.9902,0.1388,-0.9224,55.813843,37.500084,187.8849,NaN,0.4227,24.0,1.5033,10 / 20,,661,2021-05-01 19:20:58:759
-0.019039,-0.031538,9.700675,-9.2E-4,0.003723,9.806649,0.001239,1.25E-4,0.003891,1.5,-15.84,-24.66,184.9902,0.1388,-0.9224,55.813843,37.500084,187.8849,NaN,0.4227,24.0,1.5033,10 / 20,,671,2021-05-01 19:20:58:769
0.008837,0.012338,9.714818,-2.27E-4,9.33E-4,9.806652,-0.001204,7.35E-4,0.001448,1.62,-15.48,-24.72,189.0688,0.16,-0.9297,55.813843,37.500084,187.8849,NaN,0.4227,24.0,1.5033,10 / 20,,682,2021-05-01 19:20:58:780
0.008837,0.012338,9.714818,-2.27E-4,9.33E-4,9.806652,0.001239,-0.001097,0.004502,1.62,-15.48,-24.72,189.0688,0.16,-0.9297,55.813843,37.500084,187.8849,NaN,0.4227,24.0,1.5033,10 / 20,,691,2021-05-01 19:20:58:789
-0.003962,0.009572,9.700636,-5.3E-4,0.001703,9.806651,0.001239,-4.86E-4,8.37E-4,1.44,-16.02,-24.54,189.0688,0.16,-0.9297,55.813843,37.500084,187.8849,NaN,0.4227,24.0,1.5033,10 / 20,,701,2021-05-01 19:20:58:799
-0.004683,-0.041249,9.707561,-5.3E-4,0.001703,9.806651,0.002461,1.25E-4,2.26E-4,1.44,-16.02,-24.54,189.0688,0.16,-0.9297,55.813843,37.500084,187.8849,NaN,0.4227,24.0,1.5033,10 / 20,,712,2021-05-01 19:20:58:810
-0.004683,-0.041249,9.707561,-4.25E-4,5.74E-4,9.806649,0.001239,7.35E-4,2.26E-4,1.08,-16.62,-24.42,184.6591,0.1693,-0.9343,55.813843,37.500084,187.8849,NaN,0.4227,24.0,1.5033,10 / 20,,721,2021-05-01 19:20:58:819
-0.004974,-0.009218,9.72692,-4.25E-4,5.74E-4,9.806649,0.001239,0.001346,0.002059,1.08,-16.62,-24.42,184.6591,0.1693,-0.9343,55.813843,37.500084,187.8849,NaN,0.4227,24.0,1.5033,10 / 20,,732,2021-05-01 19:20:58:830
0.015569,-0.020471,9.716965,-1.24E-4,0.001661,9.806649,0.001239,-0.001097,-9.96E-4,1.68,-16.32,-24.78,184.6591,0.1693,-0.9343,55.813843,37.500084,187.8849,NaN,0.4227,24.0,1.5033,10 / 20,,741,2021-05-01 19:20:58:839
-0.019652,0.059431,9.662794,-1.24E-4,0.001661,9.806649,0.001239,-0.001097,-9.96E-4,1.68,-16.32,-24.78,184.6591,0.1693,-0.9343,55.813843,37.500084,187.8849,NaN,0.4227,24.0,1.5033,10 / 20,,751,2021-05-01 19:20:58:849
-0.002509,-0.03767,9.738689,-3.02E-4,-1.35E-4,9.80665,0.001239,0.003179,0.002059,1.74,-15.36,-24.48,189.0152,0.1789,-0.9358,55.813843,37.500084,187.8849,NaN,0.4227,24.0,1.5033,10 / 20,,761,2021-05-01 19:20:58:859
-0.002509,-0.03767,9.738689,-3.02E-4,-1.35E-4,9.80665,0.001239,0.003179,0.002059,1.74,-15.36,-24.48,189.0152,0.1789,-0.9358,55.813843,37.500084,187.8849,NaN,0.4227,24.0,1.5033,10 / 20,,771,2021-05-01 19:20:58:869
0.023949,-0.022435,9.726387,6.59E-4,-5.9E-5,9.806651,0.002461,0.005012,0.003891,1.26,-15.6,-25.02,189.0152,0.1789,-0.9358,55.813843,37.500084,187.8849,NaN,0.4227,24.0,1.5033,10 / 20,,782,2021-05-01 19:20:58:880
0.001803,0.036841,9.724675,6.59E-4,-5.9E-5,9.806651,0.001239,0.001957,0.001448,1.26,-15.6,-25.02,189.0152,0.1789,-0.9358,55.813843,37.500084,187.8849,NaN,0.4227,24.0,1.5033,10 / 20,,791,2021-05-01 19:20:58:889
-0.023387,0.009219,9.681797,4.12E-4,-4.4E-5,9.80665,6.29E-4,0.004401,0.004502,1.56,-16.14,-25.62,188.5672,0.1792,-0.9319,55.813843,37.500084,187.8849,NaN,0.4227,24.0,1.5033,10 / 20,,802,2021-05-01 19:20:58:900
-0.011343,-0.009611,9.703057,4.12E-4,-4.4E-5,9.80665,0.002461,0.005012,0.003891,1.56,-16.14,-25.62,188.5672,0.1792,-0.9319,55.813843,37.500084,187.8849,NaN,0.4227,24.0,1.5033,10 / 20,,811,2021-05-01 19:20:58:909
-0.011343,-0.009611,9.703057,7.62E-4,-0.001025,9.806649,0.002461,0.005012,0.001448,1.68,-16.14,-25.2,188.5672,0.1792,-0.9319,55.813843,37.500084,187.8849,NaN,0.4227,24.0,1.5033,10 / 20,,822,2021-05-01 19:20:58:920
0.009677,0.038206,9.65989,7.62E-4,-0.001025,9.806649,0.001239,0.005012,0.00328,1.68,-16.14,-25.2,188.5672,0.1792,-0.9319,55.813843,37.500084,187.8849,NaN,0.4227,24.0,1.5033,10 / 20,,831,2021-05-01 19:20:58:929
-0.014679,0.008789,9.68164,2.95E-4,-1.63E-4,9.80665,0.002461,0.003179,8.37E-4,1.56,-15.6,-25.08,188.5053,0.1739,-0.9266,55.813843,37.500084,187.8849,NaN,0.4227,24.0,1.5033,10 / 20,,842,2021-05-01 19:20:58:940
-0.011136,-0.035404,9.710081,2.95E-4,-1.63E-4,9.80665,1.8E-5,0.00379,0.002669,1.56,-15.6,-25.08,188.5053,0.1739,-0.9266,55.813843,37.500084,187.8849,NaN,0.4227,24.0,1.5033,10 / 20,,851,2021-05-01 19:20:58:949
-0.011136,-0.035404,9.710081,2.89E-4,-0.001028,9.80665,1.8E-5,0.003179,0.002669,1.68,-15.36,-24.96,188.5053,0.1739,-0.9266,55.813843,37.500084,187.8849,NaN,0.4227,24.0,1.5033,10 / 20,,861,2021-05-01 19:20:58:959
0.010206,0.041257,9.722136,2.89E-4,-0.001028,9.80665,0.002461,0.002568,0.001448,1.68,-15.36,-24.96,188.5053,0.1739,-0.9266,55.813843,37.500084,187.8849,NaN,0.4227,24.0,1.5033,10 / 20,,871,2021-05-01 19:20:58:969
0.005584,0.046907,9.683926,2.96E-4,-0.001089,9.806649,0.001239,7.35E-4,0.001448,2.1,-15.54,-25.08,188.5026,0.1679,-0.924,55.813843,37.500084,187.8849,NaN,0.4227,24.0,1.5033,10 / 20,,882,2021-05-01 19:20:58:980
-0.00684,-0.051951,9.707526,2.96E-4,-0.001089,9.806649,0.00185,1.25E-4,-9.96E-4,2.1,-15.54,-25.08,188.5026,0.1679,-0.924,55.813843,37.500084,187.8849,NaN,0.4227,24.0,1.5033,10 / 20,,891,2021-05-01 19:20:58:989
0.008106,-0.003425,9.733891,5.4E-4,-0.001107,9.80665,6.29E-4,1.25E-4,8.37E-4,1.56,-15.42,-25.68,188.5026,0.1679,-0.924,55.813843,37.500084,187.8849,NaN,0.4227,24.0,1.5033,10 / 20,,902,2021-05-01 19:20:59:000
-0.005132,0.042257,9.691236,5.4E-4,-0.001107,9.80665,0.001239,0.006844,0.002669,1.56,-15.42,-25.68,188.5026,0.1679,-0.924,55.813843,37.500084,187.8849,NaN,0.4227,24.0,1.5033,10 / 20,,912,2021-05-01 19:20:59:010
-0.005132,0.042257,9.691236,3.81E-4,-0.00108,9.806649,0.003072,0.005012,8.37E-4,0.84,-15.24,-25.56,185.3715,0.162,-0.9199,55.813843,37.500084,187.8849,NaN,0.4227,24.0,1.5033,10 / 20,,921,2021-05-01 19:20:59:019
-0.002971,-0.010486,9.719655,3.81E-4,-0.00108,9.806649,6.29E-4,0.001346,0.00328,0.84,-15.24,-25.56,185.3715,0.162,-0.9199,55.813843,37.500084,187.8849,NaN,0.4227,24.0,1.5033,10 / 20,,932,2021-05-01 19:20:59:030
-0.002971,-0.010486,9.719655,3.81E-4,-0.00108,9.806649,1.8E-5,0.006844,-9.96E-4,0.84,-15.24,-25.56,185.3715,0.162,-0.9199,55.813843,37.500084,187.8849,NaN,0.4227,24.0,1.5033,10 / 20,,941,2021-05-01 19:20:59:039
0.016975,-0.048338,9.685652,6.1E-4,-0.002088,9.806649,0.001239,-0.004151,0.00328,0.78,-15.48,-24.84,185.3715,0.162,-0.9199,55.813843,37.500084,187.8849,NaN,0.4227,24.0,1.5033,10 / 20,,951,2021-05-01 19:20:59:049
-0.004106,0.015863,9.794019,-6.48E-4,-5.25E-4,9.806652,0.004294,0.006233,0.003891,1.14,-16.08,-24.54,184.9775,0.1502,-0.9152,55.813843,37.500084,187.8849,NaN,0.4227,24.0,1.5033,10 / 20,,961,2021-05-01 19:20:59:059
-0.023327,0.036493,9.739305,-6.48E-4,-5.25E-4,9.806652,0.003072,-4.86E-4,-3.85E-4,1.14,-16.08,-24.54,184.9775,0.1502,-0.9152,55.813843,37.500084,187.8849,NaN,0.4227,24.0,1.5033,10 / 20,,971,2021-05-01 19:20:59:069
0.011388,-0.019591,9.810374,-6.4E-4,-0.002346,9.806651,-5.93E-4,-0.013314,8.37E-4,0.96,-15.96,-24.72,184.9775,0.1502,-0.9152,55.813843,37.500084,187.8849,NaN,0.4227,24.0,1.5033,10 / 20,,981,2021-05-01 19:20:59:079
0.004443,0.026903,9.724463,-6.4E-4,-0.002346,9.806651,0.003683,-4.86E-4,0.003891,0.96,-15.96,-24.72,184.9775,0.1502,-0.9152,55.813843,37.500084,187.8849,NaN,0.4227,24.0,1.5033,10 / 20,,992,2021-05-01 19:20:59:090
0.004443,0.026903,9.724463,-3.62E-4,-4.37E-4,9.806649,-5.93E-4,-4.86E-4,0.001448,0.66,-15.9,-24.6,184.9833,0.1362,-0.9178,55.813843,37.500084,187.8849,NaN,0.4227,24.0,1.5033,10 / 20,,1001,2021-05-01 19:20:59:099
-0.044384,0.093596,9.73745,-3.62E-4,-4.37E-4,9.806649,1.8E-5,0.004401,0.00328,0.66,-15.9,-24.6,184.9833,0.1362,-0.9178,55.813843,37.500084,187.8849,NaN,0.4227,24.0,1.5033,10 / 20,,1011,2021-05-01 19:20:59:109
-0.046618,0.019733,9.550428,-3.53E-4,-0.00206,9.80665,0.005516,-0.001708,0.004502,1.32,-16.44,-25.62,184.9833,0.1362,-0.9178,55.813843,37.500084,187.8849,NaN,0.4227,24.0,1.5033,10 / 20,,1022,2021-05-01 19:20:59:120
0.060705,-0.139137,9.761259,-3.53E-4,-0.00206,9.80665,1.8E-5,1.25E-4,0.00328,1.32,-16.44,-25.62,184.9833,0.1362,-0.9178,55.813843,37.500084,187.8849,NaN,0.4227,24.0,1.5033,10 / 20,,1034,2021-05-01 19:20:59:132
-0.024243,0.207632,9.706586,-1.29E-4,-1.89E-4,9.80665,0.006126,0.006844,0.003891,1.8,-16.08,-26.76,188.6142,0.124,-0.9188,55.813843,37.500084,187.8849,NaN,0.4227,24.0,1.5033,10 / 20,,1042,2021-05-01 19:20:59:140
-0.024243,0.207632,9.706586,-1.29E-4,-1.89E-4,9.80665,0.001239,0.003179,0.002059,1.8,-16.08,-26.76,188.6142,0.124,-0.9188,55.813843,37.500084,187.8849,NaN,0.4227,24.0,1.5033,10 / 20,,1051,2021-05-01 19:20:59:149
-0.032546,0.131619,9.605798,-7.2E-4,8.17E-4,9.806651,0.001239,0.003179,0.002059,1.62,-16.08,-25.62,188.6142,0.124,-0.9188,55.813843,37.500084,187.8849,NaN,0.4227,24.0,1.5033,10 / 20,,1061,2021-05-01 19:20:59:159
-0.039891,-0.075833,9.74625,-7.2E-4,8.17E-4,9.806651,0.00185,7.35E-4,-3.85E-4,1.62,-16.08,-25.62,188.6142,0.124,-0.9188,55.813843,37.500084,187.8849,NaN,0.4227,24.0,1.5033,10 / 20,,1071,2021-05-01 19:20:59:169
0.021315,0.07664,9.664593,3.2E-5,0.001379,9.80665,-5.93E-4,-0.003541,0.00328,1.56,-16.26,-24.72,188.5111,0.1281,-0.9236,55.813843,37.500084,187.8849,NaN,0.4227,24.0,1.5033,10 / 20,,1081,2021-05-01 19:20:59:179
-0.033995,0.031336,9.806529,3.2E-5,0.001379,9.80665,0.003072,0.004401,0.00328,1.56,-16.26,-24.72,188.5111,0.1281,-0.9236,55.813843,37.500084,187.8849,NaN,0.4227,24.0,1.5033,10 / 20,,1092,2021-05-01 19:20:59:190
-0.033995,0.031336,9.806529,-9.62E-4,0.003062,9.80665,0.00185,1.25E-4,0.002059,0.9,-15.96,-24.42,188.5111,0.1281,-0.9236,55.813843,37.500084,187.8849,NaN,0.4227,24.0,1.5033,10 / 20,,1101,2021-05-01 19:20:59:199
-0.015385,-0.084853,9.638083,-0.001448,0.004438,9.806649,0.001239,-0.001708,0.005113,1.02,-16.44,-24.36,188.5111,0.1281,-0.9236,55.813843,37.500084,187.8849,NaN,0.4227,24.0,1.5033,10 / 20,,1111,2021-05-01 19:20:59:209
0.007165,0.020444,9.757945,-0.001448,0.004438,9.806649,1.8E-5,7.35E-4,-3.85E-4,1.02,-16.44,-24.36,188.5111,0.1281,-0.9236,55.813843,37.500084,187.8849,NaN,0.4227,24.0,1.5033,10 / 20,,1122,2021-05-01 19:20:59:220
0.00995,0.04275,9.760414,-0.001501,0.001667,9.806649,6.29E-4,-0.001097,0.003891,1.38,-15.6,-24.66,185.0091,0.1525,-0.9358,55.813843,37.500084,187.8849,NaN,0.4227,24.0,1.5033,10 / 20,,1131,2021-05-01 19:20:59:229
-0.002423,-0.042677,9.755475,-0.001501,0.001667,9.806649,6.29E-4,0.001957,0.004502,1.38,-15.6,-24.66,185.0091,0.1525,-0.9358,55.813843,37.500084,187.8849,NaN,0.4227,24.0,1.5033,10 / 20,,1143,2021-05-01 19:20:59:241
-0.002423,-0.042677,9.755475,-0.002745,0.002737,9.806648,0.001239,0.001346,0.005724,1.8,-15.36,-25.26,185.0091,0.1525,-0.9358,55.813843,37.500084,187.8849,NaN,0.4227,24.0,1.5033,10 / 20,,1152,2021-05-01 19:20:59:250
-0.014646,0.00925,9.612207,-0.002745,0.002737,9.806648,0.001239,0.001346,0.005724,1.8,-15.36,-25.26,185.0091,0.1525,-0.9358,55.813843,37.500084,187.8849,NaN,0.4227,24.0,1.5033,10 / 20,,1161,2021-05-01 19:20:59:259
-0.002177,-0.004037,9.693419,-7.44E-4,0.001799,9.806651,0.001239,0.001346,0.00328,1.86,-15.72,-25.14,188.5472,0.167,-0.9532,55.813843,37.500084,187.8849,NaN,0.4227,24.0,1.5033,10 / 20,,1171,2021-05-01 19:20:59:269
-0.002177,-0.004037,9.693419,-7.06E-4,0.002748,9.806649,0.001239,0.001346,0.00328,1.98,-15.84,-25.26,188.5472,0.167,-0.9532,55.813843,37.500084,187.8849,NaN,0.4227,24.0,1.5033,10 / 20,,1181,2021-05-01 19:20:59:279
-0.008834,0.023363,9.772696,-7.06E-4,0.002748,9.806649,0.003072,-0.002319,0.002669,1.98,-15.84,-25.26,188.5472,0.167,-0.9532,55.813843,37.500084,187.8849,NaN,0.4227,24.0,1.5033,10 / 20,,1191,2021-05-01 19:20:59:289
-0.005052,-0.020483,9.669432,-4.78E-4,0.003853,9.80665,0.002461,0.005012,0.00328,1.92,-16.38,-24.48,188.5472,0.167,-0.9532,55.813843,37.500084,187.8849,NaN,0.4227,24.0,1.5033,10 / 20,,1201,2021-05-01 19:20:59:299
-0.002597,-0.018381,9.652642,-4.78E-4,0.003853,9.80665,0.001239,7.35E-4,0.00328,1.92,-16.38,-24.48,188.5472,0.167,-0.9532,55.813843,37.500084,187.8849,NaN,0.4227,24.0,1.5033,10 / 20,,1212,2021-05-01 19:20:59:310
-0.007128,-0.002781,9.743826,1.86E-4,5.28E-4,9.80665,0.002461,7.35E-4,0.00328,1.44,-15.78,-23.94,184.9821,0.1889,-0.9593,55.813843,37.500084,187.8849,NaN,0.4227,24.0,1.5033,10 / 20,,1222,2021-05-01 19:20:59:320
-0.007128,-0.002781,9.743826,1.16E-4,2.92E-4,9.80665,0.001239,0.001957,8.37E-4,1.38,-15.84,-24.18,184.9821,0.1889,-0.9593,55.813843,37.500084,187.8849,NaN,0.4227,24.0,1.5033,10 / 20,,1231,2021-05-01 19:20:59:329
0.022621,0.009071,9.736212,1.16E-4,2.92E-4,9.80665,0.001239,-0.001097,8.37E-4,1.38,-15.84,-24.18,184.9821,0.1889,-0.9593,55.813843,37.500084,187.8849,NaN,0.4227,24.0,1.5033,10 / 20,,1241,2021-05-01 19:20:59:339
-0.006678,-0.043519,9.695734,7.4E-5,5.42E-4,9.80665,1.8E-5,1.25E-4,8.37E-4,1.38,-16.32,-24.84,184.9821,0.1889,-0.9593,55.813843,37.500084,187.8849,NaN,0.4227,24.0,1.5033,10 / 20,,1252,2021-05-01 19:20:59:350
0.007047,0.01688,9.705396,-7.2E-5,-1.16E-4,9.806652,1.8E-5,-0.00293,8.37E-4,1.8,-16.32,-25.62,188.6071,0.1921,-0.9592,55.813843,37.500084,187.8849,NaN,0.4227,24.0,1.5033,10 / 20,,1261,2021-05-01 19:20:59:359
0.007047,0.01688,9.705396,-7.2E-5,-1.16E-4,9.806652,1.8E-5,-0.00293,8.37E-4,1.8,-16.32,-25.62,188.6071,0.1921,-0.9592,55.813843,37.500084,187.8849,NaN,0.4227,24.0,1.5033,10 / 20,,1271,2021-05-01 19:20:59:369
0.005232,0.031521,9.753404,2.85E-4,-0.001072,9.806652,0.002461,0.002568,0.00328,1.74,-15.72,-24.96,188.6071,0.1921,-0.9592,55.813843,37.500084,187.8849,NaN,0.4227,24.0,1.5033,10 / 20,,1281,2021-05-01 19:20:59:379
0.024716,-0.012495,9.724099,2.85E-4,-0.001072,9.806652,0.003072,0.001957,0.00328,1.74,-15.72,-24.96,188.6071,0.1921,-0.9592,55.813843,37.500084,187.8849,NaN,0.4227,24.0,1.5033,10 / 20,,1292,2021-05-01 19:20:59:390
-0.001238,-0.029075,9.686127,-2.0E-4,-5.73E-4,9.806651,1.8E-5,-4.86E-4,0.001448,1.32,-15.78,-24.42,184.9784,0.1861,-0.9566,55.813843,37.500084,187.8849,NaN,0.4227,24.0,1.5033,10 / 20,,1301,2021-05-01 19:20:59:399
0.008573,0.022851,9.714946,-2.0E-4,-5.73E-4,9.806651,0.00185,7.35E-4,0.002059,1.32,-15.78,-24.42,184.9784,0.1861,-0.9566,55.813843,37.500084,187.8849,NaN,0.4227,24.0,1.5033,10 / 20,,1311,2021-05-01 19:20:59:409
0.008573,0.022851,9.714946,8.43E-4,-0.001835,9.806651,0.001239,0.003179,0.002059,1.68,-15.9,-24.24,184.9784,0.1861,-0.9566,55.813843,37.500084,187.8849,NaN,0.4227,24.0,1.5033,10 / 20,,1321,2021-05-01 19:20:59:419
0.021175,0.024063,9.743481,8.43E-4,-0.001835,9.806651,0.002461,7.35E-4,8.37E-4,1.68,-15.9,-24.24,184.9784,0.1861,-0.9566,55.813843,37.500084,187.8849,NaN,0.4227,24.0,1.5033,10 / 20,,1331,2021-05-01 19:20:59:429
-0.001343,-0.018906,9.688511,0.002021,-0.003224,9.806651,0.002461,0.005622,0.003891,1.98,-15.72,-24.3,188.4758,0.1684,-0.9432,55.813843,37.500084,187.8849,NaN,0.4227,24.0,1.5033,10 / 20,,1342,2021-05-01 19:20:59:440
0.001264,-0.016852,9.681296,0.002021,-0.003224,9.806651,0.001239,0.002568,0.002059,1.98,-15.72,-24.3,188.4758,0.1684,-0.9432,55.813843,37.500084,187.8849,NaN,0.4227,24.0,1.5033,10 / 20,,1351,2021-05-01 19:20:59:449
0.00282,0.040977,9.693553,0.001142,-9.14E-4,9.80665,-0.001204,-0.001097,-3.85E-4,1.44,-15.48,-24.12,188.4758,0.1684,-0.9432,55.813843,37.500084,187.8849,NaN,0.4227,24.0,1.5033,10 / 20,,1362,2021-05-01 19:20:59:460
0.00282,0.040977,9.693553,0.001142,-9.14E-4,9.80665,1.8E-5,-0.001708,0.002059,1.44,-15.48,-24.12,188.4758,0.1684,-0.9432,55.813843,37.500084,187.8849,NaN,0.4227,24.0,1.5033,10 / 20,,1371,2021-05-01 19:20:59:469
-0.010082,-0.034705,9.741246,8.21E-4,-4.93E-4,9.806651,1.8E-5,-0.001708,0.002059,1.44,-15.48,-24.18,185.2772,0.1641,-0.9358,55.813843,37.500084,187.8849,NaN,0.4227,24.0,1.5033,10 / 20,,1381,2021-05-01 19:20:59:479
0.023974,-0.008528,9.719278,8.21E-4,-4.93E-4,9.806651,0.004294,-4.86E-4,0.003891,1.44,-15.48,-24.18,185.2772,0.1641,-0.9358,55.813843,37.500084,187.8849,NaN,0.4227,24.0,1.5033,10 / 20,,1391,2021-05-01 19:20:59:489
8.74E-4,0.02726,9.722198,0.00205,-0.001124,9.80665,0.001239,0.005012,8.37E-4,1.92,-15.78,-24.78,185.2772,0.1641,-0.9358,55.813843,37.500084,187.8849,NaN,0.4227,24.0,1.5033,10 / 20,,1402,2021-05-01 19:20:59:500
8.74E-4,0.02726,9.722198,0.002201,-0.001485,9.80665,0.00185,0.001346,0.003891,1.92,-15.48,-24.48,185.2772,0.1641,-0.9358,55.813843,37.500084,187.8849,NaN,0.4227,24.0,1.5033,10 / 20,,1411,2021-05-01 19:20:59:509
-0.035669,-5.69E-4,9.703505,0.002201,-0.001485,9.80665,0.001239,-4.86E-4,-0.002217,1.92,-15.48,-24.48,185.2772,0.1641,-0.9358,55.813843,37.500084,187.8849,NaN,0.4227,24.0,1.5033,10 / 20,,1422,2021-05-01 19:20:59:520
0.009585,-0.031196,9.702647,9.02E-4,-0.001004,9.80665,0.002461,0.002568,-3.85E-4,2.04,-15.6,-25.2,188.5024,0.1566,-0.9222,55.813843,37.500084,187.8849,NaN,0.4227,24.0,1.5033,10 / 20,,1431,2021-05-01 19:20:59:529
-0.002842,0.058334,9.703236,9.02E-4,-0.001004,9.80665,6.29E-4,0.003179,-9.96E-4,2.04,-15.6,-25.2,188.5024,0.1566,-0.9222,55.813843,37.500084,187.8849,NaN,0.4227,24.0,1.5033,10 / 20,,1442,2021-05-01 19:20:59:540
-0.019356,0.012378,9.705652,0.001805,-0.002251,9.80665,0.003072,0.001346,0.001448,1.86,-15.72,-25.14,188.5024,0.1566,-0.9222,55.813843,37.500084,187.8849,NaN,0.4227,24.0,1.5033,10 / 20,,1451,2021-05-01 19:20:59:549
-0.019356,0.012378,9.705652,0.002015,-0.002887,9.806649,0.001239,0.002568,0.001448,1.68,-15.96,-25.26,188.5024,0.1566,-0.9222,55.813843,37.500084,187.8849,NaN,0.4227,24.0,1.5033,10 / 20,,1462,2021-05-01 19:20:59:560
-0.003451,-0.028779,9.721959,0.002015,-0.002887,9.806649,0.00185,-0.001708,0.003891,1.68,-15.96,-25.26,188.5024,0.1566,-0.9222,55.813843,37.500084,187.8849,NaN,0.4227,24.0,1.5033,10 / 20,,1471,2021-05-01 19:20:59:569
-0.006048,0.034545,9.724715,-3.92E-4,3.41E-4,9.80665,0.003072,0.002568,-9.96E-4,1.68,-16.14,-24.84,188.4843,0.1417,-0.908,55.813843,37.500084,187.8849,NaN,0.4227,24.0,1.5033,10 / 20,,1482,2021-05-01 19:20:59:580
0.005989,0.037815,9.690968,-3.92E-4,3.41E-4,9.80665,0.00185,-4.86E-4,0.002669,1.68,-16.14,-24.84,188.4843,0.1417,-0.908,55.813843,37.500084,187.8849,NaN,0.4227,24.0,1.5033,10 / 20,,1493,2021-05-01 19:20:59:591
0.011148,-0.030873,9.745634,-4.1E-5,5.1E-5,9.80665,0.00185,-4.86E-4,0.002669,0.96,-15.72,-24.48,188.4843,0.1417,-0.908,55.813843,37.500084,187.8849,NaN,0.4227,24.0,1.5033,10 / 20,,1501,2021-05-01 19:20:59:599
0.011148,-0.030873,9.745634,1.72E-4,-2.16E-4,9.806651,-0.001815,-0.003541,8.37E-4,0.54,-15.24,-24.9,188.4843,0.1417,-0.908,55.813843,37.500084,187.8849,NaN,0.4227,24.0,1.5033,10 / 20,,1512,2021-05-01 19:20:59:610
0.004131,0.006563,9.71479,1.72E-4,-2.16E-4,9.806651,0.001239,0.001346,0.00328,0.54,-15.24,-24.9,188.4843,0.1417,-0.908,55.813843,37.500084,187.8849,NaN,0.4227,24.0,1.5033,10 / 20,,1522,2021-05-01 19:20:59:620
-0.001347,0.041426,9.652782,2.04E-4,6.24E-4,9.80665,1.8E-5,-0.003541,0.001448,0.78,-15.0,-25.38,185.2938,0.1406,-0.9069,55.813843,37.500084,187.8849,NaN,0.4227,24.0,1.5033,10 / 20,,1531,2021-05-01 19:20:59:629
-0.001347,0.041426,9.652782,2.04E-4,6.24E-4,9.80665,0.00185,-0.00293,0.003891,0.78,-15.0,-25.38,185.2938,0.1406,-0.9069,55.813843,37.500084,187.8849,NaN,0.4227,24.0,1.5033,10 / 20,,1541,2021-05-01 19:20:59:639
-0.002699,-0.009269,9.717219,0.001337,0.001587,9.80665,1.8E-5,0.001957,0.002059,1.68,-15.54,-24.78,185.2938,0.1406,-0.9069,55.813843,37.500084,187.8849,NaN,0.4227,24.0,1.5033,10 / 20,,1552,2021-05-01 19:20:59:650
-0.012087,-0.005984,9.712589,0.001617,0.002316,9.80665,0.003683,0.005622,0.004502,1.86,-15.54,-25.14,185.2938,0.1406,-0.9069,55.813843,37.500084,187.8849,NaN,0.4227,24.0,1.5033,10 / 20,,1561,2021-05-01 19:20:59:659
-0.012087,-0.005984,9.712589,0.001617,0.002316,9.80665,0.002461,0.002568,0.003891,1.86,-15.54,-25.14,185.2938,0.1406,-0.9069,55.813843,37.500084,187.8849,NaN,0.4227,24.0,1.5033,10 / 20,,1571,2021-05-01 19:20:59:669
-0.008759,-0.054477,9.750661,7.3E-5,2.73E-4,9.80665,0.004294,1.25E-4,0.003891,2.1,-15.48,-25.38,189.0201,0.1549,-0.8987,55.813843,37.500084,187.8849,NaN,0.4227,24.0,1.5033,10 / 20,,1581,2021-05-01 19:20:59:679
-0.008759,-0.054477,9.750661,7.3E-5,2.73E-4,9.80665,0.004294,1.25E-4,0.003891,2.1,-15.48,-25.38,189.0201,0.1549,-0.8987,55.813843,37.500084,187.8849,NaN,0.4227,24.0,1.5033,10 / 20,,1591,2021-05-01 19:20:59:689
-0.004325,-0.057572,9.767253,-5.7E-4,0.00132,9.80665,0.002461,0.004401,0.002669,1.38,-15.48,-25.62,189.0201,0.1549,-0.8987,55.813843,37.500076,188.1145,NaN,0.0824,32.0,34.6739,10 / 20,,1601,2021-05-01 19:20:59:699
-0.030889,-0.055748,9.755691,-5.7E-4,0.00132,9.80665,-5.93E-4,-0.006595,0.001448,1.38,-15.48,-25.62,189.0201,0.1549,-0.8987,55.813843,37.500076,188.1145,NaN,0.0824,32.0,34.6739,10 / 20,,1611,2021-05-01 19:20:59:709
0.002055,0.032046,9.815497,-7.99E-4,4.23E-4,9.806651,0.00185,-0.003541,0.002669,0.72,-15.48,-25.5,185.2846,0.162,-0.9032,55.813843,37.500076,188.1145,NaN,0.0824,32.0,34.6739,10 / 20,,1622,2021-05-01 19:20:59:720
-0.019055,-0.023431,9.717408,-7.99E-4,4.23E-4,9.806651,-0.001204,-0.004762,0.001448,0.72,-15.48,-25.5,185.2846,0.162,-0.9032,55.813843,37.500076,188.1145,NaN,0.0824,32.0,34.6739,10 / 20,,1631,2021-05-01 19:20:59:729
-0.019055,-0.023431,9.717408,-0.002022,0.002218,9.80665,0.003072,0.003179,0.002059,0.9,-15.54,-24.96,185.2846,0.162,-0.9032,55.813843,37.500076,188.1145,NaN,0.0824,32.0,34.6739,10 / 20,,1642,2021-05-01 19:20:59:740
-0.016884,-0.006916,9.758154,-0.001853,0.002487,9.806649,0.00185,0.001346,0.002059,1.32,-15.66,-25.02,185.2846,0.162,-0.9032,55.813843,37.500076,188.1145,NaN,0.0824,32.0,34.6739,10 / 20,,1651,2021-05-01 19:20:59:749
-0.016884,-0.006916,9.758154,-0.001853,0.002487,9.806649,0.00185,0.001346,0.002059,1.32,-15.66,-25.02,185.2846,0.162,-0.9032,55.813843,37.500076,188.1145,NaN,0.0824,32.0,34.6739,10 / 20,,1661,2021-05-01 19:20:59:759
-0.029994,0.035027,9.780138,-5.97E-4,3.5E-5,9.806652,6.29E-4,0.005012,0.002059,1.38,-15.84,-24.78,184.9743,0.1755,-0.9153,55.813843,37.500076,188.1145,NaN,0.0824,32.0,34.6739,10 / 20,,1671,2021-05-01 19:20:59:769
0.008066,0.069904,9.865903,-0.001628,7.52E-4,9.806651,6.29E-4,-0.001097,0.005724,1.2,-15.96,-24.84,184.9743,0.1755,-0.9153,55.813843,37.500076,188.1145,NaN,0.0824,32.0,34.6739,10 / 20,,1681,2021-05-01 19:20:59:779
-0.047788,0.140012,9.749753,-0.001628,7.52E-4,9.806651,0.002461,0.002568,0.002669,1.2,-15.96,-24.84,184.9743,0.1755,-0.9153,55.813843,37.500076,188.1145,NaN,0.0824,32.0,34.6739,10 / 20,,1691,2021-05-01 19:20:59:789
-0.051503,0.047151,9.5722,-0.002398,0.002345,9.80665,-0.003037,-0.001708,0.001448,1.08,-15.42,-24.72,184.9743,0.1755,-0.9153,55.813843,37.500076,188.1145,NaN,0.0824,32.0,34.6739,10 / 20,,1702,2021-05-01 19:20:59:800
0.058494,-0.182075,9.880758,-0.002398,0.002345,9.80665,0.004294,7.35E-4,0.002059,1.08,-15.42,-24.72,184.9743,0.1755,-0.9153,55.813843,37.500076,188.1145,NaN,0.0824,32.0,34.6739,10 / 20,,1712,2021-05-01 19:20:59:810
0.058494,-0.182075,9.880758,-7.24E-4,0.001007,9.806651,1.8E-5,0.001957,-9.96E-4,1.56,-15.78,-24.78,188.5079,0.1879,-0.9305,55.813843,37.500076,188.1145,NaN,0.0824,32.0,34.6739,10 / 20,,1721,2021-05-01 19:20:59:819
0.012217,0.116056,9.712978,-7.24E-4,0.001007,9.806651,0.001239,0.00379,0.002059,1.56,-15.78,-24.78,188.5079,0.1879,-0.9305,55.813843,37.500076,188.1145,NaN,0.0824,32.0,34.6739,10 / 20,,1731,2021-05-01 19:20:59:829
-0.009483,0.133858,9.703838,-0.002028,0.004298,9.806649,0.001239,0.00379,0.002059,1.8,-15.72,-24.36,188.5079,0.1879,-0.9305,55.813843,37.500076,188.1145,NaN,0.0824,32.0,34.6739,10 / 20,,1741,2021-05-01 19:20:59:839
0.015143,-0.129066,9.76423,-0.002028,0.004298,9.806649,-0.001204,-0.004151,0.00328,1.8,-15.72,-24.36,188.5079,0.1879,-0.9305,55.813843,37.500076,188.1145,NaN,0.0824,32.0,34.6739,10 / 20,,1751,2021-05-01 19:20:59:849
0.015143,-0.129066,9.76423,-0.001312,0.002058,9.806649,0.00185,0.002568,0.003891,1.8,-15.24,-24.9,189.0819,0.211,-0.9459,55.813843,37.500076,188.1145,NaN,0.0824,32.0,34.6739,10 / 20,,1761,2021-05-01 19:20:59:859
0.011764,0.032343,9.676666,-0.001312,0.002058,9.806649,6.29E-4,-0.00293,0.003891,1.8,-15.24,-24.9,189.0819,0.211,-0.9459,55.813843,37.500076,188.1145,NaN,0.0824,32.0,34.6739,10 / 20,,1771,2021-05-01 19:20:59:869
0.011466,-0.035695,9.728928,-0.001871,0.003875,9.806648,1.8E-5,0.001957,0.002669,1.62,-15.9,-26.04,189.0819,0.211,-0.9459,55.813843,37.500076,188.1145,NaN,0.0824,32.0,34.6739,10 / 20,,1781,2021-05-01 19:20:59:879
0.011466,-0.035695,9.728928,-0.001871,0.003875,9.806648,0.00185,0.004401,8.37E-4,1.62,-15.9,-26.04,189.0819,0.211,-0.9459,55.813843,37.500076,188.1145,NaN,0.0824,32.0,34.6739,10 / 20,,1792,2021-05-01 19:20:59:890
0.004156,-0.058497,9.654667,-3.38E-4,0.001406,9.806651,6.29E-4,0.004401,0.001448,1.32,-16.56,-25.44,184.7429,0.2317,-0.9603,55.813843,37.500076,188.1145,NaN,0.0824,32.0,34.6739,10 / 20,,1802,2021-05-01 19:20:59:900
-0.023753,-0.0518,9.700758,-3.38E-4,0.001406,9.806651,6.29E-4,0.004401,0.001448,1.32,-16.56,-25.44,184.7429,0.2317,-0.9603,55.813843,37.500076,188.1145,NaN,0.0824,32.0,34.6739,10 / 20,,1811,2021-05-01 19:20:59:909
0.005772,0.020345,9.67193,-0.001091,8.63E-4,9.806651,0.003072,-0.001097,0.001448,1.26,-16.2,-25.26,184.7429,0.2317,-0.9603,55.813843,37.500076,188.1145,NaN,0.0824,32.0,34.6739,10 / 20,,1822,2021-05-01 19:20:59:920
0.017549,0.018815,9.808223,-0.001091,8.63E-4,9.806651,0.001239,0.002568,0.006335,1.26,-16.2,-25.26,184.7429,0.2317,-0.9603,55.813843,37.500076,188.1145,NaN,0.0824,32.0,34.6739,10 / 20,,1831,2021-05-01 19:20:59:929
0.017549,0.018815,9.808223,5.11E-4,-8.2E-4,9.806649,1.8E-5,0.00379,-0.001607,1.98,-15.6,-25.26,188.5525,0.2361,-0.967,55.813843,37.500076,188.1145,NaN,0.0824,32.0,34.6739,10 / 20,,1841,2021-05-01 19:20:59:939
9.29E-4,-0.013858,9.681408,5.11E-4,-8.2E-4,9.806649,0.001239,0.005012,0.004502,1.98,-15.6,-25.26,188.5525,0.2361,-0.967,55.813843,37.500076,188.1145,NaN,0.0824,32.0,34.6739,10 / 20,,1851,2021-05-01 19:20:59:949
-6.59E-4,-0.040242,9.678866,5.36E-4,-0.001194,9.806649,0.003683,0.002568,0.004502,1.98,-15.9,-24.72,188.5525,0.2361,-0.967,55.813843,37.500076,188.1145,NaN,0.0824,32.0,34.6739,10 / 20,,1861,2021-05-01 19:20:59:959
-0.012611,0.004986,9.715275,5.36E-4,-0.001194,9.806649,0.002461,-0.001708,0.002059,1.98,-15.9,-24.72,188.5525,0.2361,-0.967,55.813843,37.500076,188.1145,NaN,0.0824,32.0,34.6739,10 / 20,,1871,2021-05-01 19:20:59:969
-0.005229,0.006806,9.770224,7.04E-4,-0.001711,9.80665,0.002461,0.001957,0.003891,1.2,-16.32,-25.2,185.0403,0.2297,-0.9629,55.813843,37.500076,188.1145,NaN,0.0824,32.0,34.6739,10 / 20,,1882,2021-05-01 19:20:59:980
-0.005229,0.006806,9.770224,7.04E-4,-0.001711,9.80665,0.002461,0.001957,0.003891,1.2,-16.32,-25.2,185.0403,0.2297,-0.9629,55.813843,37.500076,188.1145,NaN,0.0824,32.0,34.6739,10 / 20,,1892,2021-05-01 19:20:59:990
0.001646,-0.012788,9.710136,0.001229,-0.00247,9.80665,0.001239,0.001957,2.26E-4,0.6,-15.66,-25.08,185.0403,0.2297,-0.9629,55.813843,37.500076,188.1145,NaN,0.0824,32.0,34.6739,10 / 20,,1902,2021-05-01 19:21:00:000
0.020187,-0.00751,9.784096,0.001229,-0.00247,9.80665,-5.93E-4,1.25E-4,-3.85E-4,0.6,-15.66,-25.08,185.0403,0.2297,-0.9629,55.813843,37.500076,188.1145,NaN,0.0824,32.0,34.6739,10 / 20,,1911,2021-05-01 19:21:00:009
0.038622,0.002685,9.767058,5.83E-4,-0.001176,9.80665,0.002461,-0.001097,0.002059,1.02,-14.88,-24.66,185.3605,0.216,-0.9545,55.813843,37.500076,188.1145,NaN,0.0824,32.0,34.6739,10 / 20,,1921,2021-05-01 19:21:00:019
0.002055,-0.046637,9.726682,5.83E-4,-0.001176,9.80665,6.29E-4,0.002568,0.00328,1.02,-14.88,-24.66,185.3605,0.216,-0.9545,55.813843,37.500076,188.1145,NaN,0.0824,32.0,34.6739,10 / 20,,1932,2021-05-01 19:21:00:030
0.002055,-0.046637,9.726682,0.002224,-0.00321,9.806649,6.29E-4,-4.86E-4,0.002669,2.1,-15.06,-24.96,185.3605,0.216,-0.9545,55.813843,37.500076,188.1145,NaN,0.0824,32.0,34.6739,10 / 20,,1941,2021-05-01 19:21:00:039
0.00861,0.024928,9.717376,0.002224,-0.00321,9.806649,6.29E-4,0.004401,0.001448,2.1,-15.06,-24.96,185.3605,0.216,-0.9545,55.813843,37.500076,188.1145,NaN,0.0824,32.0,34.6739,10 / 20,,1951,2021-05-01 19:21:00:049
0.010381,0.018611,9.801045,0.004684,-0.004743,9.806647,6.29E-4,-0.001097,0.002059,1.92,-15.18,-25.14,189.0528,0.1909,-0.9246,55.813843,37.500076,188.1145,NaN,0.0824,32.0,34.6739,10 / 20,,1961,2021-05-01 19:21:00:059
0.010381,0.018611,9.801045,0.004684,-0.004743,9.806647,0.003683,-0.001097,0.00328,1.92,-15.18,-25.14,189.0528,0.1909,-0.9246,55.813843,37.500076,188.1145,NaN,0.0824,32.0,34.6739,10 / 20,,1972,2021-05-01 19:21:00:070
0.002861,0.024916,9.724572,0.002143,-0.001784,9.80665,6.29E-4,-0.001097,0.002059,1.92,-15.24,-25.14,189.0528,0.1909,-0.9246,55.813843,37.500076,188.1145,NaN,0.0824,32.0,34.6739,10 / 20,,1981,2021-05-01 19:21:00:079
-0.008241,-0.029061,9.719639,0.002143,-0.001784,9.80665,6.29E-4,-0.001097,0.002059,1.92,-15.24,-25.14,189.0528,0.1909,-0.9246,55.813843,37.500076,188.1145,NaN,0.0824,32.0,34.6739,10 / 20,,1991,2021-05-01 19:21:00:089
-0.003615,-0.018747,9.741142,0.001198,-0.001083,9.806649,0.003072,-4.86E-4,0.004502,1.92,-15.66,-25.02,188.479,0.1826,-0.9106,55.813843,37.500076,188.1145,NaN,0.0824,32.0,34.6739,10 / 20,,2001,2021-05-01 19:21:00:099
-0.003615,-0.018747,9.741142,0.001198,-0.001083,9.806649,0.003072,0.00379,0.00328,1.92,-15.66,-25.02,188.479,0.1826,-0.9106,55.813843,37.500076,188.1145,NaN,0.0824,32.0,34.6739,10 / 20,,2011,2021-05-01 19:21:00:109
0.002855,0.038308,9.765302,0.002148,-0.001956,9.806649,0.002461,0.001957,0.001448,1.14,-16.02,-25.14,188.479,0.1826,-0.9106,55.813843,37.500076,188.1145,NaN,0.0824,32.0,34.6739,10 / 20,,2022,2021-05-01 19:21:00:120
-0.001831,-0.01889,9.702801,0.002148,-0.001956,9.806649,0.003683,0.001957,0.005113,1.14,-16.02,-25.14,188.479,0.1826,-0.9106,55.813843,37.500076,188.1145,NaN,0.0824,32.0,34.6739,10 / 20,,2031,2021-05-01 19:21:00:129
-0.031915,0.002057,9.739251,5.2E-4,-5.86E-4,9.80665,1.8E-5,1.25E-4,0.003891,0.84,-16.5,-24.78,184.9457,0.1732,-0.8965,55.813843,37.500076,188.1145,NaN,0.0824,32.0,34.6739,10 / 20,,2041,2021-05-01 19:21:00:139
-0.002519,0.030662,9.770055,5.2E-4,-5.86E-4,9.80665,6.29E-4,-4.86E-4,0.003891,0.84,-16.5,-24.78,184.9457,0.1732,-0.8965,55.813843,37.500076,188.1145,NaN,0.0824,32.0,34.6739,10 / 20,,2052,2021-05-01 19:21:00:150
-0.002519,0.030662,9.770055,-4.04E-4,-4.82E-4,9.806651,6.29E-4,-4.86E-4,0.003891,1.08,-16.14,-24.66,184.9457,0.1732,-0.8965,55.813843,37.500076,188.1145,NaN,0.0824,32.0,34.6739,10 / 20,,2061,2021-05-01 19:21:00:159
-0.00346,-0.029228,9.733889,-4.04E-4,-4.82E-4,9.806651,1.8E-5,1.25E-4,0.003891,1.08,-16.14,-24.66,184.9457,0.1732,-0.8965,55.813843,37.500076,188.1145,NaN,0.0824,32.0,34.6739,10 / 20,,2071,2021-05-01 19:21:00:169
-0.025081,-0.005074,9.73433,-3.08E-4,8.4E-5,9.80665,0.001239,-0.002319,0.003891,1.32,-15.3,-24.66,185.2758,0.1701,-0.8987,55.813843,37.500076,188.1145,NaN,0.0824,32.0,34.6739,10 / 20,,2082,2021-05-01 19:21:00:180
-0.025081,-0.005074,9.73433,-3.08E-4,8.4E-5,9.80665,0.003683,7.35E-4,0.002669,1.32,-15.3,-24.66,185.2758,0.1701,-0.8987,55.813843,37.500076,188.1145,NaN,0.0824,32.0,34.6739,10 / 20,,2091,2021-05-01 19:21:00:189
0.013501,-0.037624,9.779092,-0.001502,4.49E-4,9.806649,0.003072,7.35E-4,0.002059,1.32,-15.3,-24.66,185.2758,0.1701,-0.8987,55.813843,37.500076,188.1145,NaN,0.0824,32.0,34.6739,10 / 20,,2101,2021-05-01 19:21:00:199
0.008843,-9.71E-4,9.726644,-0.001502,4.49E-4,9.806649,-5.93E-4,-4.86E-4,0.003891,1.32,-15.3,-24.66,185.2758,0.1701,-0.8987,55.813843,37.500076,188.1145,NaN,0.0824,32.0,34.6739,10 / 20,,2111,2021-05-01 19:21:00:209
0.00107,0.052223,9.758149,-0.001093,9.93E-4,9.806649,0.00185,-0.001708,2.26E-4,1.26,-15.66,-24.78,184.9629,0.172,-0.9076,55.813843,37.500076,188.1145,NaN,0.0824,32.0,34.6739,10 / 20,,2121,2021-05-01 19:21:00:219
0.00107,0.052223,9.758149,-0.001566,0.001542,9.806648,0.00185,-0.001097,0.002059,1.32,-15.84,-23.88,184.9629,0.172,-0.9076,55.813843,37.500076,188.1145,NaN,0.0824,32.0,34.6739,10 / 20,,2131,2021-05-01 19:21:00:229
-0.030083,-0.026733,9.741526,-0.001566,0.001542,9.806648,6.29E-4,-4.86E-4,-3.85E-4,1.32,-15.84,-23.88,184.9629,0.172,-0.9076,55.813843,37.500076,188.1145,NaN,0.0824,32.0,34.6739,10 / 20,,2141,2021-05-01 19:21:00:239
0.006239,-0.001133,9.769809,-0.002424,0.002063,9.806649,-5.93E-4,1.25E-4,0.001448,1.44,-15.36,-24.54,184.9629,0.172,-0.9076,55.813843,37.500076,188.1145,NaN,0.0824,32.0,34.6739,10 / 20,,2152,2021-05-01 19:21:00:250
7.7E-5,0.045172,9.734187,-0.002424,0.002063,9.806649,0.00185,-0.00293,2.26E-4,1.44,-15.36,-24.54,184.9629,0.172,-0.9076,55.813843,37.500076,188.1145,NaN,0.0824,32.0,34.6739,10 / 20,,2161,2021-05-01 19:21:00:259
-0.023356,0.016001,9.710545,-5.19E-4,8.24E-4,9.806651,0.00185,1.25E-4,0.002669,1.62,-15.24,-24.78,189.0519,0.1827,-0.9228,55.813843,37.500076,188.1145,NaN,0.0824,32.0,34.6739,10 / 20,,2172,2021-05-01 19:21:00:270
-0.023356,0.016001,9.710545,-9.96E-4,7.4E-4,9.80665,0.001239,-0.001708,0.001448,1.5,-15.66,-24.84,189.0519,0.1827,-0.9228,55.813843,37.500076,188.1145,NaN,0.0824,32.0,34.6739,10 / 20,,2181,2021-05-01 19:21:00:279
0.015528,-0.031485,9.733622,-9.96E-4,7.4E-4,9.80665,0.00185,-0.001097,-9.96E-4,1.5,-15.66,-24.84,189.0519,0.1827,-0.9228,55.813843,37.500076,188.1145,NaN,0.0824,32.0,34.6739,10 / 20,,2191,2021-05-01 19:21:00:289
0.01348,3.28E-4,9.743412,-0.002312,9.45E-4,9.806651,-0.001204,1.25E-4,0.00328,1.26,-16.08,-25.14,189.0519,0.1827,-0.9228,55.813843,37.500076,188.1145,NaN,0.0824,32.0,34.6739,10 / 20,,2201,2021-05-01 19:21:00:299
-0.009535,0.040422,9.724838,-0.002312,9.45E-4,9.806651,0.00185,0.001346,0.002669,1.26,-16.08,-25.14,189.0519,0.1827,-0.9228,55.813843,37.500076,188.1145,NaN,0.0824,32.0,34.6739,10 / 20,,2211,2021-05-01 19:21:00:309
-0.009535,0.040422,9.724838,-4.45E-4,7.6E-5,9.80665,0.00185,0.002568,0.002669,1.86,-15.78,-25.02,188.5183,0.1861,-0.937,55.813843,37.500076,188.1145,NaN,0.0824,32.0,34.6739,10 / 20,,2222,2021-05-01 19:21:00:320
0.009147,0.002927,9.750716,-5.58E-4,9.0E-5,9.80665,-0.001204,0.001957,-3.85E-4,2.16,-15.9,-25.08,188.5183,0.1861,-0.937,55.813843,37.500076,188.1145,NaN,0.0824,32.0,34.6739,10 / 20,,2232,2021-05-01 19:21:00:330
0.001812,-0.046838,9.757735,-5.58E-4,9.0E-5,9.80665,-0.001204,0.001957,-3.85E-4,2.16,-15.9,-25.08,188.5183,0.1861,-0.937,55.813843,37.500076,188.1145,NaN,0.0824,32.0,34.6739,10 / 20,,2242,2021-05-01 19:21:00:340
-0.003093,0.050766,9.748783,-4.18E-4,-0.001379,9.80665,0.003683,-4.86E-4,0.005113,1.74,-15.66,-24.42,188.5183,0.1861,-0.937,55.813843,37.500076,188.1145,NaN,0.0824,32.0,34.6739,10 / 20,,2251,2021-05-01 19:21:00:349
-0.022415,-0.03561,9.65521,-4.18E-4,-0.001379,9.80665,0.002461,-0.001097,2.26E-4,1.74,-15.66,-24.42,188.5183,0.1861,-0.937,55.813843,37.500076,188.1145,NaN,0.0824,32.0,34.6739,10 / 20,,2261,2021-05-01 19:21:00:359
-0.022415,-0.03561,9.65521,3.5E-5,-0.001233,9.806649,1.8E-5,-0.002319,-3.85E-4,2.16,-16.14,-24.24,188.4665,0.1777,-0.9382,55.813843,37.500076,188.1145,NaN,0.0824,32.0,34.6739,10 / 20,,2271,2021-05-01 19:21:00:369
-0.003398,-0.068872,9.772067,-5.2E-4,-0.001338,9.806649,0.001239,0.006233,2.26E-4,2.52,-15.9,-24.42,188.4665,0.1777,-0.9382,55.813843,37.500076,188.1145,NaN,0.0824,32.0,34.6739,10 / 20,,2282,2021-05-01 19:21:00:380
0.0137,0.04972,9.738924,-5.2E-4,-0.001338,9.806649,0.001239,0.005622,0.001448,2.52,-15.9,-24.42,188.4665,0.1777,-0.9382,55.813843,37.500076,188.1145,NaN,0.0824,32.0,34.6739,10 / 20,,2292,2021-05-01 19:21:00:390
0.010484,-0.010017,9.642863,-7.35E-4,-0.001522,9.806648,0.001239,0.005622,0.001448,2.1,-16.08,-25.02,188.4665,0.1777,-0.9382,55.813843,37.500076,188.1145,NaN,0.0824,32.0,34.6739,10 / 20,,2301,2021-05-01 19:21:00:399
-0.001662,-0.023094,9.757925,-7.35E-4,-0.001522,9.806648,6.29E-4,0.004401,2.26E-4,2.1,-16.08,-25.02,188.4665,0.1777,-0.9382,55.813843,37.500076,188.1145,NaN,0.0824,32.0,34.6739,10 / 20,,2311,2021-05-01 19:21:00:409
-0.001662,-0.023094,9.757925,3.13E-4,4.19E-4,9.806653,0.001239,0.001346,0.00328,1.38,-16.02,-25.26,185.0151,0.1683,-0.9412,55.813843,37.500076,188.1145,NaN,0.0824,32.0,34.6739,10 / 20,,2321,2021-05-01 19:21:00:419
-0.015568,0.037393,9.789574,3.13E-4,4.19E-4,9.806653,0.002461,0.003179,0.002669,1.38,-16.02,-25.26,185.0151,0.1683,-0.9412,55.813843,37.500076,188.1145,NaN,0.0824,32.0,34.6739,10 / 20,,2331,2021-05-01 19:21:00:429
-0.047022,0.064652,9.632155,0.001661,0.001146,9.806652,0.001239,0.001957,-9.96E-4,1.56,-15.42,-25.26,185.0151,0.1683,-0.9412,55.813843,37.500076,188.1145,NaN,0.0824,32.0,34.6739,10 / 20,,2342,2021-05-01 19:21:00:440
-0.019347,-0.021755,9.583441,0.001661,0.001146,9.806652,-0.001815,0.004401,8.37E-4,1.56,-15.42,-25.26,185.0151,0.1683,-0.9412,55.813843,37.500076,188.1145,NaN,0.0824,32.0,34.6739,10 / 20,,2351,2021-05-01 19:21:00:449
-0.019347,-0.021755,9.583441,-1.9E-5,8.1E-4,9.80665,0.004294,0.001957,0.002669,1.92,-15.36,-25.02,189.0687,0.1758,-0.9321,55.813843,37.500076,188.1145,NaN,0.0824,32.0,34.6739,10 / 20,,2361,2021-05-01 19:21:00:459
0.048631,-0.15943,9.794671,-1.9E-5,8.1E-4,9.80665,0.004905,0.005012,-3.85E-4,1.92,-15.36,-25.02,189.0687,0.1758,-0.9321,55.813843,37.500076,188.1145,NaN,0.0824,32.0,34.6739,10 / 20,,2372,2021-05-01 19:21:00:470
0.04761,-0.159535,9.880892,-8.06E-4,0.002178,9.80665,0.002461,0.005622,-3.85E-4,2.04,-15.6,-24.6,189.0687,0.1758,-0.9321,55.813843,37.500076,188.1145,NaN,0.0824,32.0,34.6739,10 / 20,,2381,2021-05-01 19:21:00:479
0.038441,0.113835,9.767623,-8.06E-4,0.002178,9.80665,0.001239,-0.00293,2.26E-4,2.04,-15.6,-24.6,189.0687,0.1758,-0.9321,55.813843,37.500076,188.1145,NaN,0.0824,32.0,34.6739,10 / 20,,2391,2021-05-01 19:21:00:489
0.038441,0.113835,9.767623,3.14E-4,-0.00246,9.806648,1.8E-5,0.003179,0.002059,1.62,-15.42,-24.9,189.0764,0.1877,-0.9387,55.813843,37.500076,188.1145,NaN,0.0824,32.0,34.6739,10 / 20,,2401,2021-05-01 19:21:00:499
-0.039619,0.010229,9.78984,3.14E-4,-0.00246,9.806648,1.8E-5,0.003179,0.002059,1.62,-15.42,-24.9,189.0764,0.1877,-0.9387,55.813843,37.500076,188.1145,NaN,0.0824,32.0,34.6739,10 / 20,,2411,2021-05-01 19:21:00:509
0.019686,-0.093459,9.685339,3.57E-4,-0.003363,9.806648,0.001239,-0.004762,0.002059,1.68,-15.66,-25.2,189.0764,0.1877,-0.9387,55.813843,37.500076,188.1145,NaN,0.0824,32.0,34.6739,10 / 20,,2421,2021-05-01 19:21:00:519
-9.78E-4,0.069507,9.79437,9.22E-4,-0.004377,9.806647,-5.93E-4,-0.004151,0.002059,1.98,-15.72,-25.32,189.0764,0.1877,-0.9387,55.813843,37.500076,188.1145,NaN,0.0824,32.0,34.6739,10 / 20,,2431,2021-05-01 19:21:00:529
-0.016081,-0.020057,9.746192,9.22E-4,-0.004377,9.806647,6.29E-4,-0.002319,0.002669,1.98,-15.72,-25.32,189.0764,0.1877,-0.9387,55.813843,37.500076,188.1145,NaN,0.0824,32.0,34.6739,10 / 20,,2442,2021-05-01 19:21:00:540
-0.016081,-0.020057,9.746192,3.49E-4,-6.98E-4,9.80665,6.29E-4,-0.001097,0.002669,1.86,-16.02,-24.6,188.5119,0.1632,-0.9294,55.813843,37.500076,188.1145,NaN,0.0824,32.0,34.6739,10 / 20,,2451,2021-05-01 19:21:00:549
0.003642,-0.052721,9.707375,3.49E-4,-6.98E-4,9.80665,1.8E-5,0.001957,8.37E-4,1.86,-16.02,-24.6,188.5119,0.1632,-0.9294,55.813843,37.500076,188.1145,NaN,0.0824,32.0,34.6739,10 / 20,,2461,2021-05-01 19:21:00:559
0.002368,0.078034,9.765548,4.26E-4,-5.3E-4,9.80665,0.002461,-0.001097,8.37E-4,1.5,-15.84,-24.6,188.5119,0.1632,-0.9294,55.813843,37.500076,188.1145,NaN,0.0824,32.0,34.6739,10 / 20,,2472,2021-05-01 19:21:00:570
-0.01498,-0.05248,9.75077,3.23E-4,-1.66E-4,9.806651,0.001239,-0.001708,0.002669,1.44,-15.72,-25.08,188.5119,0.1632,-0.9294,55.813843,37.500076,188.1145,NaN,0.0824,32.0,34.6739,10 / 20,,2482,2021-05-01 19:21:00:580
-0.01498,-0.05248,9.75077,3.23E-4,-1.66E-4,9.806651,0.00185,0.00379,2.26E-4,1.44,-15.72,-25.08,188.5119,0.1632,-0.9294,55.813843,37.500076,188.1145,NaN,0.0824,32.0,34.6739,10 / 20,,2492,2021-05-01 19:21:00:590
-0.024354,-0.019647,9.765455,-9.3E-5,-3.32E-4,9.80665,0.001239,0.001957,8.37E-4,1.14,-15.72,-25.02,184.9983,0.1612,-0.9296,55.813843,37.500076,188.1145,NaN,0.0824,32.0,34.6739,10 / 20,,2501,2021-05-01 19:21:00:599
-0.017299,5.25E-4,9.707984,-9.3E-5,-3.32E-4,9.80665,0.001239,0.001957,8.37E-4,1.14,-15.72,-25.02,184.9983,0.1612,-0.9296,55.813843,37.500076,188.1145,NaN,0.0824,32.0,34.6739,10 / 20,,2511,2021-05-01 19:21:00:609
-0.001568,0.015981,9.705404,-0.001289,8.69E-4,9.80665,0.003683,0.001346,8.37E-4,0.72,-15.84,-25.56,184.9983,0.1612,-0.9296,55.813843,37.500076,188.1145,NaN,0.0824,32.0,34.6739,10 / 20,,2521,2021-05-01 19:21:00:619
-0.001568,0.015981,9.705404,-0.001971,0.001105,9.80665,0.00185,0.001957,0.002669,1.26,-15.84,-25.62,184.9983,0.1612,-0.9296,55.813843,37.500076,188.1145,NaN,0.0824,32.0,34.6739,10 / 20,,2531,2021-05-01 19:21:00:629
0.012559,-0.004745,9.798482,-0.001971,0.001105,9.80665,0.003072,-0.004762,0.002059,1.26,-15.84,-25.62,184.9983,0.1612,-0.9296,55.813843,37.500076,188.1145,NaN,0.0824,32.0,34.6739,10 / 20,,2542,2021-05-01 19:21:00:640
-0.013853,-0.023945,9.755718,7.4E-5,4.88E-4,9.80665,0.004294,0.004401,0.00328,1.14,-15.66,-24.96,185.0161,0.1667,-0.9417,55.813843,37.500076,188.1145,NaN,0.0824,32.0,34.6739,10 / 20,,2551,2021-05-01 19:21:00:649
-0.013853,-0.023945,9.755718,7.4E-5,4.88E-4,9.80665,0.004294,0.004401,0.00328,1.14,-15.66,-24.96,185.0161,0.1667,-0.9417,55.813843,37.500076,188.1145,NaN,0.0824,32.0,34.6739,10 / 20,,2562,2021-05-01 19:21:00:660
3.37E-4,-0.013964,9.710072,6.1E-4,2.0E-4,9.80665,-0.003037,-0.002319,0.001448,1.56,-15.78,-24.78,185.0161,0.1667,-0.9417,55.813843,37.500076,188.1145,NaN,0.0824,32.0,34.6739,10 / 20,,2571,2021-05-01 19:21:00:669
0.040367,-0.024707,9.716563,0.001051,-4.07E-4,9.806651,6.29E-4,1.25E-4,8.37E-4,1.56,-16.02,-24.3,185.0161,0.1667,-0.9417,55.813843,37.500076,189.0104,NaN,0.0353,16.0,48.4697,10 / 21,,2582,2021-05-01 19:21:00:680
0.040367,-0.024707,9.716563,0.001051,-4.07E-4,9.806651,0.00185,0.002568,0.00328,1.56,-16.02,-24.3,185.0161,0.1667,-0.9417,55.813843,37.500076,189.0104,NaN,0.0353,16.0,48.4697,10 / 21,,2591,2021-05-01 19:21:00:689
-0.013883,0.016132,9.708036,9.65E-4,-0.001327,9.806651,0.001239,0.00379,0.002669,1.92,-15.42,-24.66,189.0768,0.1648,-0.9353,55.813843,37.500076,189.0104,NaN,0.0353,16.0,48.4697,10 / 21,,2601,2021-05-01 19:21:00:699
-0.012791,0.002701,9.76062,9.65E-4,-0.001327,9.806651,0.001239,0.00379,0.002669,1.92,-15.42,-24.66,189.0768,0.1648,-0.9353,55.813843,37.500076,189.0104,NaN,0.0353,16.0,48.4697,10 / 21,,2611,2021-05-01 19:21:00:709
0.015219,-0.021225,9.779209,0.001681,-0.002097,9.80665,0.002461,0.004401,0.00328,2.22,-15.3,-24.54,189.0768,0.1648,-0.9353,55.813843,37.500076,189.0104,NaN,0.0353,16.0,48.4697,10 / 21,,2621,2021-05-01 19:21:00:719
-0.011026,0.04113,9.789536,3.19E-4,-4.99E-4,9.80665,0.00185,-0.001708,0.002059,2.46,-15.84,-24.84,188.5053,0.1543,-0.9237,55.813843,37.500076,189.0104,NaN,0.0353,16.0,48.4697,10 / 21,,2632,2021-05-01 19:21:00:730
-0.011026,0.04113,9.789536,3.19E-4,-4.99E-4,9.80665,0.003072,0.001346,8.37E-4,2.46,-15.84,-24.84,188.5053,0.1543,-0.9237,55.813843,37.500076,189.0104,NaN,0.0353,16.0,48.4697,10 / 21,,2641,2021-05-01 19:21:00:739
0.00952,-0.008528,9.721864,5.82E-4,-2.66E-4,9.80665,-0.001815,-0.004762,0.002059,1.44,-16.32,-24.84,188.5053,0.1543,-0.9237,55.813843,37.500076,189.0104,NaN,0.0353,16.0,48.4697,10 / 21,,2651,2021-05-01 19:21:00:749
0.032299,0.007258,9.786243,5.82E-4,-2.66E-4,9.80665,0.001239,0.002568,8.37E-4,1.44,-16.32,-24.84,188.5053,0.1543,-0.9237,55.813843,37.500076,189.0104,NaN,0.0353,16.0,48.4697,10 / 21,,2661,2021-05-01 19:21:00:759
-0.011119,0.011406,9.758204,8.25E-4,1.95E-4,9.806651,0.003683,7.35E-4,0.001448,1.02,-16.5,-24.96,188.5053,0.1543,-0.9237,55.813843,37.500076,189.0104,NaN,0.0353,16.0,48.4697,10 / 21,,2671,2021-05-01 19:21:00:769
-5.17E-4,0.028659,9.698255,7.76E-4,5.83E-4,9.80665,0.002461,0.001957,0.001448,1.56,-16.38,-25.08,188.4983,0.1583,-0.9197,55.813843,37.500076,189.0104,NaN,0.0353,16.0,48.4697,10 / 21,,2681,2021-05-01 19:21:00:779
-5.17E-4,0.028659,9.698255,7.76E-4,5.83E-4,9.80665,0.001239,7.35E-4,0.002669,1.56,-16.38,-25.08,188.4983,0.1583,-0.9197,55.813843,37.500076,189.0104,NaN,0.0353,16.0,48.4697,10 / 21,,2692,2021-05-01 19:21:00:790
-0.009008,0.027266,9.784584,4.42E-4,9.22E-4,9.806651,0.003072,0.001346,0.002669,1.98,-16.26,-25.5,188.4983,0.1583,-0.9197,55.813843,37.500076,189.0104,NaN,0.0353,16.0,48.4697,10 / 21,,2701,2021-05-01 19:21:00:799
-0.01129,0.003599,9.712661,4.42E-4,9.22E-4,9.806651,0.003072,0.001346,0.002669,1.98,-16.26,-25.5,188.4983,0.1583,-0.9197,55.813843,37.500076,189.0104,NaN,0.0353,16.0,48.4697,10 / 21,,2711,2021-05-01 19:21:00:809
0.02006,0.011218,9.705013,7.05E-4,4.7E-4,9.806649,0.003072,0.003179,0.002059,1.26,-15.9,-25.38,184.9799,0.164,-0.918,55.813843,37.500076,189.0104,NaN,0.0353,16.0,48.4697,10 / 21,,2721,2021-05-01 19:21:00:819
-0.005193,-0.015623,9.77474,7.05E-4,4.7E-4,9.806649,6.29E-4,0.001346,0.002669,1.26,-15.9,-25.38,184.9799,0.164,-0.918,55.813843,37.500076,189.0104,NaN,0.0353,16.0,48.4697,10 / 21,,2732,2021-05-01 19:21:00:830
-0.005193,-0.015623,9.77474,0.001461,0.001591,9.80665,0.003072,0.005012,2.26E-4,0.6,-15.24,-24.48,184.9799,0.164,-0.918,55.813843,37.500076,189.0104,NaN,0.0353,16.0,48.4697,10 / 21,,2741,2021-05-01 19:21:00:839
0.015734,-0.008018,9.839098,0.001461,0.001591,9.80665,0.002461,0.005012,2.26E-4,0.6,-15.24,-24.48,184.9799,0.164,-0.918,55.813843,37.500076,189.0104,NaN,0.0353,16.0,48.4697,10 / 21,,2751,2021-05-01 19:21:00:849
0.023161,-0.00793,9.786286,-9.72E-4,0.001285,9.80665,0.003683,7.35E-4,0.003891,1.44,-15.3,-24.36,185.2355,0.174,-0.9103,55.813843,37.500076,189.0104,NaN,0.0353,16.0,48.4697,10 / 21,,2762,2021-05-01 19:21:00:860
0.017997,0.004856,9.69064,-9.72E-4,0.001285,9.80665,0.001239,-0.001097,0.002669,1.44,-15.3,-24.36,185.2355,0.174,-0.9103,55.813843,37.500076,189.0104,NaN,0.0353,16.0,48.4697,10 / 21,,2771,2021-05-01 19:21:00:869
-0.024165,0.022785,9.80871,-0.001037,8.32E-4,9.80665,0.003683,7.35E-4,0.001448,2.1,-15.9,-24.54,185.2355,0.174,-0.9103,55.813843,37.500076,189.0104,NaN,0.0353,16.0,48.4697,10 / 21,,2782,2021-05-01 19:21:00:880
-0.024165,0.022785,9.80871,-0.001037,8.32E-4,9.80665,0.004905,0.001957,0.00328,2.1,-15.9,-24.54,185.2355,0.174,-0.9103,55.813843,37.500076,189.0104,NaN,0.0353,16.0,48.4697,10 / 21,,2792,2021-05-01 19:21:00:890
-0.009859,0.021942,9.655231,4.3E-5,-0.001311,9.806651,0.003683,-0.001708,0.001448,1.14,-16.08,-24.48,184.9205,0.1783,-0.9167,55.813843,37.500076,189.0104,NaN,0.0353,16.0,48.4697,10 / 21,,2802,2021-05-01 19:21:00:900
-0.031183,0.041741,9.806534,4.3E-5,-0.001311,9.806651,0.003072,-4.86E-4,-9.96E-4,1.14,-16.08,-24.48,184.9205,0.1783,-0.9167,55.813843,37.500076,189.0104,NaN,0.0353,16.0,48.4697,10 / 21,,2812,2021-05-01 19:21:00:910
-0.031183,0.041741,9.806534,3.68E-4,-0.002113,9.806651,0.001239,0.00379,8.37E-4,0.96,-16.14,-24.48,184.9205,0.1783,-0.9167,55.813843,37.500076,189.0104,NaN,0.0353,16.0,48.4697,10 / 21,,2821,2021-05-01 19:21:00:919
-0.00953,0.009019,9.683925,3.68E-4,-0.002113,9.806651,0.004294,0.003179,8.37E-4,0.96,-16.14,-24.48,184.9205,0.1783,-0.9167,55.813843,37.500076,189.0104,NaN,0.0353,16.0,48.4697,10 / 21,,2832,2021-05-01 19:21:00:930
0.013445,-0.005003,9.693079,0.001471,-1.38E-4,9.80665,-0.001204,-0.001708,0.002669,1.92,-16.26,-23.76,188.433,0.1662,-0.9135,55.813843,37.500076,189.0104,NaN,0.0353,16.0,48.4697,10 / 21,,2842,2021-05-01 19:21:00:940
0.004933,-0.019785,9.798481,0.002431,2.64E-4,9.80665,-0.001204,-0.001708,0.002669,1.62,-15.9,-24.0,188.433,0.1662,-0.9135,55.813843,37.500076,189.0104,NaN,0.0353,16.0,48.4697,10 / 21,,2851,2021-05-01 19:21:00:949
0.004933,-0.019785,9.798481,0.002431,2.64E-4,9.80665,-0.001204,-0.004762,0.002059,1.62,-15.9,-24.0,188.433,0.1662,-0.9135,55.813843,37.500076,189.0104,NaN,0.0353,16.0,48.4697,10 / 21,,2861,2021-05-01 19:21:00:959
-0.003102,-0.010954,9.669342,0.004728,1.23E-4,9.806649,0.00185,-0.003541,0.002669,1.68,-15.54,-24.36,188.433,0.1662,-0.9135,55.813843,37.500076,189.0104,NaN,0.0353,16.0,48.4697,10 / 21,,2871,2021-05-01 19:21:00:969
-0.008435,-5.52E-4,9.693424,0.004728,1.23E-4,9.806649,0.00185,0.001957,8.37E-4,1.68,-15.54,-24.36,188.433,0.1662,-0.9135,55.813843,37.500076,189.0104,NaN,0.0353,16.0,48.4697,10 / 21,,2881,2021-05-01 19:21:00:979
0.021097,-0.032725,9.726262,1.61E-4,7.41E-4,9.806649,0.002461,0.001957,0.003891,2.28,-15.48,-25.32,188.996,0.171,-0.8863,55.813843,37.500076,189.0104,NaN,0.0353,16.0,48.4697,10 / 21,,2891,2021-05-01 19:21:00:989
0.014027,-0.010072,9.819878,4.79E-4,3.27E-4,9.806648,0.003072,0.002568,0.00328,2.28,-15.72,-25.2,188.996,0.171,-0.8863,55.813843,37.500076,189.0104,NaN,0.0353,16.0,48.4697,10 / 21,,2901,2021-05-01 19:21:00:999
0.014027,-0.010072,9.819878,4.79E-4,3.27E-4,9.806648,0.001239,0.006233,8.37E-4,2.28,-15.72,-25.2,188.996,0.171,-0.8863,55.813843,37.500076,189.0104,NaN,0.0353,16.0,48.4697,10 / 21,,2912,2021-05-01 19:21:01:010
0.014027,-0.010072,9.819878,4.79E-4,3.27E-4,9.806648,0.001239,0.006233,8.37E-4,2.28,-15.72,-25.2,188.996,0.171,-0.8863,55.813843,37.500076,189.0104,NaN,0.0353,16.0,48.4697,10 / 21,,2922,2021-05-01 19:21:01:020
-0.011486,0.023388,9.710284,-0.001195,0.001374,9.806652,0.002461,-0.004151,0.002669,2.22,-15.84,-25.02,188.4404,0.1733,-0.8839,55.813843,37.500076,189.0104,NaN,0.0353,16.0,48.4697,10 / 21,,2932,2021-05-01 19:21:01:030
-0.024529,-0.002052,9.777386,-3.73E-4,0.00128,9.806652,-0.002426,-0.00293,-3.85E-4,1.92,-15.36,-24.42,188.4404,0.1733,-0.8839,55.813843,37.500076,189.0104,NaN,0.0353,16.0,48.4697,10 / 21,,2942,2021-05-01 19:21:01:040
-0.024529,-0.002052,9.777386,-3.73E-4,0.00128,9.806652,0.002461,0.01112,0.002669,1.92,-15.36,-24.42,188.4404,0.1733,-0.8839,55.813843,37.500076,189.0104,NaN,0.0353,16.0,48.4697,10 / 21,,2952,2021-05-01 19:21:01:050
-0.033853,0.033225,9.775315,-6.78E-4,0.002501,9.806651,0.002461,0.01112,0.002669,1.8,-15.72,-24.48,188.4404,0.1733,-0.8839,55.813843,37.500076,189.0104,NaN,0.0353,16.0,48.4697,10 / 21,,2962,2021-05-01 19:21:01:060
-0.026324,-0.018378,9.662388,-6.78E-4,0.002501,9.806651,0.004294,0.001957,8.37E-4,1.8,-15.72,-24.48,188.4404,0.1733,-0.8839,55.813843,37.500076,189.0104,NaN,0.0353,16.0,48.4697,10 / 21,,2972,2021-05-01 19:21:01:070
-0.011569,3.07E-4,9.738918,3.39E-4,-1.24E-4,9.806648,0.002461,-0.006595,0.002669,1.38,-16.2,-25.26,184.9336,0.1872,-0.8899,55.813843,37.500076,189.0104,NaN,0.0353,16.0,48.4697,10 / 21,,2982,2021-05-01 19:21:01:080
0.008352,3.4E-4,9.937366,3.39E-4,-1.24E-4,9.806648,6.29E-4,-0.001097,0.001448,1.38,-16.2,-25.26,184.9336,0.1872,-0.8899,55.813843,37.500076,189.0104,NaN,0.0353,16.0,48.4697,10 / 21,,2991,2021-05-01 19:21:01:089
0.008352,3.4E-4,9.937366,-0.001955,-2.46E-4,9.806649,0.002461,0.002568,0.004502,1.38,-15.9,-25.2,184.9336,0.1872,-0.8899,55.813843,37.500076,189.0104,NaN,0.0353,16.0,48.4697,10 / 21,,3001,2021-05-01 19:21:01:099
-0.026338,0.054498,9.725025,-0.001955,-2.46E-4,9.806649,0.003683,0.006233,0.00328,1.38,-15.9,-25.2,184.9336,0.1872,-0.8899,55.813843,37.500076,189.0104,NaN,0.0353,16.0,48.4697,10 / 21,,3011,2021-05-01 19:21:01:109
-0.002435,-0.088895,9.585118,-0.004674,2.97E-4,9.806648,0.004905,0.001957,0.003891,1.92,-15.48,-25.38,189.042,0.1866,-0.9173,55.813843,37.500076,189.0104,NaN,0.0353,16.0,48.4697,10 / 21,,3021,2021-05-01 19:21:01:119
0.050982,-0.147174,9.823398,-0.004674,2.97E-4,9.806648,6.29E-4,0.006233,8.37E-4,1.92,-15.48,-25.38,189.042,0.1866,-0.9173,55.813843,37.500076,189.0104,NaN,0.0353,16.0,48.4697,10 / 21,,3031,2021-05-01 19:21:01:129
0.050982,-0.147174,9.823398,-0.002586,6.4E-5,9.806649,6.29E-4,0.006233,8.37E-4,1.74,-15.84,-24.84,189.042,0.1866,-0.9173,55.813843,37.500076,189.0104,NaN,0.0353,16.0,48.4697,10 / 21,,3041,2021-05-01 19:21:01:139
0.063046,-0.12511,9.902361,-0.002586,6.4E-5,9.806649,0.003072,1.25E-4,0.002669,1.74,-15.84,-24.84,189.042,0.1866,-0.9173,55.813843,37.500076,189.0104,NaN,0.0353,16.0,48.4697,10 / 21,,3051,2021-05-01 19:21:01:149
0.063046,-0.12511,9.902361,-0.002586,6.4E-5,9.806649,0.003072,1.25E-4,0.002669,1.74,-15.84,-24.84,189.042,0.1866,-0.9173,55.813843,37.500076,189.0104,NaN,0.0353,16.0,48.4697,10 / 21,,3062,2021-05-01 19:21:01:160
-0.060594,-0.05119,9.626904,-0.001633,9.3E-4,9.806652,-0.002426,-0.00293,-0.001607,1.38,-16.14,-24.18,184.9427,0.1845,-0.9323,55.813843,37.500076,189.0104,NaN,0.0353,16.0,48.4697,10 / 21,,3071,2021-05-01 19:21:01:169
0.016501,0.12073,9.789437,-0.003432,0.002126,9.80665,0.002461,0.001346,0.002669,1.68,-16.14,-24.3,184.9427,0.1845,-0.9323,55.813843,37.500076,189.0104,NaN,0.0353,16.0,48.4697,10 / 21,,3082,2021-05-01 19:21:01:180
-0.051612,-0.029621,9.799409,-0.003432,0.002126,9.80665,0.003683,0.001957,0.003891,1.68,-16.14,-24.3,184.9427,0.1845,-0.9323,55.813843,37.500076,189.0104,NaN,0.0353,16.0,48.4697,10 / 21,,3091,2021-05-01 19:21:01:189
0.023119,0.028813,9.609409,-0.001219,5.42E-4,9.806649,0.001239,0.001346,0.001448,2.1,-16.14,-24.3,188.4847,0.1952,-0.9533,55.813843,37.500076,189.0104,NaN,0.0353,16.0,48.4697,10 / 21,,3101,2021-05-01 19:21:01:199
0.023119,0.028813,9.609409,-0.001219,5.42E-4,9.806649,0.00185,1.25E-4,8.37E-4,2.1,-16.14,-24.3,188.4847,0.1952,-0.9533,55.813843,37.500076,189.0104,NaN,0.0353,16.0,48.4697,10 / 21,,3111,2021-05-01 19:21:01:209
0.018604,0.016953,9.733932,-0.002865,0.001209,9.806649,0.003683,0.002568,0.00328,2.16,-15.48,-24.54,188.4847,0.1952,-0.9533,55.813843,37.500076,189.0104,NaN,0.0353,16.0,48.4697,10 / 21,,3121,2021-05-01 19:21:01:219
0.012713,-0.042299,9.621135,-0.002865,0.001209,9.806649,0.003683,-0.004151,0.004502,2.16,-15.48,-24.54,188.4847,0.1952,-0.9533,55.813843,37.500076,189.0104,NaN,0.0353,16.0,48.4697,10 / 21,,3131,2021-05-01 19:21:01:229
-0.017792,1.16E-4,9.70095,4.5E-5,-2.33E-4,9.806652,1.8E-5,-0.00293,0.002059,1.8,-15.06,-23.94,189.0645,0.1997,-0.9709,55.813843,37.500076,189.0104,NaN,0.0353,16.0,48.4697,10 / 21,,3141,2021-05-01 19:21:01:239
-0.017792,1.16E-4,9.70095,4.5E-5,-2.33E-4,9.806652,0.00185,-4.86E-4,0.00328,1.8,-15.06,-23.94,189.0645,0.1997,-0.9709,55.813843,37.500076,189.0104,NaN,0.0353,16.0,48.4697,10 / 21,,3151,2021-05-01 19:21:01:249
0.024908,0.022325,9.721946,0.001104,-5.7E-4,9.806652,-0.001204,-0.002319,0.00328,1.8,-15.42,-23.82,189.0645,0.1997,-0.9709,55.813843,37.500076,189.0104,NaN,0.0353,16.0,48.4697,10 / 21,,3162,2021-05-01 19:21:01:260
-0.003068,0.007162,9.786962,0.001104,-5.7E-4,9.806652,-0.001204,-0.001708,8.37E-4,1.8,-15.42,-23.82,189.0645,0.1997,-0.9709,55.813843,37.500076,189.0104,NaN,0.0353,16.0,48.4697,10 / 21,,3171,2021-05-01 19:21:01:269
-0.009495,-0.005809,9.743859,3.22E-4,1.06E-4,9.806651,-0.001204,-0.001708,8.37E-4,1.8,-15.48,-24.72,189.1146,0.1974,-0.964,55.813843,37.500076,189.0104,NaN,0.0353,16.0,48.4697,10 / 21,,3181,2021-05-01 19:21:01:279
-0.02051,0.025357,9.65802,3.22E-4,1.06E-4,9.806651,0.00185,0.006233,0.002059,1.8,-15.48,-24.72,189.1146,0.1974,-0.964,55.813843,37.500076,189.0104,NaN,0.0353,16.0,48.4697,10 / 21,,3191,2021-05-01 19:21:01:289
-0.02051,0.025357,9.65802,5.85E-4,-7.63E-4,9.806651,0.00185,0.006233,0.002059,2.52,-15.36,-25.14,189.1146,0.1974,-0.964,55.813843,37.500076,189.0104,NaN,0.0353,16.0,48.4697,10 / 21,,3201,2021-05-01 19:21:01:299
0.003066,0.014067,9.724622,5.85E-4,-7.63E-4,9.806651,6.29E-4,0.001346,0.001448,2.52,-15.36,-25.14,189.1146,0.1974,-0.964,55.813843,37.500076,189.0104,NaN,0.0353,16.0,48.4697,10 / 21,,3212,2021-05-01 19:21:01:310
0.024862,-0.018602,9.745625,0.001,-0.002013,9.806651,0.002461,0.006844,0.002059,2.52,-15.6,-25.02,191.9956,0.1868,-0.9564,55.813843,37.500076,189.0104,NaN,0.0353,16.0,48.4697,10 / 21,,3222,2021-05-01 19:21:01:320
0.008766,-0.014717,9.733899,0.001,-0.002013,9.806651,0.00185,0.001957,0.004502,2.52,-15.6,-25.02,191.9956,0.1868,-0.9564,55.813843,37.500076,189.0104,NaN,0.0353,16.0,48.4697,10 / 21,,3231,2021-05-01 19:21:01:329
0.007375,0.015023,9.712567,4.49E-4,-9.77E-4,9.80665,1.8E-5,0.00379,0.001448,1.26,-15.48,-23.94,191.9956,0.1868,-0.9564,55.813843,37.500076,189.0104,NaN,0.0353,16.0,48.4697,10 / 21,,3241,2021-05-01 19:21:01:339
0.00624,0.02983,9.748603,4.49E-4,-9.77E-4,9.80665,0.003072,0.00379,0.001448,1.26,-15.48,-23.94,191.9956,0.1868,-0.9564,55.813843,37.500076,189.0104,NaN,0.0353,16.0,48.4697,10 / 21,,3251,2021-05-01 19:21:01:349
0.00624,0.02983,9.748603,0.001126,-7.76E-4,9.80665,1.8E-5,-4.86E-4,0.003891,0.96,-15.42,-23.46,185.2397,0.1817,-0.9526,55.813843,37.500076,189.0104,NaN,0.0353,16.0,48.4697,10 / 21,,3261,2021-05-01 19:21:01:359
-0.005748,-0.010981,9.652746,0.001659,-0.001357,9.806649,6.29E-4,-0.002319,0.002059,0.96,-15.42,-23.46,185.2397,0.1817,-0.9526,55.813843,37.500076,189.0104,NaN,0.0353,16.0,48.4697,10 / 21,,3271,2021-05-01 19:21:01:369
-0.005748,-0.010981,9.652746,0.001659,-0.001357,9.806649,6.29E-4,-0.002319,0.002059,0.96,-15.42,-23.46,185.2397,0.1817,-0.9526,55.813843,37.500076,189.0104,NaN,0.0353,16.0,48.4697,10 / 21,,3282,2021-05-01 19:21:01:380
-0.029863,-0.020952,9.703379,0.002377,-0.002285,9.806649,6.29E-4,-0.00293,8.37E-4,1.38,-15.3,-24.54,185.2397,0.1817,-0.9526,55.813843,37.500076,189.0104,NaN,0.0353,16.0,48.4697,10 / 21,,3292,2021-05-01 19:21:01:390
0.009346,-0.011471,9.75302,1.74E-4,-0.002212,9.80665,0.002461,1.25E-4,0.001448,1.62,-14.4,-25.08,189.7124,0.1697,-0.9376,55.813843,37.500076,189.0104,NaN,0.0353,16.0,48.4697,10 / 21,,3302,2021-05-01 19:21:01:400
-0.005893,9.17E-4,9.731776,1.74E-4,-0.002212,9.80665,0.00185,-4.86E-4,0.004502,1.62,-14.4,-25.08,189.7124,0.1697,-0.9376,55.813843,37.500076,189.0104,NaN,0.0353,16.0,48.4697,10 / 21,,3311,2021-05-01 19:21:01:409
-0.008772,0.011083,9.746247,0.001176,-0.004061,9.80665,-0.001204,0.00379,0.001448,1.5,-14.7,-24.6,189.7124,0.1697,-0.9376,55.813843,37.500076,189.0104,NaN,0.0353,16.0,48.4697,10 / 21,,3321,2021-05-01 19:21:01:419
-0.008772,0.011083,9.746247,0.001176,-0.004061,9.80665,0.003683,0.001957,2.26E-4,1.5,-14.7,-24.6,189.7124,0.1697,-0.9376,55.813843,37.500076,189.0104,NaN,0.0353,16.0,48.4697,10 / 21,,3331,2021-05-01 19:21:01:429
-0.00559,0.022914,9.669637,6.45E-4,-4.08E-4,9.806648,0.003683,0.005622,-3.85E-4,0.96,-15.9,-24.66,184.9958,0.1475,-0.9268,55.813843,37.500076,189.0104,NaN,0.0353,16.0,48.4697,10 / 21,,3341,2021-05-01 19:21:01:439
-0.009847,0.007001,9.717454,6.45E-4,-4.08E-4,9.806648,-0.002426,-4.86E-4,0.00328,0.96,-15.9,-24.66,184.9958,0.1475,-0.9268,55.813843,37.500076,189.0104,NaN,0.0353,16.0,48.4697,10 / 21,,3351,2021-05-01 19:21:01:449
0.016388,-1.66E-4,9.743348,0.001471,-0.001031,9.806649,6.29E-4,-4.86E-4,0.003891,1.38,-15.78,-24.72,184.9958,0.1475,-0.9268,55.813843,37.500076,189.0104,NaN,0.0353,16.0,48.4697,10 / 21,,3361,2021-05-01 19:21:01:459
-0.003094,-0.024821,9.712431,0.001471,-0.001031,9.806649,1.8E-5,-0.001097,0.002669,1.38,-15.78,-24.72,184.9958,0.1475,-0.9268,55.813843,37.500076,189.0104,NaN,0.0353,16.0,48.4697,10 / 21,,3371,2021-05-01 19:21:01:469
-0.003094,-0.024821,9.712431,9.5E-4,-8.3E-4,9.80665,0.002461,0.002568,-3.85E-4,2.34,-16.02,-24.6,188.4989,0.1422,-0.9177,55.813843,37.500076,189.0104,NaN,0.0353,16.0,48.4697,10 / 21,,3381,2021-05-01 19:21:01:479
9.71E-4,0.006952,9.712473,9.5E-4,-8.3E-4,9.80665,0.003072,-4.86E-4,8.37E-4,2.34,-16.02,-24.6,188.4989,0.1422,-0.9177,55.813843,37.500076,189.0104,NaN,0.0353,16.0,48.4697,10 / 21,,3391,2021-05-01 19:21:01:489
0.02886,-0.002086,9.72397,0.002381,-5.96E-4,9.806649,0.002461,-0.001708,0.004502,1.8,-16.14,-24.3,188.4989,0.1422,-0.9177,55.813843,37.500076,189.0104,NaN,0.0353,16.0,48.4697,10 / 21,,3401,2021-05-01 19:21:01:499
0.018639,0.006614,9.760088,0.002381,-5.96E-4,9.806649,0.002461,-0.004762,0.002059,1.8,-16.14,-24.3,188.4989,0.1422,-0.9177,55.813843,37.500076,189.0104,NaN,0.0353,16.0,48.4697,10 / 21,,3411,2021-05-01 19:21:01:509
0.018639,0.006614,9.760088,0.001,4.25E-4,9.806649,-5.93E-4,7.35E-4,0.002669,1.02,-15.3,-24.36,185.2296,0.1408,-0.9035,55.813843,37.500076,189.0104,NaN,0.0353,16.0,48.4697,10 / 21,,3421,2021-05-01 19:21:01:519
-0.008778,0.005619,9.738913,0.001,4.25E-4,9.806649,0.001239,7.35E-4,0.001448,1.02,-15.3,-24.36,185.2296,0.1408,-0.9035,55.813843,37.500076,189.0104,NaN,0.0353,16.0,48.4697,10 / 21,,3431,2021-05-01 19:21:01:529
-0.01815,0.018646,9.679244,0.001023,0.001312,9.806649,0.001239,-0.004151,-9.96E-4,1.56,-15.54,-24.48,185.2296,0.1408,-0.9035,55.813843,37.500076,189.0104,NaN,0.0353,16.0,48.4697,10 / 21,,3441,2021-05-01 19:21:01:539
-0.008539,0.017755,9.683882,0.001023,0.001312,9.806649,-5.93E-4,-0.00293,0.001448,1.8,-15.72,-24.6,185.2296,0.1408,-0.9035,55.813843,37.500076,189.0104,NaN,0.0353,16.0,48.4697,10 / 21,,3451,2021-05-01 19:21:01:549
-0.008539,0.017755,9.683882,8.05E-4,0.002688,9.806649,-5.93E-4,-0.00293,0.001448,1.8,-15.72,-24.6,185.2296,0.1408,-0.9035,55.813843,37.500076,189.0104,NaN,0.0353,16.0,48.4697,10 / 21,,3462,2021-05-01 19:21:01:560
-0.018656,0.02571,9.758301,8.05E-4,0.002688,9.806649,-5.93E-4,-0.001708,0.002669,1.74,-15.96,-24.54,188.469,0.1569,-0.9002,55.813843,37.500076,189.0104,NaN,0.0353,16.0,48.4697,10 / 21,,3471,2021-05-01 19:21:01:569
-0.019237,0.03646,9.724862,-6.92E-4,0.001171,9.80665,6.29E-4,7.35E-4,0.002059,1.74,-15.96,-24.54,188.469,0.1569,-0.9002,55.813843,37.500076,189.0104,NaN,0.0353,16.0,48.4697,10 / 21,,3481,2021-05-01 19:21:01:579
-0.001036,0.014438,9.705318,-6.92E-4,0.001171,9.80665,0.001239,-0.002319,8.37E-4,2.1,-15.66,-24.54,188.469,0.1569,-0.9002,55.813843,37.500076,189.0104,NaN,0.0353,16.0,48.4697,10 / 21,,3491,2021-05-01 19:21:01:589
-0.001036,0.014438,9.705318,-0.002163,0.002957,9.80665,0.003072,0.001346,0.003891,2.16,-15.3,-24.3,188.469,0.1569,-0.9002,55.813843,37.500076,189.0104,NaN,0.0353,16.0,48.4697,10 / 21,,3502,2021-05-01 19:21:01:600
-0.018417,-0.00476,9.705484,-0.002163,0.002957,9.80665,0.003072,0.001346,0.003891,2.16,-15.3,-24.3,188.469,0.1569,-0.9002,55.813843,37.500076,189.0104,NaN,0.0353,16.0,48.4697,10 / 21,,3512,2021-05-01 19:21:01:610
0.011497,-0.033473,9.724046,-6.9E-4,6.36E-4,9.806651,-0.001204,-0.004151,0.002059,1.44,-15.3,-24.42,185.2436,0.1721,-0.9152,55.813843,37.500076,189.0104,NaN,0.0353,16.0,48.4697,10 / 21,,3522,2021-05-01 19:21:01:620
0.011497,-0.033473,9.724046,-6.9E-4,6.36E-4,9.806651,0.001239,7.35E-4,8.37E-4,1.44,-15.3,-24.42,185.2436,0.1721,-0.9152,55.813843,37.500076,189.0104,NaN,0.0353,16.0,48.4697,10 / 21,,3532,2021-05-01 19:21:01:630
-0.009764,3.92E-4,9.731773,-0.001884,0.001379,9.806651,0.003683,0.004401,0.004502,1.62,-16.02,-24.54,185.2436,0.1721,-0.9152,55.813843,37.500076,189.0104,NaN,0.0353,16.0,48.4697,10 / 21,,3541,2021-05-01 19:21:01:639
-0.026181,0.014078,9.67941,-0.001917,0.00132,9.806651,6.29E-4,0.001957,0.004502,1.68,-16.26,-24.3,185.2436,0.1721,-0.9152,55.813843,37.500076,189.0104,NaN,0.0353,16.0,48.4697,10 / 21,,3551,2021-05-01 19:21:01:649
-0.013003,-0.001593,9.691108,-0.001917,0.00132,9.806651,0.003072,0.008677,0.002059,1.68,-16.26,-24.3,185.2436,0.1721,-0.9152,55.813843,37.500076,189.0104,NaN,0.0353,16.0,48.4697,10 / 21,,3561,2021-05-01 19:21:01:659
-0.013003,-0.001593,9.691108,-8.49E-4,8.84E-4,9.80665,0.006126,0.004401,0.005724,1.26,-16.02,-24.54,184.992,0.1788,-0.9271,55.813847,37.50017,190.1213,NaN,0.0,16.0,,20 / 21,,3571,2021-05-01 19:21:01:669
-0.003883,-0.01092,9.734061,-8.49E-4,8.84E-4,9.80665,0.002461,0.008066,0.001448,1.26,-16.02,-24.54,184.992,0.1788,-0.9271,55.813847,37.50017,190.1213,NaN,0.0,16.0,,20 / 21,,3581,2021-05-01 19:21:01:679
-0.002352,-0.008441,9.667,-0.001445,0.001745,9.80665,0.002461,0.008066,0.001448,0.9,-15.18,-24.48,184.992,0.1788,-0.9271,55.813847,37.50017,190.1213,NaN,0.0,16.0,,20 / 21,,3591,2021-05-01 19:21:01:689
0.00303,0.029138,9.796392,-0.002537,0.002207,9.80665,0.004294,0.003179,0.002059,1.5,-14.82,-24.48,184.992,0.1788,-0.9271,55.813847,37.50017,190.1213,NaN,0.0,16.0,,20 / 21,,3601,2021-05-01 19:21:01:699
0.00303,0.029138,9.796392,-0.002537,0.002207,9.80665,0.003072,-0.005373,0.002059,1.5,-14.82,-24.48,184.992,0.1788,-0.9271,55.813847,37.50017,190.1213,NaN,0.0,16.0,,20 / 21,,3612,2021-05-01 19:21:01:710
0.014383,-0.068107,9.834087,-0.001948,0.001665,9.80665,0.004294,0.014785,0.004502,1.98,-15.12,-24.66,189.0825,0.1903,-0.943,55.813847,37.50017,190.1213,NaN,0.0,16.0,,20 / 21,,3621,2021-05-01 19:21:01:719
0.035106,0.041748,9.707453,-0.001948,0.001665,9.80665,0.004294,0.014785,0.004502,1.98,-15.12,-24.66,189.0825,0.1903,-0.943,55.813847,37.50017,190.1213,NaN,0.0,16.0,,20 / 21,,3632,2021-05-01 19:21:01:730
-0.018867,0.001694,9.763142,-0.001487,0.002175,9.806649,0.004905,0.001957,0.006335,2.04,-15.3,-25.38,189.0825,0.1903,-0.943,55.813847,37.50017,190.1213,NaN,0.0,16.0,,20 / 21,,3642,2021-05-01 19:21:01:740
0.003155,0.001027,9.635876,-0.001487,0.002175,9.806649,0.00185,-0.001708,8.37E-4,2.04,-15.3,-25.38,189.0825,0.1903,-0.943,55.813847,37.50017,190.1213,NaN,0.0,16.0,,20 / 21,,3651,2021-05-01 19:21:01:749
0.003155,0.001027,9.635876,6.45E-4,4.85E-4,9.806651,0.003072,-0.001097,0.00328,2.16,-14.94,-24.54,189.0967,0.2015,-0.9536,55.813847,37.50017,190.1213,NaN,0.0,16.0,,20 / 21,,3661,2021-05-01 19:21:01:759
0.007549,-0.035782,9.707457,6.45E-4,4.85E-4,9.806651,-0.001815,-0.005373,-3.85E-4,2.16,-14.94,-24.54,189.0967,0.2015,-0.9536,55.813847,37.50017,190.1213,NaN,0.0,16.0,,20 / 21,,3672,2021-05-01 19:21:01:770
0.007549,-0.035782,9.707457,0.001539,-2.08E-4,9.80665,1.8E-5,-0.002319,0.002059,1.56,-15.0,-23.46,189.0967,0.2015,-0.9536,55.813847,37.50017,190.1213,NaN,0.0,16.0,,20 / 21,,3682,2021-05-01 19:21:01:780
0.01247,-0.104233,9.642305,0.001539,-2.08E-4,9.80665,0.005516,-4.86E-4,0.004502,1.56,-15.0,-23.46,189.0967,0.2015,-0.9536,55.813847,37.50017,190.1213,NaN,0.0,16.0,,20 / 21,,3691,2021-05-01 19:21:01:789
-0.0253,-0.067012,9.683826,8.32E-4,-3.89E-4,9.80665,-0.001204,-0.003541,0.001448,1.98,-15.66,-24.0,188.4705,0.2017,-0.9445,55.813847,37.50017,190.1213,NaN,0.0,16.0,,20 / 21,,3701,2021-05-01 19:21:01:799
0.061014,-0.143505,9.880765,8.32E-4,-3.89E-4,9.80665,0.003072,-4.86E-4,0.001448,1.98,-15.66,-24.0,188.4705,0.2017,-0.9445,55.813847,37.50017,190.1213,NaN,0.0,16.0,,20 / 21,,3711,2021-05-01 19:21:01:809
0.061014,-0.143505,9.880765,8.86E-4,4.8E-4,9.806651,0.006126,0.005622,0.00328,2.04,-15.3,-24.42,188.4705,0.2017,-0.9445,55.813847,37.50017,190.1213,NaN,0.0,16.0,,20 / 21,,3721,2021-05-01 19:21:01:819
0.011806,0.111246,9.736977,8.86E-4,4.8E-4,9.806651,0.006126,0.005622,0.00328,2.04,-15.3,-24.42,188.4705,0.2017,-0.9445,55.813847,37.50017,190.1213,NaN,0.0,16.0,,20 / 21,,3731,2021-05-01 19:21:01:829
-0.056172,0.014717,9.761409,5.8E-5,3.1E-4,9.806651,0.003072,7.35E-4,0.002059,1.74,-15.42,-24.18,189.0149,0.2053,-0.9398,55.813847,37.50017,190.1213,NaN,0.0,16.0,,20 / 21,,3741,2021-05-01 19:21:01:839
0.041787,-0.032054,9.682963,-6.3E-4,6.47E-4,9.806651,0.003072,7.35E-4,0.002059,1.98,-15.48,-24.24,189.0149,0.2053,-0.9398,55.813847,37.50017,190.1213,NaN,0.0,16.0,,20 / 21,,3752,2021-05-01 19:21:01:850
0.008643,0.031287,9.710209,-6.3E-4,6.47E-4,9.806651,0.00185,0.006233,0.001448,1.98,-15.48,-24.24,189.0149,0.2053,-0.9398,55.813847,37.50017,190.1213,NaN,0.0,16.0,,20 / 21,,3761,2021-05-01 19:21:01:859
0.008643,0.031287,9.710209,1.35E-4,4.0E-6,9.806651,0.00185,0.001957,0.004502,1.92,-15.48,-24.12,189.0149,0.2053,-0.9398,55.813847,37.50017,190.1213,NaN,0.0,16.0,,20 / 21,,3771,2021-05-01 19:21:01:869
-0.009255,-0.036193,9.714866,1.35E-4,4.0E-6,9.806651,0.004294,0.005622,0.00328,1.92,-15.48,-24.12,189.0149,0.2053,-0.9398,55.813847,37.50017,190.1213,NaN,0.0,16.0,,20 / 21,,3781,2021-05-01 19:21:01:879
0.006508,-0.026503,9.695522,1.22E-4,-9.12E-4,9.80665,1.8E-5,0.001346,0.003891,2.46,-15.6,-24.24,188.4617,0.2054,-0.939,55.813847,37.50017,190.1213,NaN,0.0,16.0,,20 / 21,,3791,2021-05-01 19:21:01:889
0.023904,-0.031677,9.762269,2.65E-4,-0.001405,9.80665,0.001239,0.002568,0.005113,2.4,-15.24,-24.3,188.4617,0.2054,-0.939,55.813847,37.50017,190.1213,NaN,0.0,16.0,,20 / 21,,3801,2021-05-01 19:21:01:899
0.010731,-0.039418,9.767219,2.65E-4,-0.001405,9.80665,0.001239,-0.002319,-9.96E-4,2.4,-15.24,-24.3,188.4617,0.2054,-0.939,55.813847,37.50017,190.1213,NaN,0.0,16.0,,20 / 21,,3811,2021-05-01 19:21:01:909
0.010731,-0.039418,9.767219,0.001012,-0.00367,9.806649,0.002461,-0.003541,0.004502,2.04,-15.3,-24.06,188.4617,0.2054,-0.939,55.813847,37.50017,190.1213,NaN,0.0,16.0,,20 / 21,,3821,2021-05-01 19:21:01:919
-0.035135,0.049937,9.703815,0.001012,-0.00367,9.806649,0.002461,-0.003541,0.004502,2.04,-15.3,-24.06,188.4617,0.2054,-0.939,55.813847,37.50017,190.1213,NaN,0.0,16.0,,20 / 21,,3831,2021-05-01 19:21:01:929
0.019515,-0.01664,9.80074,0.001356,-0.001966,9.806649,0.001239,7.35E-4,8.37E-4,1.38,-15.24,-24.18,185.2651,0.1851,-0.93,55.813847,37.50017,190.1213,NaN,0.0,16.0,,20 / 21,,3841,2021-05-01 19:21:01:939
0.034702,-0.022903,9.781294,0.001506,-0.002706,9.806649,0.001239,0.002568,0.001448,1.2,-15.12,-24.3,185.2651,0.1851,-0.93,55.813847,37.50017,190.1213,NaN,0.0,16.0,,20 / 21,,3851,2021-05-01 19:21:01:949
0.034702,-0.022903,9.781294,0.001506,-0.002706,9.806649,0.001239,0.002568,0.001448,1.2,-15.12,-24.3,185.2651,0.1851,-0.93,55.813847,37.50017,190.1213,NaN,0.0,16.0,,20 / 21,,3861,2021-05-01 19:21:01:959
0.014359,-0.001663,9.741007,0.00334,-0.004152,9.806648,-5.93E-4,1.25E-4,0.00328,1.02,-14.88,-24.6,185.2651,0.1851,-0.93,55.813847,37.50017,190.1213,NaN,0.0,16.0,,20 / 21,,3871,2021-05-01 19:21:01:969
0.014359,-0.001663,9.741007,0.00334,-0.004152,9.806648,0.00185,-0.002319,0.00328,1.02,-14.88,-24.6,185.2651,0.1851,-0.93,55.813847,37.50017,190.1213,NaN,0.0,16.0,,20 / 21,,3881,2021-05-01 19:21:01:979
0.023528,-0.031336,9.733539,9.86E-4,-0.001056,9.806652,-0.001204,-0.004151,0.002669,1.74,-15.54,-24.12,188.4262,0.1627,-0.9084,55.813847,37.50017,190.1213,NaN,0.0,16.0,,20 / 21,,3891,2021-05-01 19:21:01:989
0.005883,-0.01174,9.688344,0.001279,-0.001222,9.806651,-5.93E-4,0.005622,0.002669,1.8,-15.54,-24.0,188.4262,0.1627,-0.9084,55.813847,37.50017,190.1213,NaN,0.0,16.0,,20 / 21,,3902,2021-05-01 19:21:02:000
0.005883,-0.01174,9.688344,0.001279,-0.001222,9.806651,-5.93E-4,0.005622,0.002669,1.8,-15.54,-24.0,188.4262,0.1627,-0.9084,55.813847,37.50017,190.1213,NaN,0.0,16.0,,20 / 21,,3911,2021-05-01 19:21:02:009
-0.00951,-0.019184,9.702909,0.002422,-0.00177,9.806651,6.29E-4,-0.003541,0.001448,1.92,-15.9,-24.78,188.4262,0.1627,-0.9084,55.813847,37.50017,190.1213,NaN,0.0,16.0,,20 / 21,,3922,2021-05-01 19:21:02:020
-0.00951,-0.019184,9.702909,0.002422,-0.00177,9.806651,0.00185,0.002568,0.002059,1.92,-15.9,-24.78,188.4262,0.1627,-0.9084,55.813847,37.50017,190.1213,NaN,0.0,16.0,,20 / 21,,3932,2021-05-01 19:21:02:030
0.013375,-0.029882,9.719267,0.003218,-0.001896,9.806652,0.003683,7.35E-4,-9.96E-4,1.92,-15.96,-24.48,188.3985,0.1545,-0.8881,55.813847,37.50017,190.1213,NaN,0.0,16.0,,20 / 21,,3941,2021-05-01 19:21:02:039
-0.015555,-0.016799,9.669428,0.003218,-0.001896,9.806652,0.001239,7.35E-4,0.002059,1.92,-15.96,-24.48,188.3985,0.1545,-0.8881,55.813847,37.50017,190.1213,NaN,0.0,16.0,,20 / 21,,3951,2021-05-01 19:21:02:049
-0.014215,0.016671,9.748594,2.51E-4,7.23E-4,9.806651,6.29E-4,1.25E-4,0.00328,1.68,-15.36,-24.0,188.3985,0.1545,-0.8881,55.813847,37.50017,190.1213,NaN,0.0,16.0,,20 / 21,,3962,2021-05-01 19:21:02:060
0.015333,0.036512,9.748251,2.51E-4,7.23E-4,9.806651,1.8E-5,-0.00293,0.002059,1.68,-15.36,-24.0,188.3985,0.1545,-0.8881,55.813847,37.50017,190.1213,NaN,0.0,16.0,,20 / 21,,3971,2021-05-01 19:21:02:069
0.015333,0.036512,9.748251,-4.02E-4,0.001011,9.806651,1.8E-5,-0.00293,0.002059,1.08,-14.88,-24.06,185.2015,0.1589,-0.8873,55.813847,37.50017,190.1213,NaN,0.0,16.0,,20 / 21,,3982,2021-05-01 19:21:02:080
-0.003852,-0.007401,9.690858,-4.02E-4,0.001011,9.806651,0.003072,0.001957,0.004502,1.08,-14.88,-24.06,185.2015,0.1589,-0.8873,55.813847,37.50017,190.1213,NaN,0.0,16.0,,20 / 21,,3992,2021-05-01 19:21:02:090
-0.005803,2.9E-5,9.676551,-7.16E-4,0.002025,9.80665,-5.93E-4,-0.003541,0.00328,1.14,-15.0,-24.06,185.2015,0.1589,-0.8873,55.813847,37.50017,190.1213,NaN,0.0,16.0,,20 / 21,,4001,2021-05-01 19:21:02:099
-0.005803,2.9E-5,9.676551,-7.16E-4,0.002025,9.80665,0.001239,0.001346,-3.85E-4,1.14,-15.0,-24.06,185.2015,0.1589,-0.8873,55.813847,37.50017,190.1213,NaN,0.0,16.0,,20 / 21,,4012,2021-05-01 19:21:02:110
-0.022961,-0.005655,9.68876,-2.04E-4,4.9E-4,9.806651,-5.93E-4,-0.001708,0.002059,1.56,-15.96,-24.6,188.4543,0.1703,-0.8925,55.813847,37.50017,190.1213,NaN,0.0,16.0,,20 / 21,,4021,2021-05-01 19:21:02:119
-0.01485,0.011774,9.705501,-2.04E-4,4.9E-4,9.806651,0.00185,0.003179,0.001448,1.56,-15.96,-24.6,188.4543,0.1703,-0.8925,55.813847,37.50017,190.1213,NaN,0.0,16.0,,20 / 21,,4031,2021-05-01 19:21:02:129
0.002567,-0.022418,9.750559,-0.001952,0.001523,9.806651,0.00185,-4.86E-4,0.002059,1.98,-15.66,-25.14,188.4543,0.1703,-0.8925,55.813847,37.50017,190.1213,NaN,0.0,16.0,,20 / 21,,4041,2021-05-01 19:21:02:139
0.002567,-0.022418,9.750559,-0.002748,0.002129,9.80665,0.001239,1.25E-4,0.002059,2.1,-15.66,-24.54,188.4543,0.1703,-0.8925,55.813847,37.50017,190.1213,NaN,0.0,16.0,,20 / 21,,4051,2021-05-01 19:21:02:149
0.005727,-0.010591,9.685919,-0.002748,0.002129,9.80665,0.001239,1.25E-4,0.002059,2.1,-15.66,-24.54,188.4543,0.1703,-0.8925,55.813847,37.50017,190.1213,NaN,0.0,16.0,,20 / 21,,4061,2021-05-01 19:21:02:159
0.001577,-0.014214,9.724325,-0.001003,1.67E-4,9.80665,6.29E-4,0.001346,0.002669,1.68,-15.6,-24.36,188.4252,0.1802,-0.9102,55.813847,37.50017,190.1213,NaN,0.0,16.0,,20 / 21,,4072,2021-05-01 19:21:02:170
0.001577,-0.014214,9.724325,-0.001003,1.67E-4,9.80665,6.29E-4,0.001346,0.002669,1.68,-15.6,-24.36,188.4252,0.1802,-0.9102,55.813847,37.50017,190.1213,NaN,0.0,16.0,,20 / 21,,4081,2021-05-01 19:21:02:179
-0.024846,0.004243,9.717645,-0.002348,4.5E-5,9.806651,0.00185,0.003179,0.00328,1.44,-16.02,-24.12,188.4252,0.1802,-0.9102,55.813847,37.50017,190.1213,NaN,0.0,16.0,,20 / 21,,4091,2021-05-01 19:21:02:189
-0.005228,-0.027736,9.726748,-0.002348,4.5E-5,9.806651,0.001239,7.35E-4,0.001448,1.44,-16.02,-24.12,188.4252,0.1802,-0.9102,55.813847,37.50017,190.1213,NaN,0.0,16.0,,20 / 21,,4101,2021-05-01 19:21:02:199
-7.67E-4,-0.025586,9.74112,-5.3E-4,-1.24E-4,9.806649,0.001239,0.001346,2.26E-4,1.2,-16.14,-23.76,184.931,0.1785,-0.9239,55.813847,37.50017,190.1213,NaN,0.0,16.0,,20 / 21,,4112,2021-05-01 19:21:02:210
0.012872,0.018861,9.753077,-6.37E-4,-4.7E-5,9.806649,6.29E-4,1.25E-4,8.37E-4,1.08,-16.26,-23.94,184.931,0.1785,-0.9239,55.813847,37.50017,190.1213,NaN,0.0,16.0,,20 / 21,,4122,2021-05-01 19:21:02:220
0.012872,0.018861,9.753077,-6.37E-4,-4.7E-5,9.806649,-0.001204,7.35E-4,0.002669,1.08,-16.26,-23.94,184.931,0.1785,-0.9239,55.813847,37.50017,190.1213,NaN,0.0,16.0,,20 / 21,,4132,2021-05-01 19:21:02:230
-0.007096,0.001679,9.650348,-8.67E-4,-5.7E-4,9.806649,1.8E-5,-4.86E-4,0.00328,1.38,-15.96,-24.96,184.931,0.1785,-0.9239,55.813847,37.50017,190.1213,NaN,0.0,16.0,,20 / 21,,4141,2021-05-01 19:21:02:239
-1.2E-5,-0.003805,9.671762,-8.67E-4,-5.7E-4,9.806649,1.8E-5,-0.002319,0.00328,1.38,-15.96,-24.96,184.931,0.1785,-0.9239,55.813847,37.50017,190.1213,NaN,0.0,16.0,,20 / 21,,4152,2021-05-01 19:21:02:250
0.006062,-0.03265,9.707468,-2.8E-4,3.2E-5,9.806648,0.001239,-0.002319,0.002669,1.08,-15.78,-24.72,184.9949,0.1747,-0.9286,55.813847,37.50017,190.1213,NaN,0.0,16.0,,20 / 21,,4161,2021-05-01 19:21:02:259
0.006062,-0.03265,9.707468,-2.8E-4,3.2E-5,9.806648,0.003683,1.25E-4,0.003891,1.08,-15.78,-24.72,184.9949,0.1747,-0.9286,55.813847,37.50017,190.1213,NaN,0.0,16.0,,20 / 21,,4171,2021-05-01 19:21:02:269
0.039383,-0.026233,9.800357,-2.88E-4,-5.23E-4,9.806649,-0.001204,-0.004762,-3.85E-4,1.02,-15.3,-23.46,184.9949,0.1747,-0.9286,55.813847,37.50017,190.1213,NaN,0.0,16.0,,20 / 21,,4181,2021-05-01 19:21:02:279
-0.015332,0.038689,9.782357,-2.88E-4,-5.23E-4,9.806649,0.00185,0.001957,0.00328,1.02,-15.3,-23.46,184.9949,0.1747,-0.9286,55.813847,37.50017,190.1213,NaN,0.0,16.0,,20 / 21,,4191,2021-05-01 19:21:02:289
-0.022103,0.004155,9.684136,-4.48E-4,5.3E-5,9.806651,-5.93E-4,-0.001097,2.26E-4,1.44,-15.18,-23.28,185.2069,0.1715,-0.93,55.813847,37.50017,190.1213,NaN,0.0,16.0,,20 / 21,,4201,2021-05-01 19:21:02:299
-0.022103,0.004155,9.684136,-4.48E-4,5.3E-5,9.806651,0.00185,0.004401,0.004502,1.44,-15.18,-23.28,185.2069,0.1715,-0.93,55.813847,37.50017,190.1213,NaN,0.0,16.0,,20 / 21,,4211,2021-05-01 19:21:02:309
0.004024,0.006684,9.650208,-4.14E-4,-2.62E-4,9.806651,0.001239,0.00379,0.002669,1.5,-15.3,-24.06,185.2069,0.1715,-0.93,55.813847,37.50017,190.1213,NaN,0.0,16.0,,20 / 21,,4222,2021-05-01 19:21:02:320
0.017307,-0.040342,9.695286,-4.14E-4,-2.62E-4,9.806651,0.001239,0.00379,0.002669,1.5,-15.3,-24.06,185.2069,0.1715,-0.93,55.813847,37.50017,190.1213,NaN,0.0,16.0,,20 / 21,,4232,2021-05-01 19:21:02:330
0.02064,0.007534,9.755314,9.7E-5,-0.001053,9.80665,0.003683,0.00379,0.002669,1.38,-15.12,-24.48,185.2709,0.1698,-0.9323,55.813847,37.50017,190.1213,NaN,0.0,16.0,,20 / 21,,4242,2021-05-01 19:21:02:340
0.02064,0.007534,9.755314,9.7E-5,-0.001053,9.80665,6.29E-4,0.002568,2.26E-4,1.38,-15.12,-24.48,185.2709,0.1698,-0.9323,55.813847,37.50017,190.1213,NaN,0.0,16.0,,20 / 21,,4251,2021-05-01 19:21:02:349
-0.020129,0.026012,9.657867,8.98E-4,-0.001894,9.80665,6.29E-4,0.003179,0.00328,1.44,-15.48,-24.42,185.2709,0.1698,-0.9323,55.813847,37.50017,190.1213,NaN,0.0,16.0,,20 / 21,,4262,2021-05-01 19:21:02:360
-0.020626,0.057052,9.746614,8.98E-4,-0.001894,9.80665,0.003072,0.007455,0.004502,1.68,-15.66,-24.54,185.2709,0.1698,-0.9323,55.813847,37.50017,190.1213,NaN,0.0,16.0,,20 / 21,,4272,2021-05-01 19:21:02:370
-0.020626,0.057052,9.746614,0.002002,-0.002835,9.806649,0.003683,-0.004762,0.002059,1.68,-15.66,-24.54,185.2709,0.1698,-0.9323,55.813847,37.50017,190.1213,NaN,0.0,16.0,,20 / 21,,4281,2021-05-01 19:21:02:379
-0.037861,0.041625,9.809079,0.002002,-0.002835,9.806649,0.002461,0.005012,2.26E-4,1.62,-15.72,-24.36,188.4437,0.1544,-0.9191,55.813847,37.50017,190.1213,NaN,0.0,16.0,,20 / 21,,4291,2021-05-01 19:21:02:389
8.41E-4,0.01689,9.748457,-2.03E-4,-1.09E-4,9.806652,0.004905,7.35E-4,2.26E-4,2.1,-15.78,-24.54,188.4437,0.1544,-0.9191,55.813847,37.50017,190.1213,NaN,0.0,16.0,,20 / 21,,4302,2021-05-01 19:21:02:400
8.41E-4,0.01689,9.748457,-2.03E-4,-1.09E-4,9.806652,0.001239,0.004401,2.26E-4,2.1,-15.78,-24.54,188.4437,0.1544,-0.9191,55.813847,37.50017,190.1213,NaN,0.0,16.0,,20 / 21,,4312,2021-05-01 19:21:02:410
0.002137,0.021435,9.786773,-1.54E-4,-5.35E-4,9.806652,0.001239,0.004401,2.26E-4,1.5,-15.36,-24.3,188.4437,0.1544,-0.9191,55.813847,37.50017,190.1213,NaN,0.0,16.0,,20 / 21,,4321,2021-05-01 19:21:02:419
0.010223,0.017579,9.872834,-1.54E-4,-5.35E-4,9.806652,0.002461,7.35E-4,0.002059,1.5,-15.36,-24.3,188.4437,0.1544,-0.9191,55.813847,37.50017,190.1213,NaN,0.0,16.0,,20 / 21,,4332,2021-05-01 19:21:02:430
-0.033585,0.02302,9.72027,0.001517,4.53E-4,9.80665,-0.001815,-0.004151,0.004502,0.84,-15.12,-24.06,185.2535,0.1512,-0.9196,55.813847,37.50017,190.1213,NaN,0.0,16.0,,20 / 21,,4341,2021-05-01 19:21:02:439
0.02233,-0.044169,9.544309,0.001517,4.53E-4,9.80665,1.8E-5,1.25E-4,8.37E-4,0.84,-15.12,-24.06,185.2535,0.1512,-0.9196,55.813847,37.50017,190.1213,NaN,0.0,16.0,,20 / 21,,4352,2021-05-01 19:21:02:450
0.02233,-0.044169,9.544309,0.001498,2.02E-4,9.80665,1.8E-5,0.00379,2.26E-4,1.56,-15.54,-23.76,185.2535,0.1512,-0.9196,55.813847,37.50017,190.1213,NaN,0.0,16.0,,20 / 21,,4361,2021-05-01 19:21:02:459
0.01039,-0.062598,9.654573,0.001498,2.02E-4,9.80665,0.002461,-0.001708,0.002059,1.56,-15.54,-23.76,185.2535,0.1512,-0.9196,55.813847,37.50017,190.1213,NaN,0.0,16.0,,20 / 21,,4372,2021-05-01 19:21:02:470
0.062383,-0.110959,9.873763,0.001813,-0.002379,9.806649,0.001239,0.005012,0.00328,2.04,-15.72,-23.94,188.4321,0.1531,-0.9109,55.813847,37.50017,190.1213,NaN,0.0,16.0,,20 / 21,,4381,2021-05-01 19:21:02:479
-0.044395,0.106342,9.660969,0.002681,-0.004635,9.806647,0.001239,-0.003541,0.004502,2.04,-15.42,-24.54,188.4321,0.1531,-0.9109,55.813847,37.50017,190.1213,NaN,0.0,16.0,,20 / 21,,4392,2021-05-01 19:21:02:490
-0.008126,-0.078681,9.858243,0.002681,-0.004635,9.806647,0.00185,0.002568,0.002669,2.04,-15.42,-24.54,188.4321,0.1531,-0.9109,55.813847,37.50017,190.1213,NaN,0.0,16.0,,20 / 21,,4401,2021-05-01 19:21:02:499
-0.008126,-0.078681,9.858243,0.003182,-0.005761,9.806646,6.29E-4,-0.005373,8.37E-4,1.14,-15.24,-24.3,188.4321,0.1531,-0.9109,55.813847,37.50017,190.1213,NaN,0.0,16.0,,20 / 21,,4412,2021-05-01 19:21:02:510
0.016581,0.012617,9.64999,0.00321,-0.005443,9.806647,1.8E-5,0.003179,0.004502,1.14,-15.24,-24.3,188.4321,0.1531,-0.9109,55.813847,37.50017,190.1213,NaN,0.0,16.0,,20 / 21,,4421,2021-05-01 19:21:02:519
-0.035122,0.107332,9.720553,0.00321,-0.005443,9.806647,1.8E-5,0.003179,0.004502,1.5,-15.78,-25.02,188.4573,0.1244,-0.8877,55.813847,37.50017,190.1213,NaN,0.0,16.0,,20 / 21,,4431,2021-05-01 19:21:02:529
-0.026541,-0.080008,9.573526,-5.89E-4,-6.34E-4,9.80665,6.29E-4,-0.00293,2.26E-4,1.5,-15.78,-25.02,188.4573,0.1244,-0.8877,55.813847,37.50017,190.1213,NaN,0.0,16.0,,20 / 21,,4441,2021-05-01 19:21:02:539
0.034742,-0.009922,9.884212,-5.89E-4,-6.34E-4,9.80665,0.002461,0.001346,0.002669,2.22,-15.78,-25.2,188.4573,0.1244,-0.8877,55.813847,37.50017,190.1213,NaN,0.0,16.0,,20 / 21,,4452,2021-05-01 19:21:02:550
0.034742,-0.009922,9.884212,-9.93E-4,-0.001204,9.80665,0.003072,-0.001097,8.37E-4,2.22,-15.78,-25.2,188.4573,0.1244,-0.8877,55.813847,37.50017,190.1213,NaN,0.0,16.0,,20 / 21,,4461,2021-05-01 19:21:02:559
0.038342,0.023626,9.795706,-0.001028,5.6E-5,9.806652,6.29E-4,1.25E-4,0.004502,1.38,-15.3,-24.78,185.2737,0.1166,-0.8924,55.813847,37.50017,190.1213,NaN,0.0,16.0,,20 / 21,,4472,2021-05-01 19:21:02:570
0.009178,-0.001682,9.819987,-0.001028,5.6E-5,9.806652,6.29E-4,1.25E-4,0.004502,1.38,-15.3,-24.78,185.2737,0.1166,-0.8924,55.813847,37.50017,190.1213,NaN,0.0,16.0,,20 / 21,,4482,2021-05-01 19:21:02:580
-0.028047,0.030836,9.708125,-0.001136,-1.53E-4,9.806652,0.00185,-0.001097,0.002059,1.26,-15.18,-24.9,185.2737,0.1166,-0.8924,55.813847,37.50017,190.1213,NaN,0.0,16.0,,20 / 21,,4492,2021-05-01 19:21:02:590
-0.028047,0.030836,9.708125,-0.001136,-1.53E-4,9.806652,0.001239,-0.001097,0.003891,1.26,-15.18,-24.9,185.2737,0.1166,-0.8924,55.813847,37.50017,190.1213,NaN,0.0,16.0,,20 / 21,,4502,2021-05-01 19:21:02:600
-0.033843,1.86E-4,9.67219,-4.09E-4,6.14E-4,9.806649,-5.93E-4,1.25E-4,0.002669,1.56,-15.66,-25.08,188.4765,0.1151,-0.899,55.813847,37.50017,190.1213,NaN,0.0,16.0,,20 / 21,,4512,2021-05-01 19:21:02:610
-0.011326,0.011008,9.712612,-7.09E-4,0.001363,9.806649,1.8E-5,-4.86E-4,8.37E-4,1.32,-15.42,-24.6,188.4765,0.1151,-0.899,55.813847,37.50017,190.1213,NaN,0.0,16.0,,20 / 21,,4522,2021-05-01 19:21:02:620
-0.011326,0.011008,9.712612,-7.09E-4,0.001363,9.806649,0.006126,0.00379,0.001448,1.32,-15.42,-24.6,188.4765,0.1151,-0.899,55.813847,37.50017,190.1213,NaN,0.0,16.0,,20 / 21,,4532,2021-05-01 19:21:02:630
0.008767,-0.004163,9.748161,-0.001396,0.002864,9.806649,0.004294,0.004401,0.004502,1.32,-14.88,-24.36,188.4765,0.1151,-0.899,55.813847,37.50017,190.1213,NaN,0.0,16.0,,20 / 21,,4541,2021-05-01 19:21:02:639
-0.008038,8.4E-4,9.710124,-0.001396,0.002864,9.806649,0.003072,0.00379,0.002059,1.32,-14.88,-24.36,188.4765,0.1151,-0.899,55.813847,37.50017,190.1213,NaN,0.0,16.0,,20 / 21,,4554,2021-05-01 19:21:02:652
0.003116,-0.003269,9.717155,-0.001011,0.001574,9.806649,0.003072,0.00379,0.002059,1.32,-15.12,-24.48,185.2406,0.1305,-0.9095,55.813847,37.50017,190.1213,NaN,0.0,16.0,,20 / 21,,4561,2021-05-01 19:21:02:659
0.017932,0.019311,9.762505,-0.001705,0.00267,9.806648,0.001239,-0.00293,0.002059,1.38,-15.18,-24.24,185.2406,0.1305,-0.9095,55.813847,37.50017,190.1213,NaN,0.0,16.0,,20 / 21,,4572,2021-05-01 19:21:02:670
0.017932,0.019311,9.762505,-0.001705,0.00267,9.806648,0.00185,-0.003541,0.003891,1.38,-15.18,-24.24,185.2406,0.1305,-0.9095,55.81385,37.500183,188.9535,NaN,0.0,16.0,,20 / 21,,4581,2021-05-01 19:21:02:679
0.002459,-0.010422,9.717138,-0.002749,0.003427,9.806647,-5.93E-4,-0.001097,0.002059,2.04,-15.54,-24.24,185.2406,0.1305,-0.9095,55.81385,37.500183,188.9535,NaN,0.0,16.0,,20 / 21,,4591,2021-05-01 19:21:02:689
-0.004709,-0.002453,9.674178,-0.002749,0.003427,9.806647,-0.001204,0.001346,8.37E-4,2.04,-15.54,-24.24,185.2406,0.1305,-0.9095,55.81385,37.500183,188.9535,NaN,0.0,16.0,,20 / 21,,4602,2021-05-01 19:21:02:700
-0.013166,0.032132,9.703271,-0.001344,7.27E-4,9.806651,0.00185,-0.001708,-0.002217,2.34,-15.84,-24.48,188.4569,0.1489,-0.9273,55.81385,37.500183,188.9535,NaN,0.0,16.0,,20 / 21,,4611,2021-05-01 19:21:02:709
0.033038,0.02754,9.757602,-0.001344,7.27E-4,9.806651,0.001239,1.25E-4,0.001448,2.34,-15.84,-24.48,188.4569,0.1489,-0.9273,55.81385,37.500183,188.9535,NaN,0.0,16.0,,20 / 21,,4621,2021-05-01 19:21:02:719
0.033038,0.02754,9.757602,-0.002237,0.002351,9.80665,-5.93E-4,-0.001708,0.00328,1.98,-15.54,-24.66,188.4569,0.1489,-0.9273,55.81385,37.500183,188.9535,NaN,0.0,16.0,,20 / 21,,4631,2021-05-01 19:21:02:729
-0.013234,0.027194,9.743955,-0.002237,0.002351,9.80665,1.8E-5,-0.001097,0.002059,1.98,-15.54,-24.66,188.4569,0.1489,-0.9273,55.81385,37.500183,188.9535,NaN,0.0,16.0,,20 / 21,,4641,2021-05-01 19:21:02:739
-0.013681,8.54E-4,9.660021,1.35E-4,0.002063,9.80665,0.00185,1.25E-4,0.002669,1.92,-15.0,-24.9,189.089,0.1606,-0.9423,55.81385,37.500183,188.9535,NaN,0.0,16.0,,20 / 21,,4651,2021-05-01 19:21:02:749
0.014964,0.015937,9.772243,9.6E-5,0.002778,9.80665,6.29E-4,1.25E-4,-9.96E-4,1.68,-15.12,-24.42,189.089,0.1606,-0.9423,55.81385,37.500183,188.9535,NaN,0.0,16.0,,20 / 21,,4661,2021-05-01 19:21:02:759
0.014964,0.015937,9.772243,9.6E-5,0.002778,9.80665,0.00185,-4.86E-4,0.00328,1.68,-15.12,-24.42,189.089,0.1606,-0.9423,55.81385,37.500183,188.9535,NaN,0.0,16.0,,20 / 21,,4671,2021-05-01 19:21:02:769
0.020638,-0.006724,9.748088,1.51E-4,0.004397,9.806649,0.00185,0.001346,0.004502,1.5,-15.18,-24.3,189.089,0.1606,-0.9423,55.81385,37.500183,188.9535,NaN,0.0,16.0,,20 / 21,,4681,2021-05-01 19:21:02:779
-0.003209,0.014151,9.717445,1.51E-4,0.004397,9.806649,0.002461,0.004401,0.00328,1.5,-15.18,-24.3,189.089,0.1606,-0.9423,55.81385,37.500183,188.9535,NaN,0.0,16.0,,20 / 21,,4691,2021-05-01 19:21:02:789
-0.021476,0.020035,9.696245,-2.54E-4,0.001588,9.806649,0.00185,0.001957,0.003891,1.5,-14.58,-24.66,189.0876,0.1861,-0.9455,55.81385,37.500183,188.9535,NaN,0.0,16.0,,20 / 21,,4702,2021-05-01 19:21:02:800
0.010503,-0.011891,9.738658,-2.54E-4,0.001588,9.806649,0.001239,0.00379,0.002059,1.5,-14.58,-24.66,189.0876,0.1861,-0.9455,55.81385,37.500183,188.9535,NaN,0.0,16.0,,20 / 21,,4711,2021-05-01 19:21:02:809
0.010446,0.002658,9.741138,-4.96E-4,0.00146,9.80665,0.002461,0.005622,0.002059,1.62,-14.88,-25.14,189.0876,0.1861,-0.9455,55.81385,37.500183,188.9535,NaN,0.0,16.0,,20 / 21,,4721,2021-05-01 19:21:02:819
0.010446,0.002658,9.741138,-4.96E-4,0.00146,9.80665,6.29E-4,0.004401,0.004502,1.62,-14.88,-25.14,189.0876,0.1861,-0.9455,55.81385,37.500183,188.9535,NaN,0.0,16.0,,20 / 21,,4732,2021-05-01 19:21:02:830
0.002881,0.018495,9.717403,2.47E-4,6.72E-4,9.80665,0.003683,0.003179,-3.85E-4,1.32,-15.54,-24.66,185.0247,0.1941,-0.9497,55.81385,37.500183,188.9535,NaN,0.0,16.0,,20 / 21,,4742,2021-05-01 19:21:02:840
0.010849,-0.026896,9.750576,2.47E-4,6.72E-4,9.80665,0.002461,-0.002319,0.002059,1.32,-15.54,-24.66,185.0247,0.1941,-0.9497,55.81385,37.500183,188.9535,NaN,0.0,16.0,,20 / 21,,4752,2021-05-01 19:21:02:850
0.008115,-0.026583,9.729071,5.63E-4,0.001046,9.80665,0.002461,-0.002319,0.002059,1.32,-15.42,-24.36,185.0247,0.1941,-0.9497,55.81385,37.500183,188.9535,NaN,0.0,16.0,,20 / 21,,4762,2021-05-01 19:21:02:860
0.017141,0.030471,9.681307,0.001033,5.88E-4,9.80665,6.29E-4,0.001957,0.005113,1.5,-15.48,-24.6,185.0247,0.1941,-0.9497,55.81385,37.500183,188.9535,NaN,0.0,16.0,,20 / 21,,4771,2021-05-01 19:21:02:869
0.017141,0.030471,9.681307,0.001033,5.88E-4,9.80665,0.002461,0.001957,8.37E-4,1.5,-15.48,-24.6,185.0247,0.1941,-0.9497,55.81385,37.500183,188.9535,NaN,0.0,16.0,,20 / 21,,4782,2021-05-01 19:21:02:880
-0.011515,0.006575,9.674473,5.37E-4,-0.001001,9.80665,0.003683,0.001957,0.001448,1.38,-16.08,-24.6,185.0154,0.198,-0.9439,55.81385,37.500183,188.9535,NaN,0.0,16.0,,20 / 21,,4791,2021-05-01 19:21:02:889
-0.022977,0.026177,9.662766,5.37E-4,-0.001001,9.80665,6.29E-4,0.001957,0.00328,1.38,-16.08,-24.6,185.0154,0.198,-0.9439,55.81385,37.500183,188.9535,NaN,0.0,16.0,,20 / 21,,4801,2021-05-01 19:21:02:899
-0.022977,0.026177,9.662766,0.001226,-0.002363,9.806651,0.004905,7.35E-4,0.003891,1.68,-15.54,-24.06,185.0154,0.198,-0.9439,55.81385,37.500183,188.9535,NaN,0.0,16.0,,20 / 21,,4811,2021-05-01 19:21:02:909
-0.004632,-0.013937,9.676642,0.001824,-0.003353,9.80665,0.003072,0.001957,0.002669,1.98,-15.0,-24.36,185.0154,0.198,-0.9439,55.81385,37.500183,188.9535,NaN,0.0,16.0,,20 / 21,,4822,2021-05-01 19:21:02:920
0.01632,-0.040149,9.774357,0.001824,-0.003353,9.80665,1.8E-5,-0.002319,-3.85E-4,1.98,-15.0,-24.36,185.0154,0.198,-0.9439,55.81385,37.500183,188.9535,NaN,0.0,16.0,,20 / 21,,4831,2021-05-01 19:21:02:929
0.024163,-0.011407,9.791097,9.16E-4,-0.001732,9.806652,0.00185,-0.002319,0.001448,1.44,-15.36,-25.44,185.3286,0.1794,-0.9316,55.81385,37.500183,188.9535,NaN,0.0,16.0,,20 / 21,,4841,2021-05-01 19:21:02:939
0.024163,-0.011407,9.791097,9.16E-4,-0.001732,9.806652,0.00185,-0.002319,0.001448,1.44,-15.36,-25.44,185.3286,0.1794,-0.9316,55.81385,37.500183,188.9535,NaN,0.0,16.0,,20 / 21,,4852,2021-05-01 19:21:02:950
-0.044934,0.014617,9.682163,0.001275,-0.002074,9.806651,6.29E-4,7.35E-4,0.006335,1.86,-15.9,-25.26,185.3286,0.1794,-0.9316,55.81385,37.500183,188.9535,NaN,0.0,16.0,,20 / 21,,4862,2021-05-01 19:21:02:960
-0.035304,0.021047,9.646122,0.002085,-0.002976,9.806651,6.29E-4,-0.001097,2.26E-4,1.86,-15.96,-24.48,185.3286,0.1794,-0.9316,55.81385,37.500183,188.9535,NaN,0.0,16.0,,20 / 21,,4871,2021-05-01 19:21:02:969
0.022342,-0.049584,9.75024,0.002085,-0.002976,9.806651,0.00185,0.002568,0.001448,1.86,-15.96,-24.48,185.3286,0.1794,-0.9316,55.81385,37.500183,188.9535,NaN,0.0,16.0,,20 / 21,,4882,2021-05-01 19:21:02:980
0.035898,0.009726,9.802938,7.76E-4,-0.001607,9.806651,0.003683,7.35E-4,0.00328,1.44,-15.9,-23.76,184.9241,0.1633,-0.9179,55.81385,37.500183,188.9535,NaN,0.0,16.0,,20 / 21,,4892,2021-05-01 19:21:02:990
0.035898,0.009726,9.802938,7.76E-4,-0.001607,9.806651,0.003072,0.002568,2.26E-4,1.44,-15.9,-23.76,184.9241,0.1633,-0.9179,55.81385,37.500183,188.9535,NaN,0.0,16.0,,20 / 21,,4901,2021-05-01 19:21:02:999
-0.023701,0.029496,9.727329,0.001301,-0.001833,9.806651,0.00185,0.001957,0.002669,1.92,-15.96,-24.36,184.9241,0.1633,-0.9179,55.81385,37.500183,188.9535,NaN,0.0,16.0,,20 / 21,,4912,2021-05-01 19:21:03:010
-0.026023,0.056096,9.739451,0.001671,-0.001855,9.806651,0.003072,0.004401,0.002059,2.04,-15.72,-24.18,184.9241,0.1633,-0.9179,55.81385,37.500183,188.9535,NaN,0.0,16.0,,20 / 21,,4922,2021-05-01 19:21:03:020
-0.014036,-0.004658,9.614489,0.001671,-0.001855,9.806651,0.002461,-4.86E-4,0.002669,2.04,-15.72,-24.18,184.9241,0.1633,-0.9179,55.81385,37.500183,188.9535,NaN,0.0,16.0,,20 / 21,,4932,2021-05-01 19:21:03:030
-0.014036,-0.004658,9.614489,5.7E-4,-2.3E-5,9.80665,6.29E-4,-0.00293,0.002059,2.04,-14.82,-24.6,189.0343,0.1533,-0.9072,55.81385,37.500183,188.9535,NaN,0.0,16.0,,20 / 21,,4941,2021-05-01 19:21:03:039
-3.54E-4,0.022582,9.583245,5.7E-4,-2.3E-5,9.80665,6.29E-4,-0.00293,0.002059,2.04,-14.82,-24.6,189.0343,0.1533,-0.9072,55.81385,37.500183,188.9535,NaN,0.0,16.0,,20 / 21,,4951,2021-05-01 19:21:03:049
0.019372,-0.080314,9.716514,0.001221,-2.9E-5,9.806651,0.001239,7.35E-4,0.002059,1.68,-14.94,-24.9,189.0343,0.1533,-0.9072,55.81385,37.500183,188.9535,NaN,0.0,16.0,,20 / 21,,4961,2021-05-01 19:21:03:059
-0.014836,0.05813,9.839869,0.001221,-2.9E-5,9.806651,0.004905,0.003179,0.001448,1.68,-14.94,-24.9,189.0343,0.1533,-0.9072,55.81385,37.500183,188.9535,NaN,0.0,16.0,,20 / 21,,4971,2021-05-01 19:21:03:069
-0.014836,0.05813,9.839869,8.35E-4,-0.001859,9.80665,6.29E-4,-0.007206,0.003891,1.56,-15.24,-25.08,189.0226,0.1542,-0.9001,55.81385,37.500183,188.9535,NaN,0.0,16.0,,20 / 21,,4981,2021-05-01 19:21:03:079
0.013272,0.041716,9.71482,8.35E-4,-0.001859,9.80665,-0.001204,-0.002319,0.003891,1.56,-15.24,-25.08,189.0226,0.1542,-0.9001,55.81385,37.500183,188.9535,NaN,0.0,16.0,,20 / 21,,4991,2021-05-01 19:21:03:089
0.017811,0.021947,9.587738,2.47E-4,-0.001882,9.806649,1.8E-5,-0.002319,0.003891,1.38,-15.48,-25.02,189.0226,0.1542,-0.9001,55.81385,37.500183,188.9535,NaN,0.0,16.0,,20 / 21,,5001,2021-05-01 19:21:03:099
0.017811,0.021947,9.587738,2.47E-4,-0.001882,9.806649,0.00185,0.002568,0.003891,1.38,-15.48,-25.02,189.0226,0.1542,-0.9001,55.81385,37.500183,188.9535,NaN,0.0,16.0,,20 / 21,,5011,2021-05-01 19:21:03:109
-6.91E-4,-0.01129,9.518404,-9.3E-4,0.001177,9.80665,0.003072,0.009288,0.002059,1.38,-15.36,-24.42,185.219,0.1436,-0.897,55.81385,37.500183,188.9535,NaN,0.0,16.0,,20 / 21,,5021,2021-05-01 19:21:03:119
0.082289,-0.109231,9.844803,-9.3E-4,0.001177,9.80665,-0.001204,-0.00293,0.004502,1.38,-15.36,-24.42,185.219,0.1436,-0.897,55.81385,37.500183,188.9535,NaN,0.0,16.0,,20 / 21,,5031,2021-05-01 19:21:03:129
-0.107958,0.125309,9.534955,-0.002068,0.004462,9.806648,0.004905,0.004401,2.26E-4,1.98,-15.24,-23.76,185.219,0.1436,-0.897,55.81385,37.500183,188.9535,NaN,0.0,16.0,,20 / 21,,5041,2021-05-01 19:21:03:139
-0.107958,0.125309,9.534955,-0.002068,0.004462,9.806648,0.00185,-0.001097,8.37E-4,1.98,-15.24,-23.76,185.219,0.1436,-0.897,55.81385,37.500183,188.9535,NaN,0.0,16.0,,20 / 21,,5052,2021-05-01 19:21:03:150
-0.070079,0.097495,9.658783,-8.23E-4,0.00275,9.80665,0.002461,0.001957,0.004502,1.86,-15.48,-23.88,188.9799,0.1685,-0.9114,55.81385,37.500183,188.9535,NaN,0.0,16.0,,20 / 21,,5061,2021-05-01 19:21:03:159
-0.042182,-0.068546,9.794141,-8.23E-4,0.00275,9.80665,0.00185,0.006233,8.37E-4,1.86,-15.48,-23.88,188.9799,0.1685,-0.9114,55.81385,37.500183,188.9535,NaN,0.0,16.0,,20 / 21,,5072,2021-05-01 19:21:03:170
-4.6E-5,0.063512,9.609825,-0.002379,0.004354,9.806648,0.003072,0.00379,0.00328,1.8,-15.36,-24.36,188.9799,0.1685,-0.9114,55.81385,37.500183,188.9535,NaN,0.0,16.0,,20 / 21,,5081,2021-05-01 19:21:03:179
-0.025442,0.054919,9.772998,-0.002379,0.004354,9.806648,6.29E-4,0.001957,0.00328,1.8,-15.36,-24.36,188.9799,0.1685,-0.9114,55.81385,37.500183,188.9535,NaN,0.0,16.0,,20 / 21,,5091,2021-05-01 19:21:03:189
-0.025442,0.054919,9.772998,-0.001028,3.8E-4,9.806651,6.29E-4,0.001957,0.00328,1.92,-15.18,-24.42,189.0017,0.1914,-0.9291,55.81385,37.500183,188.9535,NaN,0.0,16.0,,20 / 21,,5102,2021-05-01 19:21:03:200
0.014017,-0.083281,9.63039,-0.001028,3.8E-4,9.806651,0.002461,0.001346,0.002669,1.92,-15.18,-24.42,189.0017,0.1914,-0.9291,55.81385,37.500183,188.9535,NaN,0.0,16.0,,20 / 21,,5111,2021-05-01 19:21:03:209
0.026372,0.001244,9.862968,-0.002558,0.00279,9.806649,0.004905,0.002568,0.002059,1.8,-14.88,-24.24,189.0017,0.1914,-0.9291,55.81385,37.500183,188.9535,NaN,0.0,16.0,,20 / 21,,5122,2021-05-01 19:21:03:220
0.026372,0.001244,9.862968,-0.002558,0.00279,9.806649,6.29E-4,-0.002319,0.002669,1.8,-14.88,-24.24,189.0017,0.1914,-0.9291,55.81385,37.500183,188.9535,NaN,0.0,16.0,,20 / 21,,5132,2021-05-01 19:21:03:230
0.027249,-0.001076,9.791103,-4.68E-4,-9.9E-5,9.80665,6.29E-4,-0.001708,0.002669,1.92,-15.48,-24.06,189.0252,0.2052,-0.9464,55.81385,37.500183,188.9535,NaN,0.0,16.0,,20 / 21,,5141,2021-05-01 19:21:03:239
0.034861,-0.00923,9.709565,-4.68E-4,-9.9E-5,9.80665,0.002461,-0.00293,0.002059,1.92,-15.48,-24.06,189.0252,0.2052,-0.9464,55.81385,37.500183,188.9535,NaN,0.0,16.0,,20 / 21,,5152,2021-05-01 19:21:03:250
0.007702,0.040874,9.784534,-0.001102,0.001274,9.80665,0.003072,0.002568,0.003891,1.8,-16.2,-24.36,189.0252,0.2052,-0.9464,55.81385,37.500183,188.9535,NaN,0.0,16.0,,20 / 21,,5162,2021-05-01 19:21:03:260
0.007702,0.040874,9.784534,-0.001102,0.001274,9.80665,0.002461,-0.001708,0.001448,1.8,-16.2,-24.36,189.0252,0.2052,-0.9464,55.81385,37.500183,188.9535,NaN,0.0,16.0,,20 / 21,,5171,2021-05-01 19:21:03:269
-0.014646,-0.044963,9.698153,-6.46E-4,2.59E-4,9.806652,0.003072,0.001346,0.004502,1.14,-16.08,-24.78,185.029,0.2115,-0.9539,55.81385,37.500183,188.9535,NaN,0.0,16.0,,20 / 21,,5181,2021-05-01 19:21:03:279
0.014538,0.005829,9.755489,-6.82E-4,9.53E-4,9.806652,0.003072,0.001346,0.004502,1.56,-16.02,-24.6,185.029,0.2115,-0.9539,55.81385,37.500183,188.9535,NaN,0.0,16.0,,20 / 21,,5192,2021-05-01 19:21:03:290
0.005932,0.01863,9.748512,-6.82E-4,9.53E-4,9.806652,0.002461,0.001957,0.003891,1.56,-16.02,-24.6,185.029,0.2115,-0.9539,55.81385,37.500183,188.9535,NaN,0.0,16.0,,20 / 21,,5201,2021-05-01 19:21:03:299
0.005932,0.01863,9.748512,-8.91E-4,9.78E-4,9.806652,-5.93E-4,-4.86E-4,0.002059,1.98,-15.54,-24.54,185.029,0.2115,-0.9539,55.81385,37.500183,188.9535,NaN,0.0,16.0,,20 / 21,,5211,2021-05-01 19:21:03:309
0.005783,0.026031,9.70066,-8.91E-4,9.78E-4,9.806652,1.8E-5,-0.001097,0.002059,1.98,-15.54,-24.54,185.029,0.2115,-0.9539,55.81385,37.500183,188.9535,NaN,0.0,16.0,,20 / 21,,5222,2021-05-01 19:21:03:320
-0.017362,-0.021451,9.707932,-1.38E-4,9.8E-5,9.80665,0.00185,1.25E-4,0.001448,2.52,-15.3,-24.66,192.7601,0.2168,-0.9596,55.81385,37.500183,188.9535,NaN,0.0,16.0,,20 / 21,,5231,2021-05-01 19:21:03:329
0.01896,0.007055,9.731526,-1.38E-4,9.8E-5,9.80665,6.29E-4,-4.86E-4,8.37E-4,2.52,-15.3,-24.66,192.7601,0.2168,-0.9596,55.81385,37.500183,188.9535,NaN,0.0,16.0,,20 / 21,,5241,2021-05-01 19:21:03:339
0.01896,0.007055,9.731526,2.36E-4,-4.5E-4,9.806651,6.29E-4,-4.86E-4,8.37E-4,2.52,-15.6,-24.72,192.7601,0.2168,-0.9596,55.81385,37.500183,188.9535,NaN,0.0,16.0,,20 / 21,,5251,2021-05-01 19:21:03:349
0.006877,0.009893,9.705394,5.58E-4,-7.48E-4,9.806651,6.29E-4,-0.003541,0.002059,2.22,-15.6,-24.66,192.7601,0.2168,-0.9596,55.81385,37.500183,188.9535,NaN,0.0,16.0,,20 / 21,,5261,2021-05-01 19:21:03:359
-0.00823,-0.038406,9.748375,5.58E-4,-7.48E-4,9.806651,0.003072,0.001957,0.002669,2.22,-15.6,-24.66,192.7601,0.2168,-0.9596,55.81385,37.500183,188.9535,NaN,0.0,16.0,,20 / 21,,5272,2021-05-01 19:21:03:370
-0.011955,-0.022522,9.698276,-9.8E-5,-8.78E-4,9.80665,6.29E-4,7.35E-4,0.00328,1.86,-15.48,-23.52,189.0373,0.2132,-0.9555,55.81385,37.500183,188.9535,NaN,0.0,16.0,,20 / 21,,5281,2021-05-01 19:21:03:379
-0.002583,0.031576,9.743965,-9.8E-5,-8.78E-4,9.80665,0.003072,0.001957,0.003891,1.86,-15.48,-23.52,189.0373,0.2132,-0.9555,55.81385,37.500183,188.9535,NaN,0.0,16.0,,20 / 21,,5292,2021-05-01 19:21:03:390
-0.002583,0.031576,9.743965,-3.87E-4,-0.002528,9.80665,6.29E-4,0.001957,0.001448,1.38,-15.3,-23.76,189.0373,0.2132,-0.9555,55.81385,37.500183,188.9535,NaN,0.0,16.0,,20 / 21,,5301,2021-05-01 19:21:03:399
0.018144,-0.01515,9.688266,-3.87E-4,-0.002528,9.80665,-5.93E-4,-0.004151,-9.96E-4,1.38,-15.3,-23.76,189.0373,0.2132,-0.9555,55.81385,37.500183,188.9535,NaN,0.0,16.0,,20 / 21,,5312,2021-05-01 19:21:03:410
0.005571,-0.054581,9.745688,5.74E-4,-0.001563,9.806651,-0.001815,0.003179,8.37E-4,1.74,-15.0,-24.96,189.1005,0.1983,-0.9554,55.81385,37.500183,188.9535,NaN,0.0,16.0,,20 / 21,,5321,2021-05-01 19:21:03:419
0.005571,-0.054581,9.745688,5.74E-4,-0.001563,9.806651,0.001239,-0.002319,0.005113,1.74,-15.0,-24.96,189.1005,0.1983,-0.9554,55.81385,37.500183,188.9535,NaN,0.0,16.0,,20 / 21,,5331,2021-05-01 19:21:03:429
0.0018,0.00206,9.707783,0.001741,-0.003401,9.806649,0.001239,-0.002319,8.37E-4,2.16,-15.48,-25.08,189.1005,0.1983,-0.9554,55.81385,37.500183,188.9535,NaN,0.0,16.0,,20 / 21,,5342,2021-05-01 19:21:03:440
0.030633,0.023889,9.77211,0.001741,-0.003401,9.806649,0.001239,-0.002319,8.37E-4,2.16,-15.48,-25.08,189.1005,0.1983,-0.9554,55.81385,37.500183,188.9535,NaN,0.0,16.0,,20 / 21,,5351,2021-05-01 19:21:03:449
0.012534,-0.055546,9.740788,0.001743,-0.001441,9.806651,1.8E-5,-0.00293,0.002669,1.8,-16.14,-25.08,188.5275,0.1803,-0.9422,55.81385,37.500183,188.9535,NaN,0.0,16.0,,20 / 21,,5361,2021-05-01 19:21:03:459
0.032504,-0.009277,9.755078,0.001743,-0.001441,9.806651,0.003072,0.001957,0.00328,1.8,-16.14,-25.08,188.5275,0.1803,-0.9422,55.81385,37.500183,188.9535,NaN,0.0,16.0,,20 / 21,,5372,2021-05-01 19:21:03:470
0.032504,-0.009277,9.755078,0.003416,-0.003109,9.80665,0.00185,0.001346,0.001448,2.16,-15.6,-24.9,188.5275,0.1803,-0.9422,55.81385,37.500183,188.9535,NaN,0.0,16.0,,20 / 21,,5381,2021-05-01 19:21:03:479
0.009369,0.01853,9.71489,0.003416,-0.003109,9.80665,0.002461,1.25E-4,0.002059,2.16,-15.6,-24.9,188.5275,0.1803,-0.9422,55.81385,37.500183,188.9535,NaN,0.0,16.0,,20 / 21,,5391,2021-05-01 19:21:03:489
0.008308,0.028396,9.707778,4.87E-4,-5.52E-4,9.80665,0.001239,-0.003541,0.003891,2.28,-15.36,-24.54,189.0515,0.1653,-0.9198,55.81385,37.500183,188.9535,NaN,0.0,16.0,,20 / 21,,5401,2021-05-01 19:21:03:499
0.01646,-0.026315,9.771941,4.87E-4,-5.52E-4,9.80665,0.002461,-0.001097,0.00328,2.28,-15.36,-24.54,189.0515,0.1653,-0.9198,55.81385,37.500183,188.9535,NaN,0.0,16.0,,20 / 21,,5412,2021-05-01 19:21:03:510
0.005569,0.01428,9.748382,0.002032,-3.56E-4,9.80665,6.29E-4,0.001957,0.001448,2.4,-15.54,-24.6,189.0515,0.1653,-0.9198,55.81385,37.500183,188.9535,NaN,0.0,16.0,,20 / 21,,5421,2021-05-01 19:21:03:519
0.005569,0.01428,9.748382,0.002032,-3.56E-4,9.80665,-0.001815,-0.004151,2.26E-4,2.4,-15.54,-24.6,189.0515,0.1653,-0.9198,55.81385,37.500183,188.9535,NaN,0.0,16.0,,20 / 21,,5432,2021-05-01 19:21:03:530
-0.012481,0.058524,9.696217,1.76E-4,7.96E-4,9.806651,-5.93E-4,-0.00293,0.002059,2.28,-15.54,-24.42,188.4248,0.1651,-0.9077,55.81385,37.500183,188.9535,NaN,0.0,16.0,,20 / 21,,5441,2021-05-01 19:21:03:539
-0.016929,-0.042885,9.76755,1.76E-4,7.96E-4,9.806651,-5.93E-4,-0.00293,0.002059,2.28,-15.54,-24.42,188.4248,0.1651,-0.9077,55.81385,37.500183,188.9535,NaN,0.0,16.0,,20 / 21,,5452,2021-05-01 19:21:03:550
0.011517,-0.013183,9.757691,9.45E-4,9.56E-4,9.80665,1.8E-5,-0.004151,8.37E-4,1.98,-15.06,-24.9,188.4248,0.1651,-0.9077,55.81385,37.500183,188.9535,NaN,0.0,16.0,,20 / 21,,5462,2021-05-01 19:21:03:560
-0.019482,0.042325,9.727323,9.45E-4,9.56E-4,9.80665,0.001239,0.001346,0.00328,1.98,-15.06,-24.9,188.4248,0.1651,-0.9077,55.81385,37.500183,188.9535,NaN,0.0,16.0,,20 / 21,,5472,2021-05-01 19:21:03:570
-0.019482,0.042325,9.727323,6.11E-4,-1.11E-4,9.80665,0.002461,-0.001097,0.00328,1.86,-14.94,-25.32,189.023,0.1714,-0.9031,55.81385,37.500183,188.9535,NaN,0.0,16.0,,20 / 21,,5481,2021-05-01 19:21:03:579
-0.03055,0.009441,9.688995,6.11E-4,-1.11E-4,9.80665,0.001239,0.001957,0.002059,1.86,-14.94,-25.32,189.023,0.1714,-0.9031,55.81385,37.500183,188.9535,NaN,0.0,16.0,,20 / 21,,5492,2021-05-01 19:21:03:590
0.016038,-0.012813,9.79114,7.6E-4,0.001097,9.80665,-0.001815,-0.00293,-3.85E-4,1.68,-15.18,-24.84,189.023,0.1714,-0.9031,55.81385,37.500183,188.9535,NaN,0.0,16.0,,20 / 21,,5501,2021-05-01 19:21:03:599
0.022008,9.88E-4,9.724075,7.6E-4,0.001097,9.80665,1.8E-5,-0.00293,8.37E-4,1.68,-15.18,-24.84,189.023,0.1714,-0.9031,55.81385,37.500183,188.9535,NaN,0.0,16.0,,20 / 21,,5512,2021-05-01 19:21:03:610
0.022008,9.88E-4,9.724075,1.13E-4,9.58E-4,9.806651,0.006126,0.006844,0.003891,1.92,-15.36,-24.78,189.0157,0.1784,-0.8997,55.81385,37.500183,188.9535,NaN,0.0,16.0,,20 / 21,,5521,2021-05-01 19:21:03:619
-0.015729,0.030125,9.688881,1.13E-4,9.58E-4,9.806651,0.004294,0.002568,0.003891,1.92,-15.36,-24.78,189.0157,0.1784,-0.8997,55.81385,37.500183,188.9535,NaN,0.0,16.0,,20 / 21,,5532,2021-05-01 19:21:03:630
-0.022312,-0.029526,9.717384,3.79E-4,0.001769,9.80665,0.002461,0.001957,0.003891,2.28,-15.18,-25.26,189.0157,0.1784,-0.8997,55.81385,37.500183,188.9535,NaN,0.0,16.0,,20 / 21,,5541,2021-05-01 19:21:03:639
-0.022312,-0.029526,9.717384,3.79E-4,0.001769,9.80665,0.001239,-4.86E-4,0.002059,2.28,-15.18,-25.26,189.0157,0.1784,-0.8997,55.81385,37.500183,188.9535,NaN,0.0,16.0,,20 / 21,,5552,2021-05-01 19:21:03:650
0.013045,-0.025596,9.76716,-8.2E-4,6.21E-4,9.806651,1.8E-5,7.35E-4,0.004502,1.8,-15.54,-25.14,188.4601,0.189,-0.8991,55.81385,37.500183,188.9535,NaN,0.0,16.0,,20 / 21,,5561,2021-05-01 19:21:03:659
0.021001,0.01278,9.748103,-8.2E-4,6.21E-4,9.806651,0.002461,0.001957,0.00328,1.8,-15.54,-25.14,188.4601,0.189,-0.8991,55.81385,37.500183,188.9535,NaN,0.0,16.0,,20 / 21,,5571,2021-05-01 19:21:03:669
-0.010361,0.032039,9.727129,-0.0015,0.001458,9.80665,0.002461,0.001957,0.00328,1.2,-16.2,-24.9,188.4601,0.189,-0.8991,55.81385,37.500183,188.9535,NaN,0.0,16.0,,20 / 21,,5581,2021-05-01 19:21:03:679
-0.014374,-0.061823,9.743429,-0.002228,0.002527,9.80665,0.004905,0.00379,0.002059,1.26,-15.96,-25.26,188.4601,0.189,-0.8991,55.81385,37.500183,188.9535,NaN,0.0,16.0,,20 / 21,,5591,2021-05-01 19:21:03:689
-0.014374,-0.061823,9.743429,-0.002228,0.002527,9.80665,-0.003037,-4.86E-4,0.002669,1.26,-15.96,-25.26,188.4601,0.189,-0.8991,55.81385,37.500183,188.9535,NaN,0.0,16.0,,20 / 21,,5601,2021-05-01 19:21:03:699
0.029098,0.057256,9.841617,-9.09E-4,0.001097,9.806649,6.29E-4,0.004401,2.26E-4,2.04,-15.6,-25.08,188.4801,0.2017,-0.9142,55.81385,37.500183,188.9535,NaN,0.0,16.0,,20 / 21,,5611,2021-05-01 19:21:03:709
0.029098,0.057256,9.841617,-9.09E-4,0.001097,9.806649,6.29E-4,0.004401,2.26E-4,2.04,-15.6,-25.08,188.4801,0.2017,-0.9142,55.81385,37.500183,188.9535,NaN,0.0,16.0,,20 / 21,,5621,2021-05-01 19:21:03:719
-0.010204,0.073723,9.641222,-0.001553,0.001235,9.806649,-0.003037,-0.006595,-9.96E-4,2.34,-15.48,-24.84,188.4801,0.2017,-0.9142,55.81385,37.500187,187.5819,NaN,0.0,16.0,,20 / 21,,5631,2021-05-01 19:21:03:729
0.023834,0.034504,9.712312,-0.003097,0.00385,9.806648,-5.93E-4,7.35E-4,0.002059,2.34,-15.24,-24.84,188.4801,0.2017,-0.9142,55.81385,37.500187,187.5819,NaN,0.0,16.0,,20 / 21,,5641,2021-05-01 19:21:03:739
7.7E-5,0.023597,9.69106,-0.003097,0.00385,9.806648,0.003683,0.005012,0.001448,2.34,-15.24,-24.84,188.4801,0.2017,-0.9142,55.81385,37.500187,187.5819,NaN,0.0,16.0,,20 / 21,,5651,2021-05-01 19:21:03:749
0.023206,-0.06836,9.797965,6.3E-5,0.001044,9.806651,0.002461,-0.002319,0.002669,1.98,-15.66,-25.14,188.5078,0.2213,-0.9354,55.81385,37.500187,187.5819,NaN,0.0,16.0,,20 / 21,,5661,2021-05-01 19:21:03:759
0.023206,-0.06836,9.797965,6.3E-5,0.001044,9.806651,0.001239,1.25E-4,0.002669,1.98,-15.66,-25.14,188.5078,0.2213,-0.9354,55.81385,37.500187,187.5819,NaN,0.0,16.0,,20 / 21,,5671,2021-05-01 19:21:03:769
-0.007517,0.054446,9.904571,-1.5E-4,6.69E-4,9.806651,-0.001815,0.001346,0.00328,1.14,-15.54,-25.02,188.5078,0.2213,-0.9354,55.81385,37.500187,187.5819,NaN,0.0,16.0,,20 / 21,,5682,2021-05-01 19:21:03:780
-0.034511,0.127211,9.66359,-1.5E-4,6.69E-4,9.806651,0.001239,1.25E-4,2.26E-4,1.14,-15.54,-25.02,188.5078,0.2213,-0.9354,55.81385,37.500187,187.5819,NaN,0.0,16.0,,20 / 21,,5691,2021-05-01 19:21:03:789
-0.064931,0.013867,9.586746,7.39E-4,-9.7E-5,9.80665,0.001239,1.25E-4,0.005113,0.84,-15.06,-24.12,185.2701,0.225,-0.9369,55.81385,37.500187,187.5819,NaN,0.0,16.0,,20 / 21,,5701,2021-05-01 19:21:03:799
0.051977,-0.123024,9.859525,7.39E-4,-9.7E-5,9.80665,0.003072,7.35E-4,0.00328,0.84,-15.06,-24.12,185.2701,0.225,-0.9369,55.81385,37.500187,187.5819,NaN,0.0,16.0,,20 / 21,,5711,2021-05-01 19:21:03:809
0.051977,-0.123024,9.859525,7.95E-4,2.24E-4,9.80665,-0.001815,-0.005373,-9.96E-4,1.56,-15.18,-24.66,185.2701,0.225,-0.9369,55.81385,37.500187,187.5819,NaN,0.0,16.0,,20 / 21,,5721,2021-05-01 19:21:03:819
0.032115,0.102955,9.724571,7.95E-4,2.24E-4,9.80665,6.29E-4,-4.86E-4,8.37E-4,1.56,-15.18,-24.66,185.2701,0.225,-0.9369,55.81385,37.500187,187.5819,NaN,0.0,16.0,,20 / 21,,5731,2021-05-01 19:21:03:829
-0.033541,0.011562,9.780184,9.04E-4,5.29E-4,9.806649,-0.001815,-0.002319,-9.96E-4,1.74,-15.66,-24.84,188.5009,0.2286,-0.9319,55.81385,37.500187,187.5819,NaN,0.0,16.0,,20 / 21,,5742,2021-05-01 19:21:03:840
