ACCELEROMETER X (m/s²),ACCELEROMETER Y (m/s²),ACCELEROMETER Z (m/s²),GRAVITY X (m/s²),GRAVITY Y (m/s²),GRAVITY Z (m/s²),GYROSCOPE X (rad/s),GYROSCOPE Y (rad/s),GYROSCOPE Z (rad/s),MAGNETIC FIELD X (μT),MAGNETIC FIELD Y (μT),MAGNETIC FIELD Z (μT),ORIENTATION Z (azimuth °),ORIENTATION X (pitch °),ORIENTATION Y (roll °),LOCATION Latitude : ,LOCATION Longitude : ,LOCATION Altitude ( m),LOCATION Altitude-google ( m),LOCATION Speed ( m/s),LOCATION Accuracy ( m),LOCATION ORIENTATION (°),Satellites in range,GPS NMEA,Time since start in ms ,YYYY-MO-DD HH-MI-SS_SSS
0.090982,-0.069434,9.732727,0.085544,-0.037312,9.806206,8.52E-4,-0.001709,-6.64E-4,2.22,-17.58,-23.94,186.9612,0.2182,-0.4989,55.81396,37.50024,211.491,NaN,0.0,6.0,,20 / 24,,33,2021-05-01 19:30:38:752
0.069434,-0.021548,9.732727,0.085667,-0.036498,9.806208,2.41E-4,-0.002319,-0.002497,2.64,-17.7,-24.66,186.9612,0.2182,-0.4989,55.81396,37.50024,211.491,NaN,0.0,6.0,,20 / 24,,42,2021-05-01 19:30:38:761
0.095771,-0.057463,9.797373,0.085667,-0.036498,9.806208,-9.8E-4,-0.003541,-5.3E-5,2.64,-17.7,-24.66,186.9612,0.2182,-0.4989,55.81396,37.50024,211.491,NaN,0.0,6.0,,20 / 24,,52,2021-05-01 19:30:38:771
0.095771,-0.057463,9.797373,0.086054,-0.03621,9.806206,-9.8E-4,7.35E-4,0.001779,3.12,-17.64,-24.6,190.0861,0.2132,-0.5005,55.81396,37.50024,211.491,NaN,0.0,6.0,,20 / 24,,62,2021-05-01 19:30:38:781
0.088588,-0.026337,9.75667,0.086054,-0.03621,9.806206,-3.7E-4,1.24E-4,-5.3E-5,3.12,-17.64,-24.6,190.0861,0.2132,-0.5005,55.81396,37.50024,211.491,NaN,0.0,6.0,,20 / 24,,73,2021-05-01 19:30:38:792
0.0838,-0.021548,9.742304,0.085589,-0.03675,9.806208,-9.8E-4,1.24E-4,-6.64E-4,3.6,-17.88,-24.36,190.0861,0.2132,-0.5005,55.81396,37.50024,211.491,NaN,0.0,6.0,,20 / 24,,82,2021-05-01 19:30:38:801
0.0838,-0.021548,9.742304,0.085589,-0.03675,9.806208,-3.7E-4,-0.001098,-0.002497,3.6,-17.88,-24.36,190.0861,0.2132,-0.5005,55.81396,37.50024,211.491,NaN,0.0,6.0,,20 / 24,,92,2021-05-01 19:30:38:811
0.095771,-0.026337,9.759064,0.08569,-0.036875,9.806207,-0.002813,-0.002319,-0.001886,3.72,-18.0,-24.42,193.0991,0.2147,-0.5001,55.81396,37.50024,211.491,NaN,0.0,6.0,,18 / 23,,102,2021-05-01 19:30:38:821
0.095771,-0.026337,9.759064,0.08569,-0.036875,9.806207,-0.002813,-0.002319,-0.001886,3.72,-18.0,-24.42,193.0991,0.2147,-0.5001,55.81396,37.50024,211.491,NaN,0.0,6.0,,18 / 23,,112,2021-05-01 19:30:38:831
0.098165,-0.040703,9.761458,0.085308,-0.03703,9.806209,-0.001591,7.35E-4,-5.3E-5,3.72,-18.06,-24.42,193.0991,0.2147,-0.5001,55.81396,37.50024,211.491,NaN,0.0,6.0,,18 / 23,,123,2021-05-01 19:30:38:842
0.079011,-0.031126,9.744699,0.0854,-0.037464,9.806207,-0.001591,7.35E-4,-0.001275,3.0,-18.18,-24.48,193.0991,0.2147,-0.5001,55.81396,37.50024,211.491,NaN,0.0,6.0,,18 / 23,,133,2021-05-01 19:30:38:852
0.064645,-0.038308,9.785401,0.0854,-0.037464,9.806207,8.52E-4,-4.87E-4,-0.002497,3.0,-18.18,-24.48,193.0991,0.2147,-0.5001,55.81396,37.50024,211.491,NaN,0.0,6.0,,18 / 23,,142,2021-05-01 19:30:38:861
0.064645,-0.038308,9.785401,0.085562,-0.037345,9.806206,-0.002202,-0.001709,-0.003107,2.34,-18.0,-24.66,186.9869,0.2189,-0.499,55.81396,37.50024,211.491,NaN,0.0,6.0,,18 / 23,,152,2021-05-01 19:30:38:871
0.071828,-0.043097,9.785401,0.085562,-0.037345,9.806206,-9.8E-4,7.35E-4,-5.3E-5,2.34,-18.0,-24.66,186.9869,0.2189,-0.499,55.81396,37.50024,211.491,NaN,0.0,6.0,,18 / 23,,162,2021-05-01 19:30:38:881
0.0838,-0.03352,9.732727,0.085666,-0.037663,9.806204,-3.7E-4,-0.001098,5.58E-4,3.12,-17.58,-24.06,186.9869,0.2189,-0.499,55.81396,37.50024,211.491,NaN,0.0,6.0,,18 / 23,,173,2021-05-01 19:30:38:892
0.107742,-0.035914,9.749487,0.085666,-0.037663,9.806204,-3.7E-4,0.003178,-5.3E-5,3.12,-17.58,-24.06,186.9869,0.2189,-0.499,55.81396,37.50024,211.491,NaN,0.0,6.0,,18 / 23,,182,2021-05-01 19:30:38:901
0.098165,-0.040703,9.780613,0.085457,-0.03791,9.806205,-9.8E-4,0.001346,-0.001275,3.42,-17.88,-24.0,190.0597,0.22,-0.5005,55.81396,37.50024,211.491,NaN,0.0,6.0,,18 / 23,,192,2021-05-01 19:30:38:911
0.088588,-0.045491,9.751882,0.085457,-0.03791,9.806205,2.41E-4,-0.001709,0.001779,3.42,-17.88,-24.0,190.0597,0.22,-0.5005,55.81396,37.50024,211.491,NaN,0.0,6.0,,18 / 23,,202,2021-05-01 19:30:38:921
0.06704,-0.035914,9.759064,0.085429,-0.037986,9.806205,-9.8E-4,1.24E-4,-0.001275,3.12,-18.12,-24.24,190.0597,0.22,-0.5005,55.81396,37.50024,211.491,NaN,0.0,6.0,,18 / 23,,212,2021-05-01 19:30:38:931
0.06704,-0.035914,9.759064,0.085429,-0.037986,9.806205,-3.7E-4,-0.001709,-6.64E-4,3.12,-18.12,-24.24,190.0597,0.22,-0.5005,55.81396,37.50024,211.491,NaN,0.0,6.0,,18 / 23,,222,2021-05-01 19:30:38:941
0.0838,-0.028731,9.75667,0.086311,-0.03784,9.806197,0.001463,0.001957,-0.001275,3.06,-18.12,-24.24,190.0575,0.2219,-0.4991,55.81396,37.50024,211.491,NaN,0.0,6.0,,18 / 23,,232,2021-05-01 19:30:38:951
0.090982,-0.035914,9.747093,0.086311,-0.03784,9.806197,0.002074,0.001346,-6.64E-4,3.06,-18.12,-24.24,190.0575,0.2219,-0.4991,55.81396,37.50024,211.491,NaN,0.0,6.0,,18 / 23,,243,2021-05-01 19:30:38:962
0.090982,-0.035914,9.747093,0.086367,-0.036884,9.8062,0.002074,0.001346,-6.64E-4,2.94,-18.06,-24.18,190.0575,0.2219,-0.4991,55.81396,37.50024,211.491,NaN,0.0,6.0,,18 / 23,,252,2021-05-01 19:30:38:971
0.071828,-0.040703,9.73991,0.086367,-0.036884,9.8062,-3.7E-4,0.001957,-0.001275,2.94,-18.06,-24.18,190.0575,0.2219,-0.4991,55.81396,37.50024,211.491,NaN,0.0,6.0,,18 / 23,,263,2021-05-01 19:30:38:982
0.076617,-0.038308,9.715967,0.086349,-0.036893,9.8062,-3.7E-4,7.35E-4,-0.002497,2.52,-18.12,-23.88,190.066,0.2155,-0.5046,55.81396,37.50024,211.491,NaN,0.0,6.0,,18 / 23,,272,2021-05-01 19:30:38:991
0.071828,-0.038308,9.759064,0.086349,-0.036893,9.8062,-3.7E-4,0.002567,-6.64E-4,2.52,-18.12,-23.88,190.066,0.2155,-0.5046,55.81396,37.50024,211.491,NaN,0.0,6.0,,18 / 23,,282,2021-05-01 19:30:39:001
0.088588,-0.045491,9.730332,0.086014,-0.03696,9.806203,2.41E-4,-0.002319,-6.64E-4,2.64,-17.88,-23.7,190.066,0.2155,-0.5046,55.81396,37.50024,211.491,NaN,0.0,6.0,,18 / 23,,293,2021-05-01 19:30:39:012
0.088588,-0.045491,9.730332,0.086014,-0.03696,9.806203,-0.002202,-0.002319,-0.001886,2.64,-17.88,-23.7,190.066,0.2155,-0.5046,55.81396,37.50024,211.491,NaN,0.0,6.0,,18 / 23,,302,2021-05-01 19:30:39:021
0.107742,-0.035914,9.759064,0.086474,-0.037157,9.806198,0.002074,-0.001098,-5.3E-5,3.18,-17.88,-23.4,190.0384,0.2159,-0.5026,55.81396,37.50024,211.491,NaN,0.0,6.0,,18 / 23,,312,2021-05-01 19:30:39:031
0.088588,-0.035914,9.759064,0.086474,-0.037157,9.806198,0.001463,7.35E-4,5.58E-4,3.18,-17.88,-23.4,190.0384,0.2159,-0.5026,55.81396,37.50024,211.491,NaN,0.0,6.0,,18 / 23,,323,2021-05-01 19:30:39:042
0.088588,-0.035914,9.759064,0.086686,-0.037101,9.806196,-0.001591,-4.87E-4,0.001169,3.36,-18.06,-24.06,190.0384,0.2159,-0.5026,55.81396,37.50024,211.491,NaN,0.0,6.0,,18 / 23,,332,2021-05-01 19:30:39:051
0.086194,-0.03352,9.763853,0.086686,-0.037101,9.806196,-0.003424,0.002567,-6.64E-4,3.36,-18.06,-24.06,190.0384,0.2159,-0.5026,55.81396,37.50024,211.491,NaN,0.0,6.0,,18 / 23,,343,2021-05-01 19:30:39:062
0.059857,-0.035914,9.744699,0.086315,-0.037188,9.806199,2.41E-4,-0.002319,-6.64E-4,3.54,-18.06,-24.96,193.1305,0.2168,-0.5065,55.81396,37.50024,211.491,NaN,0.0,6.0,,18 / 23,,352,2021-05-01 19:30:39:071
0.079011,-0.03352,9.775824,0.086292,-0.03709,9.806201,8.52E-4,-0.001098,-6.64E-4,3.24,-18.3,-24.18,193.1305,0.2168,-0.5065,55.81396,37.50024,211.491,NaN,0.0,6.0,,18 / 23,,363,2021-05-01 19:30:39:082
0.081405,-0.043097,9.747093,0.086292,-0.03709,9.806201,8.52E-4,-0.001098,-6.64E-4,3.24,-18.3,-24.18,193.1305,0.2168,-0.5065,55.81396,37.50024,211.491,NaN,0.0,6.0,,18 / 23,,372,2021-05-01 19:30:39:091
0.081405,-0.043097,9.747093,0.085512,-0.036759,9.806209,2.41E-4,7.35E-4,-0.001275,3.0,-18.78,-24.24,193.1305,0.2168,-0.5065,55.81396,37.50024,211.491,NaN,0.0,6.0,,18 / 23,,382,2021-05-01 19:30:39:101
0.064645,-0.035914,9.742304,0.085512,-0.036759,9.806209,-3.7E-4,-0.00293,-0.001275,3.0,-18.78,-24.24,193.1305,0.2168,-0.5065,55.81396,37.50024,211.491,NaN,0.0,6.0,,18 / 23,,392,2021-05-01 19:30:39:111
0.086194,-0.052674,9.735122,0.084446,-0.036883,9.806217,0.001463,-0.001098,-6.64E-4,3.18,-19.02,-24.3,189.5427,0.2148,-0.4996,55.81396,37.50024,211.491,NaN,0.0,6.0,,18 / 23,,402,2021-05-01 19:30:39:121
0.086194,-0.035914,9.754275,0.084446,-0.036883,9.806217,-3.7E-4,0.001957,0.001169,3.18,-19.02,-24.3,189.5427,0.2148,-0.4996,55.81396,37.50024,211.491,NaN,0.0,6.0,,18 / 23,,412,2021-05-01 19:30:39:131
0.086194,-0.035914,9.754275,0.083492,-0.037389,9.806224,8.52E-4,-0.002319,0.001169,2.7,-18.6,-24.0,189.5427,0.2148,-0.4996,55.81396,37.50024,211.491,NaN,0.0,6.0,,18 / 23,,423,2021-05-01 19:30:39:142
0.081405,-0.040703,9.763853,0.083492,-0.037389,9.806224,-3.7E-4,-0.003541,-0.002497,2.7,-18.6,-24.0,189.5427,0.2148,-0.4996,55.81396,37.50024,211.491,NaN,0.0,6.0,,18 / 23,,432,2021-05-01 19:30:39:151
0.090982,-0.038308,9.727939,0.08316,-0.037608,9.806226,-9.8E-4,1.24E-4,0.00239,2.46,-18.36,-23.58,186.9467,0.2184,-0.4878,55.81396,37.50024,211.491,NaN,0.0,6.0,,18 / 23,,443,2021-05-01 19:30:39:162
0.081405,-0.047885,9.77343,0.08316,-0.037608,9.806226,0.001463,7.35E-4,-6.64E-4,2.46,-18.36,-23.58,186.9467,0.2184,-0.4878,55.81396,37.50024,211.491,NaN,0.0,6.0,,18 / 23,,452,2021-05-01 19:30:39:171
0.081405,-0.047885,9.77343,0.082886,-0.03767,9.806228,2.41E-4,-0.001709,-0.002497,2.94,-18.36,-23.82,186.9467,0.2184,-0.4878,55.81396,37.50024,211.491,NaN,0.0,6.0,,18 / 23,,462,2021-05-01 19:30:39:181
0.090982,-0.03352,9.766247,0.082886,-0.03767,9.806228,8.52E-4,0.001346,-0.001886,2.94,-18.36,-23.82,186.9467,0.2184,-0.4878,55.81396,37.50024,211.491,NaN,0.0,6.0,,18 / 23,,473,2021-05-01 19:30:39:192
0.086194,-0.047885,9.754275,0.083099,-0.037852,9.806225,-9.8E-4,-4.87E-4,-0.001275,3.54,-18.24,-24.66,193.1004,0.2201,-0.4843,55.81396,37.50024,211.491,NaN,0.0,6.0,,18 / 23,,482,2021-05-01 19:30:39:201
0.088588,-0.045491,9.73991,0.083099,-0.037852,9.806225,0.002685,0.002567,-0.001275,3.54,-18.24,-24.66,193.1004,0.2201,-0.4843,55.81396,37.50024,211.491,NaN,0.0,6.0,,18 / 23,,493,2021-05-01 19:30:39:212
0.088588,-0.045491,9.73991,0.083089,-0.037359,9.806227,0.002685,0.002567,-0.001275,3.42,-18.78,-24.6,193.1004,0.2201,-0.4843,55.81396,37.50024,211.491,NaN,0.0,6.0,,18 / 23,,502,2021-05-01 19:30:39:221
0.088588,-0.026337,9.754275,0.083135,-0.037273,9.806227,8.52E-4,0.003178,-6.64E-4,3.3,-19.08,-24.42,193.1004,0.2201,-0.4843,55.81396,37.50024,211.491,NaN,0.0,6.0,,18 / 23,,513,2021-05-01 19:30:39:232
0.0838,-0.038308,9.763853,0.083135,-0.037273,9.806227,8.52E-4,0.003178,-6.64E-4,3.3,-19.08,-24.42,193.1004,0.2201,-0.4843,55.81396,37.50024,211.491,NaN,0.0,6.0,,18 / 23,,522,2021-05-01 19:30:39:241
0.076617,-0.040703,9.730332,0.082886,-0.036265,9.806232,-9.8E-4,7.35E-4,-6.64E-4,2.88,-18.66,-24.12,189.5252,0.2178,-0.4857,55.81396,37.50024,211.491,NaN,0.0,6.0,,18 / 23,,533,2021-05-01 19:30:39:252
0.076617,-0.040703,9.730332,0.082886,-0.036265,9.806232,8.52E-4,-0.001709,0.001169,2.88,-18.66,-24.12,189.5252,0.2178,-0.4857,55.81396,37.50024,211.491,NaN,0.0,6.0,,18 / 23,,542,2021-05-01 19:30:39:261
0.086194,-0.035914,9.761458,0.08288,-0.035879,9.806234,0.002074,0.002567,0.001169,2.64,-18.0,-24.18,189.5252,0.2178,-0.4857,55.81396,37.50024,211.491,NaN,0.0,6.0,,18 / 23,,553,2021-05-01 19:30:39:272
0.079011,-0.038308,9.768641,0.082632,-0.03567,9.806237,-0.001591,-0.001709,-0.002497,2.64,-18.0,-24.18,189.5252,0.2178,-0.4857,55.81396,37.50024,211.491,NaN,0.0,6.0,,18 / 23,,562,2021-05-01 19:30:39:281
0.079011,-0.038308,9.768641,0.082632,-0.03567,9.806237,-3.7E-4,-0.001709,5.58E-4,2.4,-18.18,-24.36,186.9418,0.2084,-0.4828,55.81396,37.50024,211.491,NaN,0.0,6.0,,18 / 23,,572,2021-05-01 19:30:39:291
0.074223,-0.035914,9.735122,0.082978,-0.035856,9.806234,0.002074,1.24E-4,-0.001275,2.4,-18.18,-24.36,186.9418,0.2084,-0.4828,55.81396,37.50024,211.491,NaN,0.0,6.0,,18 / 23,,583,2021-05-01 19:30:39:302
0.098165,-0.055068,9.751882,0.082978,-0.035856,9.806234,0.002074,0.001346,0.001169,2.52,-19.08,-24.3,186.9418,0.2084,-0.4828,55.81396,37.50024,211.491,NaN,0.0,6.0,,18 / 23,,592,2021-05-01 19:30:39:311
0.10056,-0.014366,9.747093,0.08301,-0.035926,9.806233,-0.001591,-0.004763,-0.001275,2.52,-19.08,-24.3,186.9418,0.2084,-0.4828,55.81396,37.50024,211.491,NaN,0.0,6.0,,18 / 23,,602,2021-05-01 19:30:39:321
0.081405,-0.040703,9.747093,0.08301,-0.035926,9.806233,0.002074,0.001346,-0.001275,3.18,-19.02,-24.54,189.5488,0.2099,-0.485,55.81396,37.50024,211.491,NaN,0.0,6.0,,18 / 23,,612,2021-05-01 19:30:39:331
0.081405,-0.040703,9.747093,0.082737,-0.035946,9.806235,0.001463,1.24E-4,-5.3E-5,3.18,-19.02,-24.54,189.5488,0.2099,-0.485,55.81396,37.50024,211.491,NaN,0.0,6.0,,18 / 23,,622,2021-05-01 19:30:39:341
0.069434,-0.043097,9.759064,0.082737,-0.035946,9.806235,2.41E-4,0.003178,-0.003107,3.78,-19.26,-24.6,189.5488,0.2099,-0.485,55.81396,37.50024,211.491,NaN,0.0,6.0,,18 / 23,,632,2021-05-01 19:30:39:351
0.0838,-0.03352,9.718362,0.082662,-0.036391,9.806234,-9.8E-4,-0.001709,0.001779,3.78,-19.26,-24.6,189.5488,0.2099,-0.485,55.81396,37.50024,211.491,NaN,0.0,6.0,,18 / 23,,643,2021-05-01 19:30:39:362
0.0838,-0.03352,9.718362,0.082662,-0.036391,9.806234,-9.8E-4,-0.001709,0.001779,3.3,-19.8,-24.24,189.0569,0.2126,-0.483,55.81396,37.50024,211.491,NaN,0.0,6.0,,18 / 23,,652,2021-05-01 19:30:39:371
0.071828,-0.040703,9.77343,0.082219,-0.035989,9.80624,2.41E-4,-0.001709,0.001169,3.3,-19.8,-24.24,189.0569,0.2126,-0.483,55.81396,37.50024,211.491,NaN,0.0,6.0,,18 / 23,,663,2021-05-01 19:30:39:382
0.074223,-0.038308,9.73991,0.082219,-0.035989,9.80624,8.52E-4,7.35E-4,0.001779,3.0,-19.5,-24.24,189.0569,0.2126,-0.483,55.81396,37.50024,211.491,NaN,0.0,6.0,,18 / 23,,672,2021-05-01 19:30:39:391
0.098165,-0.047885,9.778218,0.081473,-0.034844,9.806251,-3.7E-4,-0.005374,-6.64E-4,3.0,-19.5,-24.24,189.0569,0.2126,-0.483,55.81396,37.50024,211.491,NaN,0.0,6.0,,18 / 23,,682,2021-05-01 19:30:39:401
0.076617,-0.055068,9.780613,0.081473,-0.034844,9.806251,0.002074,0.002567,-0.001275,3.24,-19.2,-23.94,189.5162,0.2036,-0.476,55.81396,37.50024,211.491,NaN,0.0,6.0,,18 / 23,,693,2021-05-01 19:30:39:412
0.071828,-0.03352,9.751882,0.081264,-0.03453,9.806252,0.001463,0.003789,-6.64E-4,3.24,-19.2,-23.94,189.5162,0.2036,-0.476,55.81396,37.50024,211.491,NaN,0.0,6.0,,18 / 23,,702,2021-05-01 19:30:39:421
0.071828,-0.03352,9.751882,0.081264,-0.03453,9.806252,0.002685,0.001346,-5.3E-5,3.54,-18.66,-24.84,189.5162,0.2036,-0.476,55.81396,37.50024,211.491,NaN,0.0,6.0,,18 / 23,,713,2021-05-01 19:30:39:432
0.093377,-0.023943,9.727939,0.081111,-0.034664,9.806253,-3.7E-4,-0.001709,-0.001275,3.54,-18.66,-24.84,189.5162,0.2036,-0.476,55.81396,37.50024,211.491,NaN,0.0,6.0,,18 / 23,,722,2021-05-01 19:30:39:441
0.088588,-0.052674,9.749487,0.081111,-0.034664,9.806253,-9.8E-4,1.24E-4,-6.64E-4,3.96,-18.66,-25.02,192.4282,0.2025,-0.4739,55.81396,37.50024,211.491,NaN,0.0,6.0,,18 / 23,,733,2021-05-01 19:30:39:452
0.0838,-0.040703,9.725544,0.081645,-0.034979,9.806248,-9.8E-4,1.24E-4,-6.64E-4,3.96,-18.66,-25.02,192.4282,0.2025,-0.4739,55.81396,37.50024,211.491,NaN,0.0,6.0,,18 / 23,,742,2021-05-01 19:30:39:461
0.0838,-0.043097,9.684841,0.081645,-0.034979,9.806248,-3.7E-4,-0.002319,5.58E-4,4.44,-18.84,-24.42,192.4282,0.2025,-0.4739,55.81396,37.50024,211.491,NaN,0.0,6.0,,18 / 23,,752,2021-05-01 19:30:39:471
0.0838,-0.043097,9.684841,0.082628,-0.036404,9.806234,0.002685,0.001957,-0.003107,4.44,-18.84,-24.42,192.4282,0.2025,-0.4739,55.81396,37.50024,211.491,NaN,0.0,6.0,,18 / 23,,762,2021-05-01 19:30:39:481
0.107742,0.0,9.644139,0.082628,-0.036404,9.806234,-0.001591,-0.002319,-6.64E-4,4.26,-18.66,-24.42,192.4147,0.2127,-0.4828,55.81396,37.50024,211.491,NaN,0.0,6.0,,18 / 23,,772,2021-05-01 19:30:39:491
0.059857,-0.021548,9.871595,0.083396,-0.038533,9.80622,-9.8E-4,1.24E-4,-6.64E-4,4.26,-18.66,-24.42,192.4147,0.2127,-0.4828,55.81396,37.50024,211.491,NaN,0.0,6.0,,18 / 23,,783,2021-05-01 19:30:39:502
0.059857,-0.021548,9.871595,0.083396,-0.038533,9.80622,8.52E-4,1.24E-4,0.001169,4.2,-18.72,-24.48,192.4147,0.2127,-0.4828,55.81396,37.50024,211.491,NaN,0.0,6.0,,18 / 23,,793,2021-05-01 19:30:39:512
0.064645,0.031126,9.744699,0.083006,-0.039792,9.806218,0.003296,-0.001098,0.00239,4.2,-18.72,-24.48,192.4147,0.2127,-0.4828,55.81396,37.50024,211.491,NaN,0.0,6.0,,18 / 23,,802,2021-05-01 19:30:39:521
0.069434,0.011971,9.720756,0.083006,-0.039792,9.806218,-0.002202,-0.00293,-0.005551,4.26,-18.54,-24.6,192.4338,0.2325,-0.485,55.81396,37.50024,211.491,NaN,0.0,6.0,,18 / 23,,812,2021-05-01 19:30:39:531
0.069434,0.011971,9.720756,0.084097,-0.040239,9.806207,-0.002202,0.001957,0.001169,4.26,-18.54,-24.6,192.4338,0.2325,-0.485,55.81396,37.50024,211.491,NaN,0.0,6.0,,18 / 23,,822,2021-05-01 19:30:39:541
0.088588,0.014366,9.553157,0.084097,-0.040239,9.806207,2.41E-4,0.005011,-6.64E-4,4.62,-18.0,-24.78,192.4338,0.2325,-0.485,55.81396,37.50024,211.491,NaN,0.0,6.0,,18 / 23,,832,2021-05-01 19:30:39:551
0.059857,0.043097,9.663293,0.085938,-0.042304,9.806183,0.001463,-0.00293,-0.001275,4.62,-18.0,-24.78,192.4338,0.2325,-0.485,55.81396,37.50024,211.491,NaN,0.0,6.0,,18 / 23,,843,2021-05-01 19:30:39:562
0.035914,0.05028,9.670476,0.085938,-0.042304,9.806183,0.001463,-0.00293,-0.001275,5.46,-18.3,-24.9,196.0779,0.2472,-0.5021,55.81396,37.50024,211.491,NaN,0.0,6.0,,18 / 23,,852,2021-05-01 19:30:39:571
0.03352,-0.047885,9.873989,0.085976,-0.041358,9.806186,0.003296,-0.002319,0.001169,5.46,-18.3,-24.9,196.0779,0.2472,-0.5021,55.81396,37.50024,211.491,NaN,0.0,6.0,,18 / 23,,862,2021-05-01 19:30:39:581
0.03352,-0.117319,9.878778,0.085976,-0.041358,9.806186,0.001463,-0.002319,5.58E-4,5.34,-18.54,-24.54,196.0779,0.2472,-0.5021,55.81396,37.50024,211.491,NaN,0.0,6.0,,18 / 23,,873,2021-05-01 19:30:39:592
0.102954,-0.117319,9.878778,0.087165,-0.0415,9.806175,0.001463,1.24E-4,5.58E-4,4.98,-18.54,-24.48,196.0779,0.2472,-0.5021,55.81396,37.50024,211.491,NaN,0.0,6.0,,18 / 23,,882,2021-05-01 19:30:39:601
0.150839,-0.117319,9.761458,0.087165,-0.0415,9.806175,-3.7E-4,0.002567,-0.001886,4.98,-18.54,-24.48,196.0779,0.2472,-0.5021,55.81396,37.50024,211.491,NaN,0.0,6.0,,18 / 23,,892,2021-05-01 19:30:39:611
0.134079,-0.088588,9.754275,0.087298,-0.040899,9.806176,8.52E-4,-4.87E-4,-0.001275,4.74,-17.82,-24.18,196.0663,0.2425,-0.5093,55.81396,37.50024,211.491,NaN,0.0,6.0,,18 / 23,,902,2021-05-01 19:30:39:621
0.102954,-0.043097,9.617802,0.087298,-0.040899,9.806176,-3.7E-4,0.0044,-0.001275,4.74,-17.82,-24.18,196.0663,0.2425,-0.5093,55.81396,37.50024,211.491,NaN,0.0,6.0,,18 / 23,,912,2021-05-01 19:30:39:631
0.102954,-0.043097,9.617802,0.087379,-0.039154,9.806183,-9.8E-4,0.001957,-0.001275,5.1,-17.7,-24.12,196.0663,0.2425,-0.5093,55.81396,37.50024,211.491,NaN,0.0,6.0,,18 / 23,,922,2021-05-01 19:30:39:641
0.057463,0.045491,9.725544,0.087669,-0.038609,9.806182,0.002074,-0.00293,-5.3E-5,5.88,-17.7,-24.24,196.0663,0.2425,-0.5093,55.81396,37.50024,211.491,NaN,0.0,6.0,,18 / 23,,932,2021-05-01 19:30:39:651
0.01676,0.038308,9.727939,0.087669,-0.038609,9.806182,8.52E-4,1.24E-4,5.58E-4,5.88,-17.7,-24.24,196.0663,0.2425,-0.5093,55.81396,37.50024,211.491,NaN,0.0,6.0,,18 / 23,,943,2021-05-01 19:30:39:662
0.062251,-0.052674,9.840469,0.087668,-0.037486,9.806187,-0.002813,-4.87E-4,-0.001886,5.58,-17.16,-24.42,199.978,0.2256,-0.5122,55.81396,37.50024,211.491,NaN,0.0,6.0,,18 / 23,,952,2021-05-01 19:30:39:671
0.059857,-0.055068,9.90272,0.087668,-0.037486,9.806187,8.52E-4,0.002567,-0.002497,5.58,-17.16,-24.42,199.978,0.2256,-0.5122,55.81396,37.50024,211.491,NaN,0.0,6.0,,18 / 23,,962,2021-05-01 19:30:39:681
0.059857,-0.055068,9.90272,0.087285,-0.036561,9.806193,8.52E-4,-0.002319,-6.64E-4,5.46,-17.28,-25.2,199.978,0.2256,-0.5122,55.81396,37.50024,211.491,NaN,0.0,6.0,,18 / 23,,972,2021-05-01 19:30:39:691
0.107742,-0.10056,9.821315,0.086937,-0.035339,9.806201,-3.7E-4,7.35E-4,5.58E-4,5.46,-17.28,-25.2,199.978,0.2256,-0.5122,55.81396,37.50024,211.491,NaN,0.0,6.0,,18 / 23,,983,2021-05-01 19:30:39:702
0.105348,-0.093377,9.838076,0.086937,-0.035339,9.806201,2.41E-4,0.001346,0.001169,6.42,-17.16,-25.08,200.0036,0.2065,-0.5079,55.81396,37.50024,211.491,NaN,0.0,6.0,,18 / 23,,992,2021-05-01 19:30:39:711
0.102954,-0.095771,9.692024,0.08579,-0.034399,9.806214,-3.7E-4,-4.87E-4,-5.3E-5,6.42,-17.16,-25.08,200.0036,0.2065,-0.5079,55.81396,37.50024,211.491,NaN,0.0,6.0,,18 / 23,,1002,2021-05-01 19:30:39:721
0.102954,-0.095771,9.692024,0.08579,-0.034399,9.806214,-9.8E-4,1.24E-4,-0.001886,6.48,-16.68,-24.84,200.0036,0.2065,-0.5079,55.81396,37.50024,211.491,NaN,0.0,6.0,,18 / 23,,1012,2021-05-01 19:30:39:731
0.126897,-0.040703,9.725544,0.083935,-0.033699,9.806233,-0.003424,-4.87E-4,0.001779,6.48,-16.68,-24.84,200.0036,0.2065,-0.5079,55.81396,37.50024,211.491,NaN,0.0,6.0,,18 / 23,,1022,2021-05-01 19:30:39:741
0.081405,0.002394,9.660899,0.083458,-0.03407,9.806235,-9.8E-4,7.35E-4,-5.3E-5,6.24,-16.62,-24.96,199.9855,0.1969,-0.4904,55.81396,37.50024,211.491,NaN,0.0,6.0,,18 / 23,,1032,2021-05-01 19:30:39:751
0.081405,0.002394,9.660899,0.083458,-0.03407,9.806235,-9.8E-4,7.35E-4,-5.3E-5,6.24,-16.62,-24.96,199.9855,0.1969,-0.4904,55.81396,37.50024,211.491,NaN,0.0,6.0,,18 / 23,,1043,2021-05-01 19:30:39:762
0.107742,-0.031126,9.72315,0.083142,-0.034087,9.806238,-9.8E-4,7.35E-4,-5.3E-5,6.24,-16.5,-25.2,199.9855,0.1969,-0.4904,55.81396,37.50024,211.491,NaN,0.0,6.0,,18 / 23,,1052,2021-05-01 19:30:39:771
0.112531,-0.062251,9.763853,0.083142,-0.034087,9.806238,8.52E-4,-0.005985,0.003001,6.24,-16.5,-25.2,199.9855,0.1969,-0.4904,55.81396,37.50024,211.491,NaN,0.0,6.0,,17 / 22,,1062,2021-05-01 19:30:39:781
0.0838,-0.028731,9.763853,0.084688,-0.035707,9.80622,0.001463,-0.002319,-0.003107,5.88,-16.74,-25.26,199.9784,0.1992,-0.4858,55.81396,37.50024,211.491,NaN,0.0,6.0,,17 / 22,,1073,2021-05-01 19:30:39:792
0.0838,-0.028731,9.763853,0.084553,-0.035553,9.806221,-0.001591,-0.002319,-6.64E-4,5.76,-16.32,-25.2,199.9784,0.1992,-0.4858,55.81396,37.50024,211.491,NaN,0.0,6.0,,17 / 22,,1082,2021-05-01 19:30:39:801
0.086194,-0.040703,9.694419,0.084553,-0.035553,9.806221,0.001463,0.001957,-0.001886,5.76,-16.32,-25.2,199.9784,0.1992,-0.4858,55.81396,37.50024,211.491,NaN,0.0,6.0,,17 / 22,,1092,2021-05-01 19:30:39:811
0.074223,-0.007183,9.725544,0.084566,-0.037081,9.806215,-0.002202,1.24E-4,-6.64E-4,6.0,-16.14,-25.02,199.9784,0.1992,-0.4858,55.81396,37.50024,211.491,NaN,0.0,6.0,,17 / 22,,1102,2021-05-01 19:30:39:821
0.074223,-0.043097,9.77343,0.084566,-0.037081,9.806215,-0.001591,-0.001098,-0.002497,6.0,-16.14,-25.02,199.9784,0.1992,-0.4858,55.81396,37.50024,211.491,NaN,0.0,6.0,,17 / 22,,1112,2021-05-01 19:30:39:831
0.10056,-0.062251,9.785401,0.084393,-0.037872,9.806213,0.001463,0.001346,-0.001275,5.76,-15.78,-24.96,201.1159,0.2166,-0.4941,55.81396,37.50024,211.491,NaN,0.0,6.0,,17 / 22,,1122,2021-05-01 19:30:39:841
0.095771,-0.047885,9.75667,0.084703,-0.038636,9.806209,-3.7E-4,0.001346,-6.64E-4,5.82,-15.9,-25.68,201.1159,0.2166,-0.4941,55.81396,37.50024,211.491,NaN,0.0,6.0,,17 / 22,,1132,2021-05-01 19:30:39:851
0.095771,-0.047885,9.75667,0.084703,-0.038636,9.806209,-3.7E-4,0.001346,-6.64E-4,5.82,-15.9,-25.68,201.1159,0.2166,-0.4941,55.81396,37.50024,211.491,NaN,0.0,6.0,,17 / 22,,1142,2021-05-01 19:30:39:861
0.086194,-0.028731,9.754275,0.085302,-0.039136,9.806201,-9.8E-4,1.24E-4,-0.002497,6.24,-15.54,-25.38,201.1159,0.2166,-0.4941,55.81396,37.50024,211.491,NaN,0.0,6.0,,17 / 22,,1153,2021-05-01 19:30:39:872
0.081405,-0.040703,9.759064,0.085302,-0.039136,9.806201,2.41E-4,0.001346,-6.64E-4,6.24,-15.54,-25.38,201.1159,0.2166,-0.4941,55.81396,37.50024,211.491,NaN,0.0,6.0,,17 / 22,,1162,2021-05-01 19:30:39:881
0.069434,-0.019154,9.761458,0.085692,-0.039885,9.806195,-3.7E-4,0.003789,-6.64E-4,6.42,-15.36,-24.66,202.3796,0.2287,-0.4984,55.81396,37.50024,211.491,NaN,0.0,6.0,,17 / 22,,1172,2021-05-01 19:30:39:891
0.062251,-0.05028,9.72315,0.085322,-0.039926,9.806198,-9.8E-4,-0.001709,-5.3E-5,6.24,-15.42,-24.96,202.3796,0.2287,-0.4984,55.81396,37.50024,211.491,NaN,0.0,6.0,,17 / 22,,1182,2021-05-01 19:30:39:901
0.062251,-0.05028,9.72315,0.085322,-0.039926,9.806198,0.003296,0.002567,-6.64E-4,6.24,-15.42,-24.96,202.3796,0.2287,-0.4984,55.81396,37.50024,211.491,NaN,0.0,6.0,,17 / 22,,1192,2021-05-01 19:30:39:911
0.088588,-0.052674,9.749487,0.085371,-0.039471,9.806199,-0.002813,7.35E-4,-6.64E-4,5.58,-16.08,-25.32,202.3796,0.2287,-0.4984,55.81396,37.50024,211.491,NaN,0.0,6.0,,17 / 22,,1202,2021-05-01 19:30:39:921
0.069434,-0.026337,9.787795,0.085371,-0.039471,9.806199,-9.8E-4,0.001346,-0.001275,5.58,-16.08,-25.32,202.3796,0.2287,-0.4984,55.81396,37.50024,211.491,NaN,0.0,6.0,,17 / 22,,1212,2021-05-01 19:30:39:931
0.069434,-0.026337,9.787795,0.085629,-0.038489,9.806201,0.001463,0.0044,-0.001275,5.52,-15.78,-24.9,201.115,0.2306,-0.4988,55.81396,37.50024,211.491,NaN,0.0,6.0,,17 / 22,,1222,2021-05-01 19:30:39:941
0.098165,-0.040703,9.718362,0.08539,-0.038295,9.806204,-9.8E-4,1.24E-4,-6.64E-4,5.4,-15.24,-24.9,201.115,0.2306,-0.4988,55.81396,37.50024,211.491,NaN,0.0,6.0,,17 / 22,,1233,2021-05-01 19:30:39:952
0.098165,-0.052674,9.780613,0.08539,-0.038295,9.806204,-9.8E-4,1.24E-4,-6.64E-4,5.4,-15.24,-24.9,201.115,0.2306,-0.4988,55.81396,37.50024,211.491,NaN,0.0,6.0,,17 / 22,,1243,2021-05-01 19:30:39:962
0.081405,-0.05028,9.77343,0.086252,-0.038243,9.806196,2.41E-4,-0.001098,-6.64E-4,5.46,-15.18,-25.02,201.115,0.2306,-0.4988,55.81396,37.50024,211.491,NaN,0.0,6.0,,17 / 22,,1253,2021-05-01 19:30:39:972
0.090982,-0.031126,9.742304,0.086252,-0.038243,9.806196,-3.7E-4,-0.001709,0.001779,5.46,-15.18,-25.02,201.115,0.2306,-0.4988,55.81396,37.50024,211.491,NaN,0.0,6.0,,17 / 22,,1262,2021-05-01 19:30:39:981
0.090982,-0.031126,9.742304,0.086703,-0.038705,9.80619,8.52E-4,0.003178,-6.64E-4,5.4,-14.94,-25.5,199.0723,0.2234,-0.5039,55.81396,37.50024,211.491,NaN,0.0,6.0,,17 / 22,,1272,2021-05-01 19:30:39:991
0.093377,-0.045491,9.715967,0.086703,-0.038705,9.80619,-3.7E-4,1.24E-4,-5.3E-5,5.4,-14.94,-25.5,199.0723,0.2234,-0.5039,55.81396,37.50024,211.491,NaN,0.0,6.0,,17 / 22,,1282,2021-05-01 19:30:40:001
0.093377,-0.045491,9.715967,0.086454,-0.039662,9.806189,0.001463,-4.87E-4,-6.64E-4,4.8,-15.12,-25.08,199.0723,0.2234,-0.5039,55.81396,37.50024,211.491,NaN,0.0,6.0,,17 / 22,,1292,2021-05-01 19:30:40:011
0.0838,-0.026337,9.775824,0.086454,-0.039662,9.806189,8.52E-4,-0.002319,0.00239,4.8,-15.12,-25.08,199.0723,0.2234,-0.5039,55.81396,37.50024,211.491,NaN,0.0,6.0,,17 / 22,,1303,2021-05-01 19:30:40:022
0.0838,-0.026337,9.775824,0.086249,-0.039735,9.80619,8.52E-4,-0.002319,0.00239,4.38,-15.12,-24.48,195.5871,0.2317,-0.5051,55.81396,37.50024,211.491,NaN,0.0,6.0,,17 / 22,,1312,2021-05-01 19:30:40:031
0.093377,-0.052674,9.75667,0.086249,-0.039735,9.80619,2.41E-4,0.001957,-5.3E-5,4.38,-15.12,-24.48,195.5871,0.2317,-0.5051,55.81396,37.50024,211.491,NaN,0.0,6.0,,17 / 22,,1322,2021-05-01 19:30:40:041
0.088588,-0.040703,9.751882,0.086284,-0.040043,9.806189,2.41E-4,0.001957,-5.3E-5,4.02,-14.82,-24.78,195.5871,0.2317,-0.5051,55.81396,37.50024,211.491,NaN,0.0,6.0,,17 / 22,,1332,2021-05-01 19:30:40:051
0.088588,-0.040703,9.751882,0.086284,-0.040043,9.806189,-9.8E-4,-0.001709,0.001169,4.02,-14.82,-24.78,195.5871,0.2317,-0.5051,55.81396,37.50024,211.491,NaN,0.0,6.0,,17 / 22,,1342,2021-05-01 19:30:40:061
0.086194,-0.05028,9.718362,0.086037,-0.03979,9.806191,8.52E-4,-0.002319,-6.64E-4,5.22,-14.64,-25.08,199.0672,0.234,-0.5041,55.81396,37.50024,211.491,NaN,0.0,6.0,,17 / 22,,1353,2021-05-01 19:30:40:072
0.0838,-0.014366,9.751882,0.086037,-0.03979,9.806191,-0.001591,1.24E-4,-0.001275,5.22,-14.64,-25.08,199.0672,0.234,-0.5041,55.81396,37.50024,211.491,NaN,0.0,6.0,,17 / 22,,1362,2021-05-01 19:30:40:081
0.086194,-0.019154,9.766247,0.085364,-0.03889,9.806201,8.52E-4,-0.001098,0.00239,5.7,-14.7,-24.84,199.0672,0.234,-0.5041,55.81396,37.50024,211.491,NaN,0.0,6.0,,17 / 22,,1372,2021-05-01 19:30:40:091
0.069434,-0.040703,9.742304,0.085105,-0.038146,9.806207,0.001463,0.001346,0.001779,5.52,-14.52,-25.02,199.0672,0.234,-0.5041,55.81396,37.50024,211.491,NaN,0.0,6.0,,17 / 22,,1383,2021-05-01 19:30:40:102
0.069434,-0.040703,9.742304,0.085105,-0.038146,9.806207,8.52E-4,-0.001709,5.58E-4,5.52,-14.52,-25.02,199.0672,0.234,-0.5041,55.81396,37.50024,211.491,NaN,0.0,6.0,,17 / 22,,1392,2021-05-01 19:30:40:111
0.098165,-0.031126,9.747093,0.084478,-0.037442,9.806214,2.41E-4,-0.001098,-5.3E-5,4.68,-15.42,-25.26,199.0627,0.2229,-0.4972,55.81396,37.50024,211.491,NaN,0.0,6.0,,17 / 22,,1402,2021-05-01 19:30:40:121
0.102954,-0.01676,9.747093,0.084478,-0.037442,9.806214,-9.8E-4,-0.001098,-5.3E-5,4.68,-15.42,-25.26,199.0627,0.2229,-0.4972,55.81396,37.50024,211.491,NaN,0.0,6.0,,17 / 22,,1412,2021-05-01 19:30:40:131
0.102954,-0.01676,9.747093,0.085013,-0.037194,9.806211,-0.002813,-4.87E-4,5.58E-4,4.2,-15.78,-24.84,199.0627,0.2229,-0.4972,55.81396,37.50024,211.491,NaN,0.0,6.0,,17 / 22,,1422,2021-05-01 19:30:40:141
0.081405,-0.035914,9.725544,0.085013,-0.037194,9.806211,-9.8E-4,1.24E-4,-5.3E-5,4.2,-15.78,-24.84,199.0627,0.2229,-0.4972,55.81396,37.50024,211.491,NaN,0.0,6.0,,17 / 22,,1432,2021-05-01 19:30:40:151
0.088588,-0.023943,9.715967,0.085644,-0.036083,9.80621,-9.8E-4,1.24E-4,-5.3E-5,4.38,-15.42,-24.66,195.6074,0.2173,-0.4967,55.81396,37.50024,211.491,NaN,0.0,6.0,,17 / 22,,1443,2021-05-01 19:30:40:162
0.093377,-0.040703,9.749487,0.085644,-0.036083,9.80621,-3.7E-4,0.001957,0.001779,4.38,-15.42,-24.66,195.6074,0.2173,-0.4967,55.81396,37.50024,211.491,NaN,0.0,6.0,,17 / 22,,1452,2021-05-01 19:30:40:171
0.081405,-0.031126,9.780613,0.086184,-0.034774,9.80621,2.41E-4,0.001957,-6.64E-4,4.62,-15.72,-25.08,195.6074,0.2173,-0.4967,55.81396,37.50024,211.491,NaN,0.0,6.0,,17 / 22,,1462,2021-05-01 19:30:40:181
0.081405,-0.031126,9.780613,0.086184,-0.034774,9.80621,2.41E-4,0.003178,-0.001275,4.62,-15.72,-25.08,195.6074,0.2173,-0.4967,55.81396,37.50024,211.491,NaN,0.0,6.0,,17 / 22,,1473,2021-05-01 19:30:40:192
0.086194,-0.031126,9.768641,0.085471,-0.034023,9.806219,0.002074,-0.001709,-0.001275,4.56,-16.02,-24.96,197.9745,0.2032,-0.5035,55.81396,37.50024,211.491,NaN,0.0,6.0,,17 / 22,,1482,2021-05-01 19:30:40:201
0.088588,-0.043097,9.763853,0.085471,-0.034023,9.806219,8.52E-4,-0.001709,-5.3E-5,4.56,-16.02,-24.96,197.9745,0.2032,-0.5035,55.81396,37.50024,211.491,NaN,0.0,6.0,,17 / 22,,1492,2021-05-01 19:30:40:211
0.076617,-0.03352,9.744699,0.085263,-0.033665,9.806222,-0.001591,-0.004152,-5.3E-5,4.44,-15.78,-24.9,197.9745,0.2032,-0.5035,55.81396,37.50024,211.491,NaN,0.0,6.0,,17 / 22,,1502,2021-05-01 19:30:40:221
0.10056,-0.064645,9.692024,0.085263,-0.033665,9.806222,-3.7E-4,-0.00293,-0.001886,4.44,-15.78,-24.9,197.9745,0.2032,-0.5035,55.81396,37.50024,211.491,NaN,0.0,6.0,,17 / 22,,1512,2021-05-01 19:30:40:231
0.10056,-0.064645,9.692024,0.085435,-0.0338,9.806219,0.001463,-4.87E-4,0.001169,3.9,-15.9,-24.78,194.6908,0.1967,-0.4982,55.81396,37.50024,211.491,NaN,0.0,6.0,,17 / 22,,1523,2021-05-01 19:30:40:242
0.06704,-0.019154,9.735122,0.085531,-0.03382,9.806219,-9.8E-4,-0.002319,0.001779,3.72,-16.44,-24.66,194.6908,0.1967,-0.4982,55.81396,37.50024,211.491,NaN,0.0,6.0,,17 / 22,,1532,2021-05-01 19:30:40:251
0.064645,-0.038308,9.73991,0.085531,-0.03382,9.806219,2.41E-4,-4.87E-4,5.58E-4,3.72,-16.44,-24.66,194.6908,0.1967,-0.4982,55.81396,37.50024,211.491,NaN,0.0,6.0,,17 / 22,,1542,2021-05-01 19:30:40:261
0.064645,-0.038308,9.73991,0.085151,-0.033606,9.806223,0.002685,-0.002319,-5.3E-5,3.48,-16.02,-25.26,194.6908,0.1967,-0.4982,55.81396,37.50024,211.491,NaN,0.0,6.0,,17 / 22,,1553,2021-05-01 19:30:40:272
0.071828,-0.043097,9.742304,0.085151,-0.033606,9.806223,0.002685,-0.002319,-5.3E-5,3.48,-16.02,-25.26,194.6908,0.1967,-0.4982,55.81396,37.50024,211.491,NaN,0.0,6.0,,17 / 22,,1562,2021-05-01 19:30:40:281
0.095771,-0.045491,9.759064,0.08519,-0.033501,9.806223,-3.7E-4,-0.00293,-5.3E-5,3.78,-15.36,-25.08,195.6176,0.1963,-0.4975,55.81396,37.50024,211.491,NaN,0.0,6.0,,17 / 22,,1572,2021-05-01 19:30:40:291
0.079011,-0.021548,9.780613,0.085349,-0.033471,9.806222,-9.8E-4,-4.87E-4,-0.003107,3.96,-15.48,-25.08,195.6176,0.1963,-0.4975,55.81396,37.50024,211.491,NaN,0.0,6.0,,17 / 22,,1582,2021-05-01 19:30:40:301
0.079011,-0.021548,9.780613,0.085349,-0.033471,9.806222,-0.001591,-0.00293,-0.003718,3.96,-15.48,-25.08,195.6176,0.1963,-0.4975,55.81396,37.50024,211.491,NaN,0.0,6.0,,17 / 22,,1592,2021-05-01 19:30:40:311
0.076617,-0.05028,9.727939,0.085277,-0.033547,9.806222,-0.002202,0.001957,-5.3E-5,3.9,-15.06,-24.9,195.6176,0.1963,-0.4975,55.81396,37.50024,211.491,NaN,0.0,6.0,,17 / 22,,1603,2021-05-01 19:30:40:322
0.086194,-0.03352,9.744699,0.085277,-0.033547,9.806222,0.003296,0.003789,0.003612,3.9,-15.06,-24.9,195.6176,0.1963,-0.4975,55.81396,37.50024,211.491,NaN,0.0,6.0,,17 / 22,,1612,2021-05-01 19:30:40:331
0.086194,-0.03352,9.744699,0.084354,-0.032721,9.806232,0.001463,-4.87E-4,-0.003107,3.24,-15.66,-25.2,191.3107,0.196,-0.4982,55.81396,37.50024,211.491,NaN,0.0,6.0,,17 / 22,,1622,2021-05-01 19:30:40:341
0.088588,-0.052674,9.749487,0.083922,-0.032531,9.806237,-9.8E-4,-0.001709,5.58E-4,3.12,-16.02,-25.56,191.3107,0.196,-0.4982,55.81396,37.50024,211.491,NaN,0.0,6.0,,17 / 22,,1633,2021-05-01 19:30:40:352
0.086194,-0.021548,9.792584,0.083922,-0.032531,9.806237,0.001463,-0.001098,-5.3E-5,3.12,-16.02,-25.56,191.3107,0.196,-0.4982,55.81396,37.50024,211.491,NaN,0.0,6.0,,17 / 22,,1642,2021-05-01 19:30:40:361
0.086194,-0.021548,9.792584,0.083963,-0.03262,9.806236,2.41E-4,-4.87E-4,5.58E-4,3.42,-15.96,-25.44,191.3107,0.196,-0.4982,55.81396,37.50024,211.491,NaN,0.0,6.0,,17 / 22,,1652,2021-05-01 19:30:40:371
0.081405,-0.05028,9.732727,0.083963,-0.03262,9.806236,2.41E-4,-4.87E-4,5.58E-4,3.42,-15.96,-25.44,191.3107,0.196,-0.4982,55.81396,37.50024,211.491,NaN,0.0,6.0,,17 / 22,,1662,2021-05-01 19:30:40:381
0.0838,-0.026337,9.747093,0.08352,-0.033019,9.806239,2.41E-4,-0.001709,0.001779,3.72,-15.42,-25.14,195.6094,0.1906,-0.4906,55.81396,37.50024,211.491,NaN,0.0,6.0,,17 / 22,,1672,2021-05-01 19:30:40:391
0.105348,-0.021548,9.735122,0.083398,-0.032989,9.80624,0.001463,-0.001098,0.001169,3.84,-15.42,-24.96,195.6094,0.1906,-0.4906,55.81396,37.50024,211.491,NaN,0.0,6.0,,17 / 22,,1682,2021-05-01 19:30:40:401
0.090982,-0.023943,9.737515,0.083398,-0.032989,9.80624,-3.7E-4,1.24E-4,0.001779,3.84,-15.42,-24.96,195.6094,0.1906,-0.4906,55.81396,37.50024,211.491,NaN,0.0,6.0,,17 / 22,,1692,2021-05-01 19:30:40:411
0.076617,-0.021548,9.768641,0.083612,-0.032891,9.806238,0.001463,7.35E-4,0.001169,3.3,-15.9,-25.26,195.6094,0.1906,-0.4906,55.81396,37.50024,211.491,NaN,0.0,6.0,,17 / 22,,1703,2021-05-01 19:30:40:422
0.076617,-0.021548,9.768641,0.083612,-0.032891,9.806238,-9.8E-4,-0.001709,-0.003107,3.3,-15.9,-25.26,195.6094,0.1906,-0.4906,55.81396,37.50024,211.491,NaN,0.0,6.0,,17 / 22,,1712,2021-05-01 19:30:40:431
0.086194,-0.028731,9.761458,0.083819,-0.032729,9.806237,-9.8E-4,-0.001709,-0.003107,3.06,-15.54,-24.9,191.2973,0.1922,-0.4885,55.81396,37.50024,211.491,NaN,0.0,6.0,,17 / 22,,1722,2021-05-01 19:30:40:441
0.074223,-0.031126,9.766247,0.083741,-0.032701,9.806238,-3.7E-4,-4.87E-4,0.001779,3.42,-15.3,-24.72,191.2973,0.1922,-0.4885,55.81396,37.50024,211.491,NaN,0.0,6.0,,17 / 22,,1732,2021-05-01 19:30:40:451
0.074223,-0.031126,9.766247,0.083741,-0.032701,9.806238,0.001463,0.001346,5.58E-4,3.42,-15.3,-24.72,191.2973,0.1922,-0.4885,55.81396,37.50024,211.491,NaN,0.0,6.0,,17 / 22,,1743,2021-05-01 19:30:40:462
0.095771,-0.038308,9.730332,0.083048,-0.032134,9.806246,-3.7E-4,0.002567,0.001779,3.54,-15.36,-24.0,191.2973,0.1922,-0.4885,55.81396,37.50024,211.491,NaN,0.0,6.0,,17 / 22,,1752,2021-05-01 19:30:40:471
0.095771,-0.038308,9.730332,0.083048,-0.032134,9.806246,-3.7E-4,-0.001098,0.001779,3.54,-15.36,-24.0,191.2973,0.1922,-0.4885,55.81396,37.50024,211.491,NaN,0.0,6.0,,17 / 22,,1763,2021-05-01 19:30:40:482
0.071828,-0.028731,9.735122,0.083059,-0.032625,9.806245,8.52E-4,-0.001098,5.58E-4,3.54,-16.14,-24.12,194.65,0.1877,-0.4852,55.81396,37.50024,211.491,NaN,0.0,6.0,,17 / 22,,1772,2021-05-01 19:30:40:491
0.093377,-0.052674,9.737515,0.083168,-0.032531,9.806243,0.001463,-0.001098,0.001169,3.3,-16.26,-24.12,194.65,0.1877,-0.4852,55.81396,37.50024,211.491,NaN,0.0,6.0,,17 / 22,,1782,2021-05-01 19:30:40:501
0.071828,-0.031126,9.749487,0.083168,-0.032531,9.806243,0.001463,0.001346,-5.3E-5,3.3,-16.26,-24.12,194.65,0.1877,-0.4852,55.81396,37.50024,211.491,NaN,0.0,6.0,,17 / 22,,1792,2021-05-01 19:30:40:511
0.071828,-0.031126,9.749487,0.083195,-0.032778,9.806242,0.002685,0.001346,-5.3E-5,3.96,-15.96,-24.24,194.65,0.1877,-0.4852,55.81396,37.50024,211.491,NaN,0.0,6.0,,17 / 22,,1802,2021-05-01 19:30:40:521
0.0838,-0.031126,9.787795,0.083195,-0.032778,9.806242,2.41E-4,7.35E-4,5.58E-4,3.96,-15.96,-24.24,194.65,0.1877,-0.4852,55.81396,37.50024,211.491,NaN,0.0,6.0,,17 / 22,,1812,2021-05-01 19:30:40:531
0.0838,-0.043097,9.727939,0.082998,-0.033797,9.806241,2.41E-4,0.001957,-5.3E-5,3.12,-15.66,-24.12,191.2671,0.1915,-0.4861,55.81396,37.50024,211.491,NaN,0.0,6.0,,17 / 22,,1822,2021-05-01 19:30:40:541
0.081405,-0.03352,9.72315,0.082998,-0.033797,9.806241,2.41E-4,0.001957,-5.3E-5,3.12,-15.66,-24.12,191.2671,0.1915,-0.4861,55.81396,37.50024,211.491,NaN,0.0,6.0,,17 / 22,,1832,2021-05-01 19:30:40:551
0.088588,-0.038308,9.718362,0.083275,-0.033927,9.806237,-9.8E-4,-0.001098,-0.001886,3.18,-16.14,-24.54,191.2671,0.1915,-0.4861,55.81396,37.50024,211.491,NaN,0.0,6.0,,17 / 22,,1842,2021-05-01 19:30:40:561
0.088588,-0.038308,9.718362,0.083275,-0.033927,9.806237,-3.7E-4,7.35E-4,-6.64E-4,3.18,-16.14,-24.54,191.2671,0.1915,-0.4861,55.81396,37.50024,211.491,NaN,0.0,6.0,,17 / 22,,1853,2021-05-01 19:30:40:572
0.086194,-0.03352,9.768641,0.083998,-0.033809,9.806232,-3.7E-4,0.001957,-5.3E-5,3.18,-16.62,-24.78,190.6472,0.1982,-0.4865,55.81396,37.50024,211.491,NaN,0.0,6.0,,17 / 22,,1862,2021-05-01 19:30:40:581
0.090982,-0.023943,9.763853,0.083998,-0.033809,9.806232,-0.002202,1.24E-4,0.001779,3.18,-16.62,-24.78,190.6472,0.1982,-0.4865,55.81396,37.50024,211.491,NaN,0.0,6.0,,17 / 22,,1872,2021-05-01 19:30:40:591
0.10056,-0.040703,9.77343,0.083925,-0.033886,9.806232,-9.8E-4,-0.001709,-0.002497,2.7,-16.5,-25.02,190.6472,0.1982,-0.4865,55.81396,37.50024,211.491,NaN,0.0,6.0,,17 / 22,,1883,2021-05-01 19:30:40:602
0.086194,-0.03352,9.720756,0.083925,-0.033886,9.806232,8.52E-4,7.35E-4,-6.64E-4,2.7,-16.5,-25.02,190.6472,0.1982,-0.4865,55.81396,37.50024,211.491,NaN,0.0,6.0,,17 / 22,,1893,2021-05-01 19:30:40:612
0.086194,-0.03352,9.720756,0.083807,-0.033444,9.806235,-9.8E-4,-4.87E-4,0.00239,3.48,-15.9,-24.78,191.2983,0.198,-0.4903,55.81396,37.50024,211.491,NaN,0.0,6.0,,17 / 22,,1902,2021-05-01 19:30:40:621
0.088588,-0.045491,9.715967,0.083807,-0.033444,9.806235,-9.8E-4,-4.87E-4,0.00239,3.48,-15.9,-24.78,191.2983,0.198,-0.4903,55.81396,37.50024,211.491,NaN,0.0,6.0,,17 / 22,,1912,2021-05-01 19:30:40:631
0.090982,-0.026337,9.778218,0.084082,-0.033339,9.806232,2.41E-4,0.001346,-6.64E-4,3.84,-15.78,-24.96,191.2983,0.198,-0.4903,55.81396,37.50024,211.491,NaN,0.0,6.0,,17 / 22,,1922,2021-05-01 19:30:40:641
0.0838,-0.026337,9.759064,0.083767,-0.033312,9.806235,0.001463,-0.001098,-0.002497,3.84,-15.78,-24.96,191.2983,0.198,-0.4903,55.81396,37.50024,211.491,NaN,0.0,6.0,,17 / 22,,1932,2021-05-01 19:30:40:651
0.0838,-0.026337,9.759064,0.083767,-0.033312,9.806235,-0.001591,-4.87E-4,-6.64E-4,3.36,-16.44,-24.66,191.2979,0.1946,-0.4894,55.81396,37.50024,211.491,NaN,0.0,6.0,,17 / 22,,1943,2021-05-01 19:30:40:662
0.095771,-0.047885,9.751882,0.084854,-0.033932,9.806225,2.41E-4,7.35E-4,-0.001275,3.24,-16.44,-24.6,191.2979,0.1946,-0.4894,55.81396,37.50024,211.491,NaN,0.0,6.0,,17 / 22,,1953,2021-05-01 19:30:40:672
0.069434,0.0,9.787795,0.084854,-0.033932,9.806225,-9.8E-4,-0.002319,5.58E-4,3.24,-16.44,-24.6,191.2979,0.1946,-0.4894,55.81396,37.50024,211.491,NaN,0.0,6.0,,17 / 22,,1963,2021-05-01 19:30:40:682
0.069434,0.0,9.787795,0.085001,-0.034016,9.806223,-3.7E-4,-4.87E-4,0.001169,3.12,-16.26,-24.78,191.2979,0.1946,-0.4894,55.81396,37.50024,211.491,NaN,0.0,6.0,,17 / 22,,1972,2021-05-01 19:30:40:691
0.062251,-0.021548,9.75667,0.085001,-0.034016,9.806223,-3.7E-4,-4.87E-4,0.001169,3.12,-16.26,-24.78,191.2979,0.1946,-0.4894,55.81396,37.50024,211.491,NaN,0.0,6.0,,17 / 22,,1982,2021-05-01 19:30:40:701
0.074223,-0.045491,9.72315,0.083652,-0.033947,9.806234,-3.7E-4,-0.001098,-0.002497,2.76,-15.96,-24.54,191.3075,0.1987,-0.4966,55.81396,37.50024,211.491,NaN,0.0,6.0,,17 / 22,,1993,2021-05-01 19:30:40:712
0.095771,-0.047885,9.742304,0.083652,-0.033947,9.806234,-0.001591,-0.002319,0.001779,2.76,-15.96,-24.54,191.3075,0.1987,-0.4966,55.81396,37.50024,211.491,NaN,0.0,6.0,,17 / 22,,2002,2021-05-01 19:30:40:721
0.095771,-0.047885,9.742304,0.081917,-0.034164,9.806249,-9.8E-4,7.35E-4,-0.001886,3.24,-15.6,-24.36,191.3075,0.1987,-0.4966,55.81396,37.50024,211.491,NaN,0.0,6.0,,17 / 22,,2012,2021-05-01 19:30:40:731
0.071828,-0.03352,9.73991,0.081917,-0.034164,9.806249,2.41E-4,-0.001709,-6.64E-4,3.24,-15.6,-24.36,191.3075,0.1987,-0.4966,55.81396,37.50024,211.491,NaN,0.0,6.0,,17 / 22,,2022,2021-05-01 19:30:40:741
0.090982,-0.03352,9.768641,0.081544,-0.034335,9.806251,8.52E-4,-0.001098,5.58E-4,3.3,-16.2,-24.18,191.254,0.1996,-0.4786,55.81396,37.50024,211.491,NaN,0.0,6.0,,17 / 22,,2033,2021-05-01 19:30:40:752
0.10056,-0.028731,9.77343,0.081544,-0.034335,9.806251,-3.7E-4,7.35E-4,0.001169,3.3,-16.2,-24.18,191.254,0.1996,-0.4786,55.81396,37.50024,211.491,NaN,0.0,6.0,,17 / 22,,2042,2021-05-01 19:30:40:761
0.098165,-0.064645,9.754275,0.081571,-0.034302,9.806251,2.41E-4,-4.87E-4,-0.001886,2.88,-17.1,-24.54,191.254,0.1996,-0.4786,55.81396,37.50024,211.491,NaN,0.0,6.0,,17 / 22,,2052,2021-05-01 19:30:40:771
0.093377,-0.057463,9.744699,0.081571,-0.034302,9.806251,-9.8E-4,7.35E-4,-6.64E-4,2.88,-17.1,-24.54,191.254,0.1996,-0.4786,55.81396,37.50024,211.491,NaN,0.0,6.0,,17 / 24,,2063,2021-05-01 19:30:40:782
0.093377,-0.057463,9.744699,0.081711,-0.034041,9.806251,-9.8E-4,7.35E-4,-6.64E-4,3.24,-16.74,-24.96,190.6326,0.2004,-0.4766,55.81396,37.50024,211.491,NaN,0.0,6.0,,17 / 24,,2072,2021-05-01 19:30:40:791
0.076617,-0.026337,9.77343,0.081711,-0.034041,9.806251,0.001463,-4.87E-4,0.001169,3.24,-16.74,-24.96,190.6326,0.2004,-0.4766,55.81396,37.50024,211.491,NaN,0.0,6.0,,17 / 24,,2082,2021-05-01 19:30:40:801
0.074223,-0.028731,9.77343,0.081817,-0.033754,9.806251,2.41E-4,1.24E-4,-0.001275,3.66,-16.26,-24.9,190.6326,0.2004,-0.4766,55.81396,37.50024,211.491,NaN,0.0,6.0,,17 / 24,,2092,2021-05-01 19:30:40:811
0.079011,-0.01676,9.75667,0.081809,-0.033736,9.806251,2.41E-4,-0.00293,5.58E-4,3.54,-16.08,-25.02,190.6326,0.2004,-0.4766,55.81396,37.50024,211.491,NaN,0.0,6.0,,17 / 24,,2102,2021-05-01 19:30:40:821
0.079011,-0.01676,9.75667,0.081809,-0.033736,9.806251,8.52E-4,-4.87E-4,-5.3E-5,3.54,-16.08,-25.02,190.6326,0.2004,-0.4766,55.81396,37.50024,211.491,NaN,0.0,6.0,,17 / 24,,2113,2021-05-01 19:30:40:832
0.095771,-0.045491,9.759064,0.082252,-0.033574,9.806248,-3.7E-4,1.24E-4,-0.001886,3.18,-16.56,-25.2,190.6354,0.1971,-0.478,55.81396,37.50024,211.491,NaN,0.0,6.0,,17 / 24,,2122,2021-05-01 19:30:40:841
0.088588,-0.040703,9.751882,0.082252,-0.033574,9.806248,-0.002813,-4.87E-4,-0.001886,3.18,-16.56,-25.2,190.6354,0.1971,-0.478,55.81396,37.50024,211.491,NaN,0.0,6.0,,17 / 24,,2132,2021-05-01 19:30:40:851
0.090982,-0.043097,9.761458,0.082601,-0.033953,9.806243,-9.8E-4,-4.87E-4,0.00239,3.6,-16.5,-25.26,190.6354,0.1971,-0.478,55.81396,37.50024,211.491,NaN,0.0,6.0,,17 / 24,,2143,2021-05-01 19:30:40:862
0.090982,-0.043097,9.761458,0.082601,-0.033953,9.806243,-3.7E-4,-0.001709,-0.001886,3.6,-16.5,-25.26,190.6354,0.1971,-0.478,55.81396,37.50024,211.491,NaN,0.0,6.0,,17 / 24,,2152,2021-05-01 19:30:40:871
0.095771,-0.023943,9.783007,0.082766,-0.034027,9.806242,8.52E-4,-0.001098,-0.001275,3.54,-16.08,-24.96,194.6675,0.1984,-0.4826,55.81396,37.50024,211.491,NaN,0.0,6.0,,17 / 24,,2163,2021-05-01 19:30:40:882
0.0838,-0.035914,9.744699,0.082766,-0.034027,9.806242,8.52E-4,-0.001098,-0.001275,3.54,-16.08,-24.96,194.6675,0.1984,-0.4826,55.81396,37.50024,211.491,NaN,0.0,6.0,,17 / 24,,2172,2021-05-01 19:30:40:891
0.074223,-0.026337,9.747093,0.083451,-0.034573,9.806234,8.52E-4,-0.002319,-6.64E-4,3.6,-16.62,-24.12,194.6675,0.1984,-0.4826,55.81396,37.50024,211.491,NaN,0.0,6.0,,17 / 24,,2182,2021-05-01 19:30:40:901
0.074223,-0.026337,9.747093,0.083451,-0.034573,9.806234,0.001463,-0.001098,-6.64E-4,3.6,-16.62,-24.12,194.6675,0.1984,-0.4826,55.81396,37.50024,211.491,NaN,0.0,6.0,,17 / 24,,2193,2021-05-01 19:30:40:912
0.090982,-0.047885,9.794978,0.083697,-0.034589,9.806231,2.41E-4,-0.001709,0.003612,3.66,-17.16,-24.12,193.8245,0.202,-0.4876,55.81396,37.50024,211.491,NaN,0.0,6.0,,17 / 24,,2203,2021-05-01 19:30:40:922
0.081405,-0.035914,9.780613,0.083697,-0.034589,9.806231,2.41E-4,-0.001709,0.003612,3.66,-17.16,-24.12,193.8245,0.202,-0.4876,55.81396,37.50024,211.491,NaN,0.0,6.0,,17 / 24,,2212,2021-05-01 19:30:40:931
0.088588,-0.026337,9.766247,0.084101,-0.034857,9.806228,0.001463,7.35E-4,-0.001886,3.78,-16.86,-24.66,193.8245,0.202,-0.4876,55.81396,37.50024,211.491,NaN,0.0,6.0,,17 / 24,,2222,2021-05-01 19:30:40:941
0.088588,-0.026337,9.766247,0.084101,-0.034857,9.806228,0.002074,0.002567,0.001779,3.78,-16.86,-24.66,193.8245,0.202,-0.4876,55.81396,37.50024,211.491,NaN,0.0,6.0,,17 / 24,,2233,2021-05-01 19:30:40:952
0.0838,-0.047885,9.783007,0.083425,-0.034565,9.806234,2.41E-4,0.003178,-0.003718,4.02,-16.62,-24.96,193.8534,0.2037,-0.4914,55.81396,37.50024,211.491,NaN,0.0,6.0,,17 / 24,,2242,2021-05-01 19:30:40:961
0.074223,-0.05028,9.732727,0.08311,-0.034537,9.806237,8.52E-4,0.0044,-5.3E-5,4.2,-16.56,-24.66,193.8534,0.2037,-0.4914,55.81396,37.50024,211.491,NaN,0.0,6.0,,17 / 24,,2253,2021-05-01 19:30:40:972
0.074223,-0.05028,9.732727,0.08311,-0.034537,9.806237,0.001463,7.35E-4,-6.64E-4,4.2,-16.56,-24.66,193.8534,0.2037,-0.4914,55.81396,37.50024,211.491,NaN,0.0,6.0,,17 / 24,,2262,2021-05-01 19:30:40:981
0.0838,-0.03352,9.737515,0.082668,-0.034374,9.806241,-0.004646,0.001957,-0.003718,3.66,-16.62,-24.6,193.8534,0.2037,-0.4914,55.81396,37.50024,211.491,NaN,0.0,6.0,,17 / 24,,2273,2021-05-01 19:30:40:992
0.0838,-0.040703,9.751882,0.082668,-0.034374,9.806241,8.52E-4,0.001346,-0.003107,3.66,-16.62,-24.6,193.8534,0.2037,-0.4914,55.81396,37.50024,211.491,NaN,0.0,6.0,,17 / 24,,2282,2021-05-01 19:30:41:001
0.0838,-0.040703,9.751882,0.08233,-0.035372,9.806241,-0.003424,-0.005374,-0.001275,3.42,-17.1,-25.02,190.6415,0.2008,-0.483,55.81396,37.50024,211.491,NaN,0.0,6.0,,17 / 24,,2292,2021-05-01 19:30:41:011
0.069434,-0.045491,9.711179,0.08233,-0.035372,9.806241,8.52E-4,-0.001098,-6.64E-4,3.42,-17.1,-25.02,190.6415,0.2008,-0.483,55.81396,37.50024,211.491,NaN,0.0,6.0,,17 / 24,,2302,2021-05-01 19:30:41:021
0.086194,-0.038308,9.766247,0.082656,-0.03533,9.806238,8.52E-4,-0.001098,-6.64E-4,3.06,-16.68,-25.38,190.6415,0.2008,-0.483,55.81396,37.50024,211.491,NaN,0.0,6.0,,17 / 24,,2313,2021-05-01 19:30:41:032
0.086194,-0.043097,9.768641,0.082656,-0.03533,9.806238,2.41E-4,-0.001098,0.001779,3.06,-16.68,-25.38,190.6415,0.2008,-0.483,55.81396,37.50024,211.491,NaN,0.0,6.0,,17 / 24,,2323,2021-05-01 19:30:41:042
0.086194,-0.043097,9.768641,0.083211,-0.035829,9.806231,-3.7E-4,7.35E-4,0.00239,2.64,-16.86,-25.74,190.665,0.2064,-0.4829,55.81396,37.50024,211.491,NaN,0.0,6.0,,17 / 24,,2332,2021-05-01 19:30:41:051
0.06704,-0.028731,9.754275,0.083211,-0.035829,9.806231,0.001463,0.002567,-5.3E-5,2.64,-16.86,-25.74,190.665,0.2064,-0.4829,55.81396,37.50024,211.491,NaN,0.0,6.0,,17 / 24,,2342,2021-05-01 19:30:41:061
0.090982,-0.043097,9.811738,0.083757,-0.036312,9.806226,2.41E-4,0.005622,-0.002497,2.82,-17.46,-25.26,190.665,0.2064,-0.4829,55.81396,37.50024,211.491,NaN,0.0,6.0,,17 / 24,,2352,2021-05-01 19:30:41:071
0.06704,-0.045491,9.766247,0.083757,-0.036312,9.806226,2.41E-4,0.001957,-0.001275,2.82,-17.46,-25.26,190.665,0.2064,-0.4829,55.81396,37.50024,211.491,NaN,0.0,6.0,,17 / 24,,2363,2021-05-01 19:30:41:082
0.086194,-0.043097,9.768641,0.084378,-0.036715,9.806218,0.001463,-0.003541,5.58E-4,3.36,-17.34,-24.06,190.6221,0.2122,-0.4894,55.81396,37.50024,211.491,NaN,0.0,6.0,,17 / 24,,2373,2021-05-01 19:30:41:092
0.086194,-0.043097,9.768641,0.084378,-0.036715,9.806218,-0.002813,-0.002319,5.58E-4,3.36,-17.34,-24.06,190.6221,0.2122,-0.4894,55.81396,37.50024,211.491,NaN,0.0,6.0,,17 / 24,,2382,2021-05-01 19:30:41:101
0.074223,-0.026337,9.766247,0.084523,-0.036841,9.806217,-3.7E-4,-0.004763,-0.001275,3.06,-17.04,-23.88,190.6221,0.2122,-0.4894,55.81396,37.50024,211.491,NaN,0.0,6.0,,17 / 24,,2392,2021-05-01 19:30:41:111
0.076617,-0.038308,9.751882,0.084523,-0.036841,9.806217,0.002074,0.005011,-0.003718,3.06,-17.04,-23.88,190.6221,0.2122,-0.4894,55.81396,37.50024,211.491,NaN,0.0,6.0,,17 / 24,,2402,2021-05-01 19:30:41:121
0.076617,-0.038308,9.751882,0.084444,-0.036857,9.806217,0.002074,0.005011,-0.003718,3.18,-16.98,-24.42,190.6274,0.2152,-0.4938,55.81396,37.50024,211.491,NaN,0.0,6.0,,17 / 24,,2413,2021-05-01 19:30:41:132
0.086194,-0.045491,9.754275,0.084444,-0.036857,9.806217,-0.001591,0.001346,-6.64E-4,3.18,-16.98,-24.42,190.6274,0.2152,-0.4938,55.81396,37.50024,211.491,NaN,0.0,6.0,,17 / 24,,2423,2021-05-01 19:30:41:142
0.088588,-0.035914,9.754275,0.083412,-0.036448,9.806228,-9.8E-4,-0.002319,-5.3E-5,3.42,-17.1,-24.66,190.6274,0.2152,-0.4938,55.81396,37.50024,211.491,NaN,0.0,6.0,,17 / 24,,2432,2021-05-01 19:30:41:151
0.088588,-0.035914,9.754275,0.083412,-0.036448,9.806228,8.52E-4,0.005622,-6.64E-4,3.42,-17.1,-24.66,190.6274,0.2152,-0.4938,55.81396,37.50024,211.491,NaN,0.0,6.0,,17 / 24,,2442,2021-05-01 19:30:41:161
0.090982,-0.03352,9.732727,0.08307,-0.036455,9.806231,0.001463,0.002567,-5.3E-5,3.0,-16.92,-24.36,190.6192,0.2129,-0.4873,55.81396,37.50024,211.491,NaN,0.0,6.0,,17 / 24,,2452,2021-05-01 19:30:41:171
0.090982,-0.026337,9.775824,0.08307,-0.036455,9.806231,-9.8E-4,-4.87E-4,-6.64E-4,3.0,-16.92,-24.36,190.6192,0.2129,-0.4873,55.81396,37.50024,211.491,NaN,0.0,6.0,,17 / 24,,2462,2021-05-01 19:30:41:181
0.095771,-0.03352,9.73991,0.082827,-0.036351,9.806233,0.003906,0.003178,0.001169,3.24,-16.92,-25.08,190.6192,0.2129,-0.4873,55.81396,37.50024,211.491,NaN,0.0,6.0,,17 / 24,,2472,2021-05-01 19:30:41:191
0.079011,-0.045491,9.735122,0.082827,-0.036351,9.806233,2.41E-4,-4.87E-4,-0.001886,3.24,-16.92,-25.08,190.6192,0.2129,-0.4873,55.81396,37.50024,211.491,NaN,0.0,6.0,,17 / 24,,2482,2021-05-01 19:30:41:201
0.069434,-0.021548,9.747093,0.083142,-0.036379,9.806231,-0.001591,-0.00293,0.001169,3.72,-16.56,-25.14,193.8402,0.2124,-0.4839,55.81396,37.50024,211.491,NaN,0.0,6.0,,17 / 24,,2493,2021-05-01 19:30:41:212
0.069434,-0.021548,9.747093,0.083376,-0.036466,9.806228,8.52E-4,0.006233,-0.001886,3.78,-16.32,-24.72,193.8402,0.2124,-0.4839,55.81396,37.50024,211.491,NaN,0.0,6.0,,17 / 24,,2502,2021-05-01 19:30:41:221
0.076617,-0.028731,9.802161,0.083376,-0.036466,9.806228,8.52E-4,0.006233,-0.001886,3.78,-16.32,-24.72,193.8402,0.2124,-0.4839,55.81396,37.50024,211.491,NaN,0.0,6.0,,17 / 24,,2512,2021-05-01 19:30:41:231
0.090982,-0.05028,9.696813,0.083646,-0.036534,9.806226,-9.8E-4,1.24E-4,0.001169,3.3,-16.2,-24.36,193.8402,0.2124,-0.4839,55.81396,37.50024,211.491,NaN,0.0,6.0,,17 / 24,,2522,2021-05-01 19:30:41:241
0.095771,-0.028731,9.751882,0.083646,-0.036534,9.806226,-0.002202,-4.87E-4,-0.001275,3.3,-16.2,-24.36,193.8402,0.2124,-0.4839,55.81396,37.50024,211.491,NaN,0.0,6.0,,17 / 24,,2533,2021-05-01 19:30:41:252
0.081405,-0.028731,9.761458,0.083807,-0.037021,9.806222,-9.8E-4,7.35E-4,-0.003718,3.24,-16.02,-24.54,191.2913,0.2135,-0.4887,55.81396,37.50024,211.491,NaN,0.0,6.0,,17 / 24,,2542,2021-05-01 19:30:41:261
0.081405,-0.028731,9.761458,0.083726,-0.037122,9.806222,2.41E-4,1.24E-4,-5.3E-5,3.54,-16.38,-24.78,191.2913,0.2135,-0.4887,55.81396,37.50024,211.491,NaN,0.0,6.0,,17 / 24,,2553,2021-05-01 19:30:41:272
0.086194,-0.021548,9.768641,0.083726,-0.037122,9.806222,2.41E-4,0.001346,-5.3E-5,3.54,-16.38,-24.78,191.2913,0.2135,-0.4887,55.81396,37.50024,211.491,NaN,0.0,6.0,,17 / 24,,2562,2021-05-01 19:30:41:281
0.079011,-0.014366,9.751882,0.083471,-0.037131,9.806225,-9.8E-4,1.24E-4,-5.3E-5,3.72,-16.32,-24.54,191.2913,0.2135,-0.4887,55.81396,37.50024,211.491,NaN,0.0,6.0,,17 / 24,,2573,2021-05-01 19:30:41:292
0.0838,-0.047885,9.763853,0.083471,-0.037131,9.806225,0.001463,7.35E-4,-5.3E-5,3.72,-16.32,-24.54,191.2913,0.2135,-0.4887,55.81396,37.50024,211.491,NaN,0.0,6.0,,17 / 24,,2583,2021-05-01 19:30:41:302
0.0838,-0.047885,9.763853,0.083388,-0.036674,9.806227,0.001463,7.35E-4,-5.3E-5,3.06,-16.5,-24.36,191.2621,0.2169,-0.4877,55.81396,37.50024,211.491,NaN,0.0,6.0,,17 / 24,,2593,2021-05-01 19:30:41:312
0.093377,-0.035914,9.744699,0.083172,-0.035975,9.806231,-3.7E-4,0.005011,-5.3E-5,3.54,-16.2,-24.72,191.2621,0.2169,-0.4877,55.81396,37.50024,211.491,NaN,0.0,6.0,,17 / 24,,2602,2021-05-01 19:30:41:321
0.093377,-0.035914,9.744699,0.083172,-0.035975,9.806231,-9.8E-4,0.001346,-0.003107,3.54,-16.2,-24.72,191.2621,0.2169,-0.4877,55.81396,37.50024,211.491,NaN,0.0,6.0,,17 / 24,,2613,2021-05-01 19:30:41:332
0.081405,-0.047885,9.749487,0.083511,-0.035817,9.80623,0.003906,0.0044,0.00239,3.6,-16.92,-24.9,191.2621,0.2169,-0.4877,55.81396,37.50024,211.491,NaN,0.0,6.0,,17 / 24,,2622,2021-05-01 19:30:41:341
0.095771,-0.043097,9.751882,0.083511,-0.035817,9.80623,0.003906,0.0044,0.00239,3.6,-16.92,-24.9,191.2621,0.2169,-0.4877,55.81396,37.50024,211.491,NaN,0.0,6.0,,17 / 24,,2632,2021-05-01 19:30:41:351
0.086194,-0.03352,9.744699,0.084053,-0.035631,9.806225,-3.7E-4,7.35E-4,-0.001886,3.9,-16.98,-25.38,193.8467,0.2093,-0.4879,55.81396,37.50024,211.491,NaN,0.0,6.0,,17 / 24,,2643,2021-05-01 19:30:41:362
0.086194,-0.03352,9.744699,0.08418,-0.035485,9.806225,-3.7E-4,7.35E-4,-0.001886,3.66,-16.62,-25.56,193.8467,0.2093,-0.4879,55.81396,37.50024,211.491,NaN,0.0,6.0,,17 / 24,,2652,2021-05-01 19:30:41:371
0.079011,-0.043097,9.747093,0.08418,-0.035485,9.806225,2.41E-4,0.001957,-5.3E-5,3.66,-16.62,-25.56,193.8467,0.2093,-0.4879,55.81396,37.50024,211.491,NaN,0.0,6.0,,17 / 24,,2662,2021-05-01 19:30:41:381
0.095771,-0.019154,9.802161,0.08365,-0.035881,9.806228,-0.001591,0.001957,-6.64E-4,3.48,-15.72,-24.84,193.8467,0.2093,-0.4879,55.81396,37.50024,211.491,NaN,0.0,6.0,,17 / 24,,2672,2021-05-01 19:30:41:391
0.079011,-0.062251,9.730332,0.08365,-0.035881,9.806228,8.52E-4,-0.003541,-0.001886,3.48,-15.72,-24.84,193.8467,0.2093,-0.4879,55.81396,37.50024,211.491,NaN,0.0,6.0,,17 / 24,,2683,2021-05-01 19:30:41:402
0.079011,-0.062251,9.730332,0.084047,-0.03613,9.806224,-3.7E-4,0.001346,-6.64E-4,3.72,-16.08,-25.44,194.6722,0.2096,-0.4887,55.81396,37.50024,211.491,NaN,0.0,6.0,,17 / 24,,2692,2021-05-01 19:30:41:411
0.086194,-0.057463,9.778218,0.083978,-0.036636,9.806222,-9.8E-4,0.001346,-6.64E-4,3.78,-16.32,-25.8,194.6722,0.2096,-0.4887,55.81396,37.50024,211.491,NaN,0.0,6.0,,17 / 24,,2702,2021-05-01 19:30:41:421
0.090982,-0.01676,9.766247,0.083978,-0.036636,9.806222,-0.002813,0.001957,0.001169,3.78,-16.32,-25.8,194.6722,0.2096,-0.4887,55.81396,37.50024,211.491,NaN,0.0,6.0,,17 / 24,,2713,2021-05-01 19:30:41:432
0.093377,-0.038308,9.775824,0.083757,-0.036998,9.806223,2.41E-4,-0.004763,-5.3E-5,3.72,-16.98,-26.16,194.6722,0.2096,-0.4887,55.81396,37.50024,211.491,NaN,0.0,6.0,,17 / 24,,2722,2021-05-01 19:30:41:441
0.0838,-0.023943,9.735122,0.083757,-0.036998,9.806223,2.41E-4,-0.004763,-5.3E-5,3.72,-16.98,-26.16,194.6722,0.2096,-0.4887,55.81396,37.50024,211.491,NaN,0.0,6.0,,17 / 24,,2732,2021-05-01 19:30:41:451
0.0838,-0.023943,9.735122,0.083185,-0.037066,9.806227,-0.002202,0.001346,-0.001886,2.88,-16.98,-25.08,190.6464,0.2162,-0.4894,55.81396,37.50024,211.491,NaN,0.0,6.0,,17 / 24,,2742,2021-05-01 19:30:41:461
0.069434,-0.052674,9.689631,0.083052,-0.037106,9.806228,8.52E-4,-0.002319,-5.3E-5,2.82,-16.68,-25.08,190.6464,0.2162,-0.4894,55.81396,37.50024,211.491,NaN,0.0,6.0,,17 / 24,,2752,2021-05-01 19:30:41:471
0.086194,-0.05028,9.768641,0.083052,-0.037106,9.806228,0.002685,-0.002319,0.001779,2.82,-16.68,-25.08,190.6464,0.2162,-0.4894,55.81396,37.50024,211.491,NaN,0.0,6.0,,17 / 24,,2763,2021-05-01 19:30:41:482
0.0838,-0.035914,9.792584,0.083203,-0.037058,9.806227,-0.002813,-0.003541,-0.003107,2.52,-16.68,-24.24,190.6464,0.2162,-0.4894,55.81396,37.50024,211.491,NaN,0.0,6.0,,17 / 24,,2773,2021-05-01 19:30:41:492
0.088588,-0.03352,9.75667,0.083203,-0.037058,9.806227,8.52E-4,1.24E-4,5.58E-4,2.52,-16.68,-24.24,190.6464,0.2162,-0.4894,55.81396,37.50024,211.491,NaN,0.0,6.0,,17 / 24,,2782,2021-05-01 19:30:41:501
0.088588,-0.03352,9.75667,0.083603,-0.036894,9.806225,-3.7E-4,-0.003541,0.001169,3.12,-16.8,-24.54,190.6418,0.2165,-0.4861,55.81396,37.50024,211.491,NaN,0.0,6.0,,17 / 24,,2792,2021-05-01 19:30:41:511
0.081405,-0.047885,9.744699,0.083661,-0.036737,9.806224,2.41E-4,-4.87E-4,-5.3E-5,3.54,-16.68,-24.96,190.6418,0.2165,-0.4861,55.81396,37.50024,211.491,NaN,0.0,6.0,,17 / 24,,2803,2021-05-01 19:30:41:522
0.102954,-0.038308,9.730332,0.083661,-0.036737,9.806224,2.41E-4,-4.87E-4,-5.3E-5,3.54,-16.68,-24.96,190.6418,0.2165,-0.4861,55.81396,37.50024,211.491,NaN,0.0,6.0,,17 / 24,,2812,2021-05-01 19:30:41:531
0.081405,-0.055068,9.747093,0.084115,-0.037068,9.806219,-0.001591,0.005011,-6.64E-4,3.48,-16.86,-25.32,190.6418,0.2165,-0.4861,55.81396,37.50024,211.491,NaN,0.0,6.0,,17 / 24,,2822,2021-05-01 19:30:41:541
0.081405,-0.055068,9.747093,0.084115,-0.037068,9.806219,8.52E-4,-0.001098,5.58E-4,3.48,-16.86,-25.32,190.6418,0.2165,-0.4861,55.81396,37.50024,211.491,NaN,0.0,6.0,,17 / 24,,2832,2021-05-01 19:30:41:551
0.081405,-0.045491,9.759064,0.08451,-0.037038,9.806216,-9.8E-4,-0.00293,0.001169,3.48,-16.74,-25.02,190.6493,0.2166,-0.4915,55.81396,37.50024,211.491,NaN,0.0,6.0,,17 / 24,,2843,2021-05-01 19:30:41:562
0.0838,-0.023943,9.783007,0.084129,-0.037192,9.806219,0.002685,-0.001098,5.58E-4,3.72,-16.68,-24.9,190.6493,0.2166,-0.4915,55.81396,37.50024,211.491,NaN,0.0,6.0,,17 / 24,,2852,2021-05-01 19:30:41:571
0.0838,-0.023943,9.783007,0.084129,-0.037192,9.806219,2.41E-4,-0.001098,0.001169,3.72,-16.68,-24.9,190.6493,0.2166,-0.4915,55.81396,37.50024,211.491,NaN,0.0,6.0,,17 / 24,,2862,2021-05-01 19:30:41:581
0.0838,-0.023943,9.799767,0.08471,-0.036816,9.806215,0.002074,-0.001709,-5.3E-5,3.78,-16.86,-24.36,190.6493,0.2166,-0.4915,55.81396,37.50024,211.491,NaN,0.0,6.0,,17 / 24,,2872,2021-05-01 19:30:41:591
0.081405,-0.040703,9.761458,0.08471,-0.036816,9.806215,8.52E-4,0.001346,5.58E-4,3.78,-16.86,-24.36,190.6493,0.2166,-0.4915,55.81396,37.50024,211.491,NaN,0.0,6.0,,17 / 24,,2882,2021-05-01 19:30:41:601
0.090982,-0.043097,9.727939,0.084627,-0.036963,9.806215,-9.8E-4,-0.004152,-0.003107,3.54,-16.8,-25.5,193.8544,0.2151,-0.4949,55.81396,37.50024,211.491,NaN,0.0,6.0,,17 / 24,,2892,2021-05-01 19:30:41:611
0.102954,-0.035914,9.718362,0.084747,-0.036756,9.806215,0.001463,-4.87E-4,5.58E-4,3.48,-16.62,-25.8,193.8544,0.2151,-0.4949,55.81396,37.50024,211.491,NaN,0.0,6.0,,17 / 24,,2903,2021-05-01 19:30:41:622
0.102954,-0.035914,9.718362,0.084747,-0.036756,9.806215,0.001463,-4.87E-4,5.58E-4,3.48,-16.62,-25.8,193.8544,0.2151,-0.4949,55.81396,37.50024,211.491,NaN,0.0,6.0,,17 / 24,,2912,2021-05-01 19:30:41:631
0.093377,-0.05028,9.787795,0.08508,-0.03565,9.806216,8.52E-4,-4.87E-4,0.001779,3.36,-16.44,-25.44,193.8544,0.2151,-0.4949,55.81396,37.50024,211.491,NaN,0.0,6.0,,17 / 24,,2923,2021-05-01 19:30:41:642
0.093377,-0.05028,9.787795,0.08508,-0.03565,9.806216,2.41E-4,7.35E-4,-0.001275,3.36,-16.44,-25.44,193.8544,0.2151,-0.4949,55.81396,37.50024,211.491,NaN,0.0,6.0,,17 / 24,,2932,2021-05-01 19:30:41:651
0.098165,-0.023943,9.80695,0.085126,-0.035605,9.806216,0.001463,-0.002319,5.58E-4,3.24,-16.62,-25.2,190.6594,0.2083,-0.4971,55.81396,37.50024,211.491,NaN,0.0,6.0,,17 / 24,,2942,2021-05-01 19:30:41:661
0.079011,-0.043097,9.759064,0.085126,-0.035605,9.806216,-9.8E-4,-0.00293,5.58E-4,3.24,-16.62,-25.2,190.6594,0.2083,-0.4971,55.81396,37.50024,211.491,NaN,0.0,6.0,,17 / 24,,2953,2021-05-01 19:30:41:672
0.076617,-0.045491,9.783007,0.085791,-0.035082,9.806212,-3.7E-4,-0.003541,-5.3E-5,3.48,-16.86,-25.26,190.6594,0.2083,-0.4971,55.81396,37.50024,211.491,NaN,0.0,6.0,,17 / 24,,2963,2021-05-01 19:30:41:682
0.086194,-0.035914,9.749487,0.085791,-0.035082,9.806212,0.002685,-0.002319,0.00239,3.48,-16.86,-25.26,190.6594,0.2083,-0.4971,55.81396,37.50024,211.491,NaN,0.0,6.0,,17 / 24,,2972,2021-05-01 19:30:41:691
0.086194,-0.035914,9.749487,0.086106,-0.035152,9.806209,2.41E-4,0.003178,0.001779,3.24,-17.16,-25.56,190.6923,0.205,-0.5013,55.81396,37.50024,211.491,NaN,0.0,6.0,,17 / 24,,2982,2021-05-01 19:30:41:701
0.076617,-0.028731,9.73991,0.086106,-0.035152,9.806209,0.002074,-0.001098,-0.001275,3.24,-17.16,-25.56,190.6923,0.205,-0.5013,55.81396,37.50024,211.491,NaN,0.0,6.0,,17 / 24,,2992,2021-05-01 19:30:41:711
0.086194,-0.03352,9.763853,0.086449,-0.035102,9.806207,-9.8E-4,1.24E-4,-5.3E-5,3.0,-16.5,-25.08,190.6923,0.205,-0.5013,55.81396,37.50024,211.491,NaN,0.0,6.0,,17 / 24,,3003,2021-05-01 19:30:41:722
0.095771,-0.035914,9.79019,0.086449,-0.035102,9.806207,-0.002813,0.001346,5.58E-4,3.0,-16.5,-25.08,190.6923,0.205,-0.5013,55.81396,37.50024,211.491,NaN,0.0,6.0,,17 / 24,,3012,2021-05-01 19:30:41:731
0.095771,-0.035914,9.79019,0.086767,-0.034999,9.806204,2.41E-4,1.24E-4,5.58E-4,3.0,-16.5,-24.78,191.3182,0.2051,-0.5051,55.81396,37.50024,211.491,NaN,0.0,6.0,,17 / 24,,3022,2021-05-01 19:30:41:741
0.079011,-0.047885,9.780613,0.086767,-0.034999,9.806204,8.52E-4,0.001957,-5.3E-5,3.0,-16.5,-24.78,191.3182,0.2051,-0.5051,55.81396,37.50024,211.491,NaN,0.0,6.0,,17 / 24,,3032,2021-05-01 19:30:41:751
0.079011,-0.047885,9.780613,0.086767,-0.034999,9.806204,8.52E-4,0.001957,-5.3E-5,3.0,-16.5,-24.78,191.3182,0.2051,-0.5051,55.81396,37.50024,211.491,NaN,0.0,6.0,,17 / 24,,3042,2021-05-01 19:30:41:761
0.090982,-0.038308,9.771035,0.087114,-0.035183,9.8062,-0.001591,-0.004763,-0.001275,2.88,-16.92,-25.56,190.7008,0.2045,-0.507,55.81396,37.50024,211.491,NaN,0.0,6.0,,17 / 24,,3052,2021-05-01 19:30:41:771
0.090982,-0.038308,9.771035,0.087114,-0.035183,9.8062,-0.001591,-0.004763,-0.001275,2.88,-16.92,-25.56,190.7008,0.2045,-0.507,55.81396,37.50024,211.491,NaN,0.0,6.0,,19 / 22,,3062,2021-05-01 19:30:41:781
0.086194,-0.031126,9.761458,0.087143,-0.035386,9.806199,8.52E-4,-4.87E-4,0.001169,3.12,-16.02,-24.36,190.7008,0.2045,-0.507,55.81396,37.50024,211.491,NaN,0.0,6.0,,19 / 22,,3072,2021-05-01 19:30:41:791
0.090982,-0.023943,9.775824,0.087143,-0.035386,9.806199,-3.7E-4,0.001957,-0.003107,3.12,-16.02,-24.36,190.7008,0.2045,-0.507,55.81396,37.50024,211.491,NaN,0.0,6.0,,19 / 22,,3082,2021-05-01 19:30:41:801
0.093377,-0.03352,9.794978,0.086641,-0.035183,9.806204,0.001463,-0.001098,5.58E-4,2.94,-16.14,-24.84,190.7008,0.2045,-0.507,55.81396,37.50024,211.491,NaN,0.0,6.0,,19 / 22,,3092,2021-05-01 19:30:41:811
0.090982,-0.05028,9.761458,0.08675,-0.035047,9.806204,-0.002202,7.35E-4,5.58E-4,2.94,-16.14,-24.84,190.7008,0.2045,-0.507,55.81396,37.50024,211.491,NaN,0.0,6.0,,19 / 22,,3103,2021-05-01 19:30:41:822
0.090982,-0.05028,9.761458,0.08675,-0.035047,9.806204,8.52E-4,-4.87E-4,0.001779,3.3,-16.56,-25.08,190.6741,0.2048,-0.5069,55.81396,37.50024,211.491,NaN,0.0,6.0,,19 / 22,,3113,2021-05-01 19:30:41:832
0.074223,-0.055068,9.744699,0.086728,-0.035187,9.806204,8.52E-4,7.35E-4,-5.3E-5,3.3,-16.56,-25.08,190.6741,0.2048,-0.5069,55.81396,37.50024,211.491,NaN,0.0,6.0,,19 / 22,,3122,2021-05-01 19:30:41:841
0.074223,-0.028731,9.761458,0.086728,-0.035187,9.806204,2.41E-4,0.001346,0.003001,3.78,-16.2,-24.42,190.6741,0.2048,-0.5069,55.81396,37.50024,211.491,NaN,0.0,6.0,,19 / 22,,3132,2021-05-01 19:30:41:851
0.074223,-0.035914,9.77343,0.086761,-0.035259,9.806203,-0.002813,1.24E-4,0.001169,3.78,-16.2,-24.42,190.6741,0.2048,-0.5069,55.81396,37.50024,211.491,NaN,0.0,6.0,,19 / 22,,3143,2021-05-01 19:30:41:862
0.074223,-0.035914,9.77343,0.086761,-0.035259,9.806203,8.52E-4,1.24E-4,0.001169,3.3,-16.74,-24.78,190.6739,0.206,-0.5069,55.81396,37.50024,211.491,NaN,0.0,6.0,,19 / 22,,3152,2021-05-01 19:30:41:871
0.076617,-0.040703,9.759064,0.086318,-0.035659,9.806206,-3.7E-4,7.35E-4,-0.001275,3.3,-16.74,-24.78,190.6739,0.206,-0.5069,55.81396,37.50024,211.491,NaN,0.0,6.0,,19 / 22,,3162,2021-05-01 19:30:41:881
0.0838,-0.028731,9.766247,0.086318,-0.035659,9.806206,2.41E-4,7.35E-4,-0.003107,3.3,-16.92,-24.54,190.6739,0.206,-0.5069,55.81396,37.50024,211.491,NaN,0.0,6.0,,19 / 22,,3172,2021-05-01 19:30:41:891
0.064645,-0.021548,9.783007,0.085391,-0.035849,9.806213,-0.001591,-4.87E-4,-5.3E-5,3.3,-16.92,-24.54,190.6739,0.206,-0.5069,55.81396,37.50024,211.491,NaN,0.0,6.0,,19 / 22,,3182,2021-05-01 19:30:41:901
0.064645,-0.021548,9.783007,0.085391,-0.035849,9.806213,0.002074,0.003789,-6.64E-4,3.12,-16.56,-24.42,190.6357,0.2094,-0.4989,55.81396,37.50024,211.491,NaN,0.0,6.0,,19 / 22,,3193,2021-05-01 19:30:41:912
0.06704,-0.047885,9.802161,0.084866,-0.036394,9.806215,8.52E-4,-0.001098,-6.64E-4,3.12,-16.56,-24.42,190.6357,0.2094,-0.4989,55.81396,37.50024,211.491,NaN,0.0,6.0,,19 / 22,,3202,2021-05-01 19:30:41:921
0.093377,-0.028731,9.77343,0.084866,-0.036394,9.806215,2.41E-4,1.24E-4,5.58E-4,2.76,-16.92,-25.08,190.6357,0.2094,-0.4989,55.81396,37.50024,211.491,NaN,0.0,6.0,,19 / 22,,3213,2021-05-01 19:30:41:932
0.090982,-0.047885,9.73991,0.084597,-0.037166,9.806214,-0.001591,-0.002319,-0.001275,2.76,-16.92,-25.08,190.6357,0.2094,-0.4989,55.81396,37.50024,211.491,NaN,0.0,6.0,,19 / 22,,3222,2021-05-01 19:30:41:941
0.090982,-0.047885,9.73991,0.084597,-0.037166,9.806214,-0.001591,-0.002319,-0.001275,3.0,-16.74,-25.44,190.6531,0.2171,-0.4943,55.81396,37.50024,211.491,NaN,0.0,6.0,,19 / 22,,3232,2021-05-01 19:30:41:951
0.090982,-0.035914,9.730332,0.084933,-0.037054,9.806212,-3.7E-4,1.24E-4,-5.3E-5,3.0,-16.74,-25.44,190.6531,0.2171,-0.4943,55.81396,37.50024,211.491,NaN,0.0,6.0,,19 / 22,,3243,2021-05-01 19:30:41:962
0.090982,-0.040703,9.771035,0.084933,-0.037054,9.806212,-3.7E-4,1.24E-4,-5.3E-5,3.0,-16.38,-25.14,190.6531,0.2171,-0.4943,55.81396,37.50024,211.491,NaN,0.0,6.0,,19 / 22,,3252,2021-05-01 19:30:41:971
0.088588,-0.038308,9.816526,0.084659,-0.036837,9.806215,8.52E-4,-0.001098,-5.3E-5,3.0,-16.38,-25.14,190.6531,0.2171,-0.4943,55.81396,37.50024,211.491,NaN,0.0,6.0,,19 / 22,,3262,2021-05-01 19:30:41:981
0.088588,-0.031126,9.799767,0.084659,-0.036837,9.806215,-0.001591,7.35E-4,-0.002497,3.12,-16.56,-24.72,190.6541,0.2152,-0.4946,55.81396,37.50024,211.491,NaN,0.0,6.0,,19 / 22,,3273,2021-05-01 19:30:41:992
0.069434,-0.028731,9.761458,0.084524,-0.036963,9.806216,-3.7E-4,1.24E-4,-0.001886,3.12,-16.56,-24.72,190.6541,0.2152,-0.4946,55.81396,37.50024,211.491,NaN,0.0,6.0,,19 / 22,,3282,2021-05-01 19:30:42:001
0.069434,-0.028731,9.761458,0.084524,-0.036963,9.806216,-9.8E-4,-0.001709,-6.64E-4,3.24,-16.44,-25.2,190.6541,0.2152,-0.4946,55.81396,37.50024,211.491,NaN,0.0,6.0,,19 / 22,,3292,2021-05-01 19:30:42:011
0.090982,-0.045491,9.77343,0.084454,-0.03667,9.806218,2.41E-4,-0.00293,0.001169,3.24,-16.44,-25.2,190.6541,0.2152,-0.4946,55.81396,37.50024,211.491,NaN,0.0,6.0,,19 / 22,,3303,2021-05-01 19:30:42:022
0.081405,-0.052674,9.768641,0.084454,-0.03667,9.806218,-3.7E-4,-0.002319,5.58E-4,3.54,-16.14,-25.38,194.6773,0.2142,-0.4934,55.81396,37.50024,211.491,NaN,0.0,6.0,,19 / 22,,3312,2021-05-01 19:30:42:031
0.0838,-0.031126,9.730332,0.084972,-0.036669,9.806213,-0.002813,7.35E-4,-5.3E-5,3.54,-16.14,-25.38,194.6773,0.2142,-0.4934,55.81396,37.50024,211.491,NaN,0.0,6.0,,19 / 22,,3322,2021-05-01 19:30:42:041
0.0838,-0.031126,9.730332,0.084972,-0.036669,9.806213,-0.001591,7.35E-4,-6.64E-4,3.24,-16.32,-25.08,194.6773,0.2142,-0.4934,55.81396,37.50024,211.491,NaN,0.0,6.0,,19 / 22,,3333,2021-05-01 19:30:42:052
0.095771,-0.031126,9.797373,0.084344,-0.037089,9.806217,0.003906,0.001346,0.001779,3.24,-16.32,-25.08,194.6773,0.2142,-0.4934,55.81396,37.50024,211.491,NaN,0.0,6.0,,19 / 22,,3342,2021-05-01 19:30:42:061
0.0838,-0.011971,9.79019,0.084344,-0.037089,9.806217,8.52E-4,7.35E-4,-5.3E-5,2.76,-16.98,-25.5,190.6511,0.2167,-0.4928,55.81396,37.50024,211.491,NaN,0.0,6.0,,19 / 22,,3353,2021-05-01 19:30:42:072
0.069434,-0.045491,9.727939,0.084045,-0.037098,9.806219,2.41E-4,0.005011,-5.3E-5,2.76,-16.98,-25.5,190.6511,0.2167,-0.4928,55.81396,37.50024,211.491,NaN,0.0,6.0,,19 / 22,,3362,2021-05-01 19:30:42:081
0.105348,-0.021548,9.787795,0.084045,-0.037098,9.806219,-9.8E-4,-0.001098,-5.3E-5,2.82,-16.74,-25.38,190.6511,0.2167,-0.4928,55.81396,37.50024,211.491,NaN,0.0,6.0,,19 / 22,,3372,2021-05-01 19:30:42:091
0.105348,-0.021548,9.787795,0.08414,-0.037162,9.806219,-0.004035,-0.006596,-0.00494,2.82,-16.74,-25.38,190.6511,0.2167,-0.4928,55.81396,37.50024,211.491,NaN,0.0,6.0,,19 / 22,,3382,2021-05-01 19:30:42:101
0.062251,-0.031126,9.737515,0.08414,-0.037162,9.806219,-0.002202,1.24E-4,-0.004329,2.64,-16.08,-24.6,191.2945,0.2171,-0.4916,55.81396,37.50024,211.491,NaN,0.0,6.0,,19 / 22,,3392,2021-05-01 19:30:42:111
0.069434,-0.040703,9.73991,0.084772,-0.037774,9.806211,2.41E-4,-0.00293,0.001169,2.64,-16.08,-24.6,191.2945,0.2171,-0.4916,55.81396,37.50024,211.491,NaN,0.0,6.0,,19 / 22,,3402,2021-05-01 19:30:42:121
0.074223,-0.021548,9.804555,0.084699,-0.03757,9.806212,2.41E-4,-0.00293,5.58E-4,3.0,-16.44,-24.84,191.2945,0.2171,-0.4916,55.81396,37.50024,211.491,NaN,0.0,6.0,,19 / 22,,3413,2021-05-01 19:30:42:132
0.074223,-0.028731,9.768641,0.084699,-0.03757,9.806212,2.41E-4,0.002567,-5.3E-5,3.0,-16.44,-24.84,191.2945,0.2171,-0.4916,55.81396,37.50024,211.491,NaN,0.0,6.0,,19 / 22,,3423,2021-05-01 19:30:42:142
0.074223,-0.028731,9.768641,0.083839,-0.036737,9.806223,2.41E-4,0.002567,-5.3E-5,3.0,-17.1,-24.84,190.6533,0.2195,-0.4949,55.81396,37.50024,211.491,NaN,0.0,6.0,,19 / 22,,3432,2021-05-01 19:30:42:151
0.081405,-0.040703,9.727939,0.083839,-0.036737,9.806223,8.52E-4,0.003178,-0.001886,3.0,-17.1,-24.84,190.6533,0.2195,-0.4949,55.81396,37.50024,211.491,NaN,0.0,6.0,,19 / 22,,3442,2021-05-01 19:30:42:161
0.079011,-0.047885,9.780613,0.084051,-0.036682,9.806222,-9.8E-4,1.24E-4,-6.64E-4,3.18,-17.4,-25.02,190.6533,0.2195,-0.4949,55.81396,37.50024,211.491,NaN,0.0,6.0,,19 / 22,,3452,2021-05-01 19:30:42:171
0.079011,-0.023943,9.768641,0.084051,-0.036682,9.806222,2.41E-4,-0.003541,5.58E-4,3.18,-17.4,-25.02,190.6533,0.2195,-0.4949,55.81396,37.50024,211.491,NaN,0.0,6.0,,19 / 22,,3463,2021-05-01 19:30:42:182
0.088588,-0.047885,9.732727,0.084391,-0.036762,9.806218,0.002074,1.24E-4,0.001169,3.48,-16.92,-25.44,190.6494,0.2143,-0.4911,55.81396,37.50024,211.491,NaN,0.0,6.0,,19 / 22,,3472,2021-05-01 19:30:42:191
0.088588,-0.047885,9.732727,0.084391,-0.036762,9.806218,0.002074,0.002567,5.58E-4,3.48,-16.92,-25.44,190.6494,0.2143,-0.4911,55.81396,37.50024,211.491,NaN,0.0,6.0,,19 / 22,,3482,2021-05-01 19:30:42:201
0.079011,-0.062251,9.744699,0.084808,-0.037153,9.806213,0.001463,7.35E-4,-5.3E-5,3.54,-16.38,-25.2,190.6494,0.2143,-0.4911,55.81396,37.50024,211.491,NaN,0.0,6.0,,19 / 22,,3492,2021-05-01 19:30:42:211
0.074223,-0.040703,9.785401,0.084808,-0.037153,9.806213,0.002074,0.001346,5.58E-4,3.54,-16.38,-25.2,190.6494,0.2143,-0.4911,55.81396,37.50024,211.491,NaN,0.0,6.0,,19 / 22,,3502,2021-05-01 19:30:42:221
0.107742,-0.031126,9.802161,0.085122,-0.038109,9.806207,-3.7E-4,1.24E-4,-5.3E-5,3.18,-16.32,-25.2,191.3003,0.2171,-0.4955,55.81396,37.50024,211.491,NaN,0.0,6.0,,19 / 22,,3512,2021-05-01 19:30:42:231
0.107742,-0.031126,9.802161,0.085122,-0.038109,9.806207,8.52E-4,0.001346,5.58E-4,3.18,-16.32,-25.2,191.3003,0.2171,-0.4955,55.81396,37.50024,211.491,NaN,0.0,6.0,,19 / 22,,3522,2021-05-01 19:30:42:241
0.088588,-0.043097,9.75667,0.085966,-0.038907,9.806196,8.52E-4,0.001346,5.58E-4,2.64,-16.5,-25.74,191.3003,0.2171,-0.4955,55.81396,37.50024,211.491,NaN,0.0,6.0,,19 / 22,,3533,2021-05-01 19:30:42:252
0.076617,-0.045491,9.759064,0.085966,-0.038907,9.806196,-9.8E-4,0.003178,5.58E-4,2.64,-16.5,-25.74,191.3003,0.2171,-0.4955,55.81396,37.50024,211.491,NaN,0.0,6.0,,19 / 22,,3542,2021-05-01 19:30:42:261
0.0838,-0.05028,9.732727,0.086269,-0.03933,9.806191,-0.003424,-0.001098,-6.64E-4,3.3,-16.62,-25.32,190.6617,0.2273,-0.5023,55.81396,37.50024,211.491,NaN,0.0,6.0,,19 / 22,,3552,2021-05-01 19:30:42:271
0.088588,-0.040703,9.75667,0.086269,-0.03933,9.806191,-9.8E-4,1.24E-4,-0.001275,3.3,-16.62,-25.32,190.6617,0.2273,-0.5023,55.81396,37.50024,211.491,NaN,0.0,6.0,,19 / 22,,3563,2021-05-01 19:30:42:282
0.088588,-0.040703,9.75667,0.086361,-0.039762,9.80619,-3.7E-4,-0.001709,5.58E-4,3.54,-16.2,-24.42,190.6617,0.2273,-0.5023,55.81396,37.50024,211.491,NaN,0.0,6.0,,19 / 22,,3572,2021-05-01 19:30:42:291
0.090982,-0.028731,9.771035,0.086361,-0.039762,9.80619,-0.001591,0.003178,-6.64E-4,3.54,-16.2,-24.42,190.6617,0.2273,-0.5023,55.81396,37.50024,211.491,NaN,0.0,6.0,,19 / 22,,3582,2021-05-01 19:30:42:301
0.086194,-0.038308,9.792584,0.086512,-0.039714,9.806188,0.001463,0.001346,-5.3E-5,3.06,-16.26,-24.54,191.3093,0.2323,-0.5046,55.81396,37.50024,211.491,NaN,0.0,6.0,,19 / 22,,3593,2021-05-01 19:30:42:312
0.090982,-0.021548,9.804555,0.086512,-0.039714,9.806188,-9.8E-4,-0.00293,-5.3E-5,3.06,-16.26,-24.54,191.3093,0.2323,-0.5046,55.81396,37.50024,211.491,NaN,0.0,6.0,,19 / 22,,3602,2021-05-01 19:30:42:321
0.090982,-0.021548,9.804555,0.086904,-0.038647,9.806189,0.001463,0.0044,-5.3E-5,2.64,-16.74,-25.14,191.3093,0.2323,-0.5046,55.81396,37.50024,211.491,NaN,0.0,6.0,,19 / 22,,3612,2021-05-01 19:30:42:331
0.088588,-0.028731,9.780613,0.08709,-0.038864,9.806187,-0.001591,1.24E-4,-0.001275,2.7,-17.1,-25.44,191.3093,0.2323,-0.5046,55.81396,37.50024,211.491,NaN,0.0,6.0,,19 / 22,,3623,2021-05-01 19:30:42:342
0.088588,-0.028731,9.780613,0.08709,-0.038864,9.806187,-0.001591,1.24E-4,-0.001275,2.7,-17.1,-25.44,191.3093,0.2323,-0.5046,55.81396,37.50024,211.491,NaN,0.0,6.0,,19 / 22,,3632,2021-05-01 19:30:42:351
0.081405,-0.040703,9.794978,0.087389,-0.038573,9.806185,0.002685,0.0044,5.58E-4,2.1,-16.68,-25.44,187.4039,0.2271,-0.5088,55.81396,37.50024,211.491,NaN,0.0,6.0,,19 / 22,,3642,2021-05-01 19:30:42:361
0.093377,-0.045491,9.771035,0.087389,-0.038573,9.806185,-3.7E-4,-0.001709,-0.001886,2.1,-16.68,-25.44,187.4039,0.2271,-0.5088,55.81396,37.50024,211.491,NaN,0.0,6.0,,19 / 22,,3653,2021-05-01 19:30:42:372
0.0838,-0.035914,9.778218,0.087615,-0.038642,9.806183,-0.002813,-0.00293,-5.3E-5,2.1,-16.44,-24.3,187.4039,0.2271,-0.5088,55.81396,37.50024,211.491,NaN,0.0,6.0,,19 / 22,,3662,2021-05-01 19:30:42:381
0.090982,-0.01676,9.742304,0.087896,-0.038922,9.806179,-0.001591,-0.002319,-0.003107,2.82,-16.38,-24.18,187.4039,0.2271,-0.5088,55.81396,37.50024,211.491,NaN,0.0,6.0,,19 / 22,,3672,2021-05-01 19:30:42:391
0.090982,-0.01676,9.742304,0.087896,-0.038922,9.806179,-9.8E-4,-0.00293,0.00239,2.82,-16.38,-24.18,187.4039,0.2271,-0.5088,55.81396,37.50024,211.491,NaN,0.0,6.0,,19 / 22,,3683,2021-05-01 19:30:42:402
0.074223,-0.047885,9.79019,0.087812,-0.039111,9.806179,-0.001591,7.35E-4,-0.001275,3.48,-16.86,-24.78,190.6776,0.2274,-0.5135,55.81396,37.50024,211.491,NaN,0.0,6.0,,19 / 22,,3692,2021-05-01 19:30:42:411
0.105348,-0.059857,9.766247,0.087812,-0.039111,9.806179,-3.7E-4,-0.003541,-0.001275,3.48,-16.86,-24.78,190.6776,0.2274,-0.5135,55.81396,37.50024,211.491,NaN,0.0,6.0,,19 / 22,,3702,2021-05-01 19:30:42:421
0.069434,-0.038308,9.761458,0.08791,-0.039368,9.806177,-9.8E-4,-0.001098,-0.001275,3.72,-17.22,-25.2,190.6776,0.2274,-0.5135,55.81396,37.50024,211.491,NaN,0.0,6.0,,19 / 22,,3712,2021-05-01 19:30:42:431
0.081405,-0.035914,9.768641,0.087832,-0.03934,9.806178,2.41E-4,7.35E-4,0.00239,4.08,-16.98,-25.38,190.6776,0.2274,-0.5135,55.81396,37.50024,211.491,NaN,0.0,6.0,,19 / 22,,3723,2021-05-01 19:30:42:442
0.081405,-0.035914,9.768641,0.087832,-0.03934,9.806178,2.41E-4,7.35E-4,0.00239,4.08,-16.98,-25.38,190.6776,0.2274,-0.5135,55.81396,37.50024,211.491,NaN,0.0,6.0,,19 / 22,,3733,2021-05-01 19:30:42:452
0.074223,-0.047885,9.761458,0.087817,-0.039542,9.806177,-0.002813,-0.001098,-0.001886,3.48,-16.32,-25.68,191.3508,0.2298,-0.5132,55.81396,37.50024,211.491,NaN,0.0,6.0,,19 / 22,,3742,2021-05-01 19:30:42:461
0.081405,-0.038308,9.763853,0.087817,-0.039542,9.806177,2.41E-4,-0.002319,-0.001275,3.48,-16.32,-25.68,191.3508,0.2298,-0.5132,55.81396,37.50024,211.491,NaN,0.0,6.0,,19 / 22,,3752,2021-05-01 19:30:42:471
0.081405,-0.028731,9.75667,0.088141,-0.039542,9.806174,2.41E-4,0.001346,-6.64E-4,3.84,-15.96,-25.32,191.3508,0.2298,-0.5132,55.81396,37.50024,211.491,NaN,0.0,6.0,,19 / 22,,3763,2021-05-01 19:30:42:482
0.081405,-0.028731,9.75667,0.08802,-0.039512,9.806175,8.52E-4,7.35E-4,5.58E-4,3.72,-15.96,-25.44,191.3508,0.2298,-0.5132,55.81396,37.50024,211.491,NaN,0.0,6.0,,19 / 22,,3772,2021-05-01 19:30:42:491
0.079011,-0.03352,9.768641,0.08802,-0.039512,9.806175,-0.002202,-0.002319,0.001779,3.72,-15.96,-25.44,191.3508,0.2298,-0.5132,55.81396,37.50024,211.491,NaN,0.0,6.0,,19 / 22,,3782,2021-05-01 19:30:42:501
0.071828,-0.031126,9.754275,0.088021,-0.038624,9.806179,2.41E-4,-4.87E-4,-5.3E-5,3.36,-16.26,-24.6,191.3242,0.2308,-0.5143,55.81396,37.50024,211.491,NaN,0.0,6.0,,19 / 22,,3792,2021-05-01 19:30:42:511
0.093377,-0.035914,9.754275,0.088021,-0.038624,9.806179,8.52E-4,-0.002319,0.001169,3.36,-16.26,-24.6,191.3242,0.2308,-0.5143,55.81396,37.50024,211.491,NaN,0.0,6.0,,19 / 22,,3803,2021-05-01 19:30:42:522
0.081405,-0.026337,9.766247,0.087983,-0.038446,9.80618,0.001463,-4.87E-4,5.58E-4,3.06,-16.5,-24.54,191.3242,0.2308,-0.5143,55.81396,37.50024,211.491,NaN,0.0,6.0,,19 / 22,,3813,2021-05-01 19:30:42:532
0.081405,-0.026337,9.766247,0.088091,-0.038072,9.806181,-3.7E-4,-0.001098,-0.002497,3.06,-16.38,-24.96,191.3242,0.2308,-0.5143,55.81396,37.50024,211.491,NaN,0.0,6.0,,19 / 22,,3822,2021-05-01 19:30:42:541
0.088588,-0.038308,9.735122,0.088091,-0.038072,9.806181,2.41E-4,1.24E-4,0.001779,3.06,-16.38,-24.96,191.3242,0.2308,-0.5143,55.81396,37.50024,211.491,NaN,0.0,6.0,,19 / 22,,3832,2021-05-01 19:30:42:551
0.088588,-0.047885,9.754275,0.088379,-0.038133,9.806178,2.41E-4,1.24E-4,0.001779,3.54,-16.44,-25.5,194.705,0.2224,-0.5147,55.81396,37.50024,211.491,NaN,0.0,6.0,,19 / 22,,3842,2021-05-01 19:30:42:561
0.086194,-0.040703,9.763853,0.088379,-0.038133,9.806178,-9.8E-4,-0.002319,0.001169,3.54,-16.44,-25.5,194.705,0.2224,-0.5147,55.81396,37.50024,211.491,NaN,0.0,6.0,,19 / 22,,3853,2021-05-01 19:30:42:572
0.0838,-0.028731,9.775824,0.08835,-0.038211,9.806178,2.41E-4,-4.87E-4,5.58E-4,3.6,-16.98,-25.92,194.705,0.2224,-0.5147,55.81396,37.50024,211.491,NaN,0.0,6.0,,19 / 22,,3863,2021-05-01 19:30:42:582
0.0838,-0.028731,9.775824,0.088288,-0.038541,9.806177,-3.7E-4,-4.87E-4,-0.002497,3.42,-16.74,-26.22,194.705,0.2224,-0.5147,55.81396,37.50024,211.491,NaN,0.0,6.0,,19 / 22,,3872,2021-05-01 19:30:42:591
0.064645,-0.055068,9.775824,0.088288,-0.038541,9.806177,-3.7E-4,-0.001098,-6.64E-4,3.42,-16.74,-26.22,194.705,0.2224,-0.5147,55.81396,37.50024,211.491,NaN,0.0,6.0,,19 / 22,,3882,2021-05-01 19:30:42:601
0.0838,-0.028731,9.713573,0.087165,-0.038542,9.806187,-9.8E-4,-4.87E-4,-0.001275,3.6,-15.9,-25.44,194.7056,0.2252,-0.5158,55.81396,37.50024,211.491,NaN,0.0,6.0,,19 / 22,,3892,2021-05-01 19:30:42:611
0.093377,-0.055068,9.754275,0.087165,-0.038542,9.806187,-0.004035,7.35E-4,5.58E-4,3.6,-15.9,-25.44,194.7056,0.2252,-0.5158,55.81396,37.50024,211.491,NaN,0.0,6.0,,19 / 22,,3903,2021-05-01 19:30:42:622
0.093377,-0.055068,9.754275,0.085965,-0.038751,9.806196,-0.004035,7.35E-4,5.58E-4,3.9,-16.56,-24.9,194.7056,0.2252,-0.5158,55.81396,37.50024,211.491,NaN,0.0,6.0,,19 / 22,,3912,2021-05-01 19:30:42:631
0.081405,-0.026337,9.77343,0.085825,-0.038731,9.806198,0.003296,0.001957,-0.003718,3.9,-16.92,-24.54,194.7056,0.2252,-0.5158,55.81396,37.50024,211.491,NaN,0.0,6.0,,19 / 22,,3923,2021-05-01 19:30:42:642
0.086194,-0.035914,9.771035,0.085825,-0.038731,9.806198,-3.7E-4,0.001346,5.58E-4,3.9,-16.92,-24.54,194.7056,0.2252,-0.5158,55.81396,37.50024,211.491,NaN,0.0,6.0,,19 / 22,,3932,2021-05-01 19:30:42:651
0.071828,-0.028731,9.727939,0.08586,-0.039037,9.806196,-3.7E-4,0.003178,5.58E-4,3.0,-17.04,-24.84,190.6608,0.2263,-0.5014,55.81396,37.50024,211.491,NaN,0.0,6.0,,19 / 22,,3942,2021-05-01 19:30:42:661
0.071828,-0.028731,9.727939,0.08586,-0.039037,9.806196,2.41E-4,0.002567,-5.3E-5,3.0,-17.04,-24.84,190.6608,0.2263,-0.5014,55.81396,37.50024,211.491,NaN,0.0,6.0,,19 / 22,,3952,2021-05-01 19:30:42:671
0.071828,-0.043097,9.761458,0.085298,-0.039038,9.806201,-0.002813,-0.003541,-6.64E-4,3.0,-16.68,-25.44,190.6608,0.2263,-0.5014,55.81396,37.50024,211.491,NaN,0.0,6.0,,19 / 22,,3962,2021-05-01 19:30:42:681
0.0838,-0.045491,9.735122,0.085164,-0.039402,9.806201,8.52E-4,-4.87E-4,5.58E-4,3.42,-16.5,-25.32,190.6608,0.2263,-0.5014,55.81396,37.50024,211.491,NaN,0.0,6.0,,19 / 22,,3972,2021-05-01 19:30:42:691
0.076617,-0.011971,9.761458,0.085164,-0.039402,9.806201,-0.002202,-0.001709,0.001169,3.42,-16.5,-25.32,190.6608,0.2263,-0.5014,55.81396,37.50024,211.491,NaN,0.0,6.0,,19 / 22,,3982,2021-05-01 19:30:42:701
0.076617,-0.011971,9.761458,0.085384,-0.039127,9.806201,-0.002202,-0.001709,0.001169,3.78,-16.68,-24.96,193.853,0.2302,-0.4976,55.81396,37.50024,211.491,NaN,0.0,6.0,,19 / 22,,3992,2021-05-01 19:30:42:711
0.0838,-0.038308,9.768641,0.085384,-0.039127,9.806201,8.52E-4,-4.87E-4,-0.001886,3.78,-16.68,-24.96,193.853,0.2302,-0.4976,55.81396,37.50024,211.491,NaN,0.0,6.0,,19 / 22,,4003,2021-05-01 19:30:42:722
0.071828,-0.055068,9.751882,0.085083,-0.040108,9.806199,8.52E-4,-4.87E-4,-0.001886,3.54,-17.28,-24.6,193.853,0.2302,-0.4976,55.81396,37.50024,211.491,NaN,0.0,6.0,,19 / 22,,4012,2021-05-01 19:30:42:731
0.086194,-0.040703,9.747093,0.08459,-0.040443,9.806202,0.002074,0.001957,0.003001,3.84,-17.76,-24.96,193.853,0.2302,-0.4976,55.81396,37.50024,211.491,NaN,0.0,6.0,,19 / 22,,4022,2021-05-01 19:30:42:741
0.069434,-0.028731,9.730332,0.08459,-0.040443,9.806202,-9.8E-4,-4.87E-4,-6.64E-4,3.84,-17.76,-24.96,193.853,0.2302,-0.4976,55.81396,37.50024,211.491,NaN,0.0,6.0,,19 / 22,,4032,2021-05-01 19:30:42:751
0.069434,-0.028731,9.730332,0.084644,-0.0415,9.806197,0.001463,7.35E-4,-5.3E-5,3.48,-17.16,-25.08,190.648,0.2363,-0.4942,55.81396,37.50024,211.491,NaN,0.0,6.0,,19 / 22,,4042,2021-05-01 19:30:42:761
0.079011,-0.05028,9.80695,0.084644,-0.0415,9.806197,2.41E-4,-0.004152,-0.001886,3.48,-17.16,-25.08,190.648,0.2363,-0.4942,55.81396,37.50024,211.491,NaN,0.0,6.0,,19 / 21,,4053,2021-05-01 19:30:42:772
0.098165,-0.040703,9.79019,0.084612,-0.042552,9.806193,2.41E-4,-0.003541,-0.001886,3.0,-16.44,-25.26,190.648,0.2363,-0.4942,55.81396,37.50024,211.491,NaN,0.0,6.0,,19 / 21,,4062,2021-05-01 19:30:42:781
0.074223,-0.011971,9.768641,0.084834,-0.042471,9.806191,-3.7E-4,-0.003541,5.58E-4,3.24,-16.38,-24.72,190.648,0.2363,-0.4942,55.81396,37.50024,211.491,NaN,0.0,6.0,,19 / 21,,4072,2021-05-01 19:30:42:791
0.081405,-0.031126,9.735122,0.084834,-0.042471,9.806191,2.41E-4,-0.001098,-0.001886,3.24,-16.38,-24.72,190.648,0.2363,-0.4942,55.81396,37.50024,211.491,NaN,0.0,6.0,,19 / 21,,4083,2021-05-01 19:30:42:802
0.081405,-0.031126,9.735122,0.08493,-0.042533,9.80619,0.002074,-4.87E-4,-0.001886,3.48,-16.2,-25.44,191.2913,0.2481,-0.4957,55.81396,37.50024,211.491,NaN,0.0,6.0,,19 / 21,,4092,2021-05-01 19:30:42:811
0.086194,-0.040703,9.75667,0.08493,-0.042533,9.80619,-0.002813,-4.87E-4,5.58E-4,3.48,-16.2,-25.44,191.2913,0.2481,-0.4957,55.81396,37.50024,211.491,NaN,0.0,6.0,,19 / 21,,4102,2021-05-01 19:30:42:821
0.088588,-0.03352,9.771035,0.084554,-0.042188,9.806195,-0.002813,-4.87E-4,5.58E-4,3.78,-16.8,-25.14,191.2913,0.2481,-0.4957,55.81396,37.50024,211.491,NaN,0.0,6.0,,19 / 21,,4112,2021-05-01 19:30:42:831
0.093377,-0.038308,9.785401,0.084476,-0.041879,9.806196,-9.8E-4,-4.87E-4,-5.3E-5,3.9,-16.98,-25.26,191.2913,0.2481,-0.4957,55.81396,37.50024,211.491,NaN,0.0,6.0,,19 / 21,,4122,2021-05-01 19:30:42:841
0.071828,-0.038308,9.780613,0.084476,-0.041879,9.806196,-9.8E-4,-4.87E-4,-5.3E-5,3.9,-16.98,-25.26,191.2913,0.2481,-0.4957,55.81396,37.50024,211.491,NaN,0.0,6.0,,19 / 21,,4132,2021-05-01 19:30:42:851
0.076617,-0.057463,9.720756,0.084536,-0.041073,9.806199,-0.002202,7.35E-4,-0.001886,3.72,-16.74,-25.02,193.8425,0.2447,-0.4936,55.81396,37.50024,211.491,NaN,0.0,6.0,,19 / 21,,4142,2021-05-01 19:30:42:861
0.076617,-0.057463,9.720756,0.084536,-0.041073,9.806199,0.002685,-4.87E-4,-5.3E-5,3.72,-16.74,-25.02,193.8425,0.2447,-0.4936,55.81396,37.50024,211.491,NaN,0.0,6.0,,19 / 21,,4152,2021-05-01 19:30:42:871
0.081405,-0.045491,9.761458,0.085087,-0.040537,9.806197,-0.002202,-0.004763,-5.3E-5,3.42,-16.74,-24.9,193.8425,0.2447,-0.4936,55.81396,37.50024,211.491,NaN,0.0,6.0,,19 / 21,,4163,2021-05-01 19:30:42:882
0.069434,-0.011971,9.749487,0.085087,-0.040537,9.806197,2.41E-4,-0.001098,0.001169,3.42,-16.74,-24.9,193.8425,0.2447,-0.4936,55.81396,37.50024,211.491,NaN,0.0,6.0,,19 / 21,,4172,2021-05-01 19:30:42:891
0.069434,-0.011971,9.749487,0.08489,-0.040391,9.806199,2.41E-4,-0.001709,5.58E-4,3.6,-16.8,-25.2,193.8501,0.2368,-0.4971,55.81396,37.50024,211.491,NaN,0.0,6.0,,19 / 21,,4182,2021-05-01 19:30:42:901
0.0838,-0.052674,9.797373,0.08489,-0.040391,9.806199,-0.001591,1.24E-4,-0.001275,3.6,-16.8,-25.2,193.8501,0.2368,-0.4971,55.81396,37.50024,211.491,NaN,0.0,6.0,,19 / 21,,4192,2021-05-01 19:30:42:911
0.107742,-0.021548,9.747093,0.084168,-0.040466,9.806206,-3.7E-4,-0.002319,5.58E-4,3.54,-16.92,-25.38,193.8501,0.2368,-0.4971,55.81396,37.50024,211.491,NaN,0.0,6.0,,19 / 21,,4202,2021-05-01 19:30:42:921
0.107742,-0.021548,9.747093,0.084168,-0.040466,9.806206,-9.8E-4,0.001346,5.58E-4,3.54,-16.92,-25.38,193.8501,0.2368,-0.4971,55.81396,37.50024,211.491,NaN,0.0,6.0,,19 / 21,,4212,2021-05-01 19:30:42:931
0.081405,-0.059857,9.809344,0.083835,-0.041009,9.806207,-0.002202,-0.001098,-0.001886,3.36,-17.16,-24.6,190.6445,0.2364,-0.4918,55.81396,37.50024,211.491,NaN,0.0,6.0,,19 / 21,,4223,2021-05-01 19:30:42:942
0.069434,-0.040703,9.754275,0.083835,-0.041009,9.806207,-3.7E-4,7.35E-4,-0.001275,3.36,-17.16,-24.6,190.6445,0.2364,-0.4918,55.81396,37.50024,211.491,NaN,0.0,6.0,,19 / 21,,4233,2021-05-01 19:30:42:952
0.074223,-0.052674,9.763853,0.083872,-0.041272,9.806204,-3.7E-4,7.35E-4,0.001169,3.42,-16.56,-25.2,190.6445,0.2364,-0.4918,55.81396,37.50024,211.491,NaN,0.0,6.0,,19 / 21,,4242,2021-05-01 19:30:42:961
0.069434,-0.05028,9.783007,0.083872,-0.041272,9.806204,-3.7E-4,-0.001098,-5.3E-5,3.42,-16.56,-25.2,190.6445,0.2364,-0.4918,55.81396,37.50024,211.491,NaN,0.0,6.0,,19 / 21,,4252,2021-05-01 19:30:42:971
0.069434,-0.05028,9.783007,0.083504,-0.040945,9.806209,-0.001591,-0.001098,5.58E-4,3.3,-16.62,-25.68,190.6659,0.2411,-0.49,55.81396,37.50024,211.491,NaN,0.0,6.0,,19 / 21,,4262,2021-05-01 19:30:42:981
0.081405,-0.021548,9.73991,0.083504,-0.040945,9.806209,-9.8E-4,-0.001098,-0.002497,3.3,-16.62,-25.68,190.6659,0.2411,-0.49,55.81396,37.50024,211.491,NaN,0.0,6.0,,19 / 21,,4273,2021-05-01 19:30:42:992
0.093377,-0.045491,9.77343,0.083481,-0.040567,9.806211,0.001463,1.24E-4,-6.64E-4,3.3,-16.68,-24.78,190.6659,0.2411,-0.49,55.81396,37.50024,211.491,NaN,0.0,6.0,,19 / 21,,4282,2021-05-01 19:30:43:001
0.086194,-0.035914,9.725544,0.083481,-0.040567,9.806211,-0.002202,1.24E-4,0.001169,3.3,-16.68,-24.78,190.6659,0.2411,-0.49,55.81396,37.50024,211.491,NaN,0.0,6.0,,19 / 21,,4292,2021-05-01 19:30:43:011
0.076617,-0.021548,9.711179,0.083353,-0.039868,9.806214,2.41E-4,-4.87E-4,-5.3E-5,2.94,-16.74,-24.42,190.6136,0.237,-0.4878,55.81396,37.50024,211.491,NaN,0.0,6.0,,19 / 21,,4302,2021-05-01 19:30:43:021
0.076617,-0.021548,9.711179,0.083353,-0.039868,9.806214,8.52E-4,-4.87E-4,-6.64E-4,2.94,-16.74,-24.42,190.6136,0.237,-0.4878,55.81396,37.50024,211.491,NaN,0.0,6.0,,19 / 21,,4312,2021-05-01 19:30:43:031
0.081405,-0.03352,9.742304,0.084045,-0.03851,9.806214,0.001463,7.35E-4,-5.3E-5,3.0,-16.92,-25.14,190.6136,0.237,-0.4878,55.81396,37.50024,211.491,NaN,0.0,6.0,,19 / 21,,4322,2021-05-01 19:30:43:041
0.076617,-0.019154,9.732727,0.084045,-0.03851,9.806214,0.002074,-0.001709,0.001779,3.0,-16.92,-25.14,190.6136,0.237,-0.4878,55.81396,37.50024,211.491,NaN,0.0,6.0,,19 / 21,,4333,2021-05-01 19:30:43:052
0.081405,-0.026337,9.75667,0.084184,-0.03769,9.806216,2.41E-4,0.001346,0.001169,3.3,-16.8,-25.44,190.6465,0.225,-0.491,55.81396,37.50024,211.491,NaN,0.0,6.0,,19 / 21,,4342,2021-05-01 19:30:43:061
0.081405,-0.026337,9.75667,0.084184,-0.03769,9.806216,2.41E-4,0.001346,0.001169,3.3,-16.8,-25.44,190.6465,0.225,-0.491,55.81396,37.50024,211.491,NaN,0.0,6.0,,19 / 21,,4352,2021-05-01 19:30:43:071
0.093377,-0.040703,9.771035,0.083933,-0.036683,9.806222,-9.8E-4,-0.001709,-5.3E-5,2.82,-16.74,-24.96,190.6465,0.225,-0.491,55.81396,37.50024,211.491,NaN,0.0,6.0,,19 / 21,,4363,2021-05-01 19:30:43:082
0.079011,-0.038308,9.759064,0.083933,-0.036683,9.806222,-3.7E-4,-0.001709,-5.3E-5,2.82,-16.74,-24.96,190.6465,0.225,-0.491,55.81396,37.50024,211.491,NaN,0.0,6.0,,19 / 21,,4372,2021-05-01 19:30:43:091
0.079011,-0.038308,9.759064,0.084353,-0.035861,9.806222,8.52E-4,-4.87E-4,-0.001275,3.0,-16.44,-24.84,191.2935,0.2143,-0.4904,55.81396,37.50024,211.491,NaN,0.0,6.0,,19 / 21,,4382,2021-05-01 19:30:43:101
0.090982,-0.021548,9.759064,0.084408,-0.035792,9.806222,8.52E-4,7.35E-4,-6.64E-4,3.3,-16.68,-25.5,191.2935,0.2143,-0.4904,55.81396,37.50024,211.491,NaN,0.0,6.0,,19 / 21,,4393,2021-05-01 19:30:43:112
0.06704,-0.052674,9.814133,0.084408,-0.035792,9.806222,8.52E-4,-0.004763,-6.64E-4,3.3,-16.68,-25.5,191.2935,0.2143,-0.4904,55.81396,37.50024,211.491,NaN,0.0,6.0,,19 / 21,,4402,2021-05-01 19:30:43:121
0.10056,-0.064645,9.73991,0.085068,-0.035768,9.806216,-0.002202,7.35E-4,-0.004329,3.84,-16.5,-25.08,191.2935,0.2143,-0.4904,55.81396,37.50024,211.491,NaN,0.0,6.0,,19 / 21,,4412,2021-05-01 19:30:43:131
0.076617,-0.026337,9.768641,0.085068,-0.035768,9.806216,-9.8E-4,0.002567,0.001169,3.84,-16.5,-25.08,191.2935,0.2143,-0.4904,55.81396,37.50024,211.491,NaN,0.0,6.0,,19 / 21,,4423,2021-05-01 19:30:43:142
0.076617,-0.026337,9.768641,0.085513,-0.036165,9.806211,0.002074,1.24E-4,0.001779,4.26,-16.56,-24.3,193.8348,0.209,-0.497,55.81396,37.50024,211.491,NaN,0.0,6.0,,19 / 21,,4432,2021-05-01 19:30:43:151
0.090982,-0.057463,9.744699,0.085437,-0.036329,9.806211,-9.8E-4,7.35E-4,-0.001886,3.78,-16.98,-24.18,193.8348,0.209,-0.497,55.81396,37.50024,211.491,NaN,0.0,6.0,,19 / 21,,4443,2021-05-01 19:30:43:162
0.090982,-0.057463,9.744699,0.085437,-0.036329,9.806211,-9.8E-4,7.35E-4,-0.001886,3.78,-16.98,-24.18,193.8348,0.209,-0.497,55.81396,37.50024,211.491,NaN,0.0,6.0,,19 / 21,,4452,2021-05-01 19:30:43:171
0.093377,-0.040703,9.737515,0.085177,-0.036515,9.806212,2.41E-4,-0.002319,0.003001,3.54,-16.8,-24.24,193.8348,0.209,-0.497,55.81396,37.50024,211.491,NaN,0.0,6.0,,19 / 21,,4463,2021-05-01 19:30:43:182
0.086194,-0.028731,9.783007,0.085177,-0.036515,9.806212,0.002074,-4.87E-4,-5.3E-5,3.54,-16.8,-24.24,193.8348,0.209,-0.497,55.81396,37.50024,211.491,NaN,0.0,6.0,,19 / 21,,4472,2021-05-01 19:30:43:191
0.093377,-0.03352,9.73991,0.085101,-0.035879,9.806215,8.52E-4,-0.001098,-0.001275,3.6,-16.56,-24.66,193.8588,0.2133,-0.4977,55.81396,37.50024,211.491,NaN,0.0,6.0,,19 / 21,,4482,2021-05-01 19:30:43:201
0.093377,-0.03352,9.73991,0.085191,-0.035794,9.806215,2.41E-4,-0.001098,-0.001275,3.84,-16.62,-24.84,193.8588,0.2133,-0.4977,55.81396,37.50024,211.491,NaN,0.0,6.0,,19 / 21,,4493,2021-05-01 19:30:43:212
0.0838,-0.040703,9.725544,0.085191,-0.035794,9.806215,-3.7E-4,-0.001709,0.003001,3.84,-16.62,-24.84,193.8588,0.2133,-0.4977,55.81396,37.50024,211.491,NaN,0.0,6.0,,19 / 21,,4502,2021-05-01 19:30:43:221
0.079011,-0.026337,9.749487,0.085432,-0.036265,9.806211,-3.7E-4,1.24E-4,5.58E-4,3.48,-16.98,-25.32,193.8588,0.2133,-0.4977,55.81396,37.50024,211.491,NaN,0.0,6.0,,19 / 21,,4512,2021-05-01 19:30:43:231
0.074223,-0.021548,9.744699,0.085432,-0.036265,9.806211,0.002074,-4.87E-4,-0.001275,3.48,-16.98,-25.32,193.8588,0.2133,-0.4977,55.81396,37.50024,211.491,NaN,0.0,6.0,,19 / 21,,4522,2021-05-01 19:30:43:241
0.090982,-0.021548,9.77343,0.08547,-0.036161,9.806211,2.41E-4,-0.001098,-6.64E-4,2.76,-16.62,-24.84,190.6614,0.2119,-0.4991,55.81396,37.50024,211.491,NaN,0.0,6.0,,19 / 21,,4533,2021-05-01 19:30:43:252
0.090982,-0.021548,9.77343,0.08547,-0.036161,9.806211,0.002074,7.35E-4,5.58E-4,2.76,-16.62,-24.84,190.6614,0.2119,-0.4991,55.81396,37.50024,211.491,NaN,0.0,6.0,,19 / 21,,4542,2021-05-01 19:30:43:261
0.069434,-0.035914,9.787795,0.085372,-0.036227,9.806211,8.52E-4,-4.87E-4,-5.3E-5,2.82,-16.14,-24.6,190.6614,0.2119,-0.4991,55.81396,37.50024,211.491,NaN,0.0,6.0,,19 / 21,,4554,2021-05-01 19:30:43:273
0.074223,-0.023943,9.766247,0.085372,-0.036227,9.806211,-0.002813,-0.001098,0.001779,2.82,-16.14,-24.6,190.6614,0.2119,-0.4991,55.81396,37.50024,211.491,NaN,0.0,6.0,,19 / 21,,4562,2021-05-01 19:30:43:281
0.098165,-0.055068,9.77343,0.085531,-0.036478,9.806209,-0.002813,-0.001098,0.001779,3.12,-16.02,-25.08,191.3068,0.2117,-0.4988,55.81396,37.50024,211.491,NaN,0.0,6.0,,19 / 21,,4573,2021-05-01 19:30:43:292
0.088588,-0.028731,9.744699,0.085531,-0.036478,9.806209,8.52E-4,-0.001709,-5.3E-5,3.12,-16.02,-25.08,191.3068,0.2117,-0.4988,55.81396,37.50024,211.491,NaN,0.0,6.0,,19 / 21,,4583,2021-05-01 19:30:43:302
0.088588,-0.028731,9.744699,0.085699,-0.036703,9.806207,-3.7E-4,-0.001098,-6.64E-4,3.48,-16.32,-25.56,191.3068,0.2117,-0.4988,55.81396,37.50024,211.491,NaN,0.0,6.0,,19 / 21,,4592,2021-05-01 19:30:43:311
0.081405,-0.043097,9.761458,0.085699,-0.036703,9.806207,-3.7E-4,-0.001098,-6.64E-4,3.48,-16.32,-25.56,191.3068,0.2117,-0.4988,55.81396,37.50024,211.491,NaN,0.0,6.0,,19 / 21,,4602,2021-05-01 19:30:43:321
0.079011,-0.031126,9.735122,0.08604,-0.037345,9.806201,2.41E-4,1.24E-4,-6.64E-4,3.54,-16.86,-24.96,193.8626,0.2144,-0.5007,55.81396,37.50024,211.491,NaN,0.0,6.0,,19 / 21,,4612,2021-05-01 19:30:43:331
0.0838,-0.047885,9.749487,0.08604,-0.037345,9.806201,-3.7E-4,-0.002319,-0.001275,3.54,-16.86,-24.96,193.8626,0.2144,-0.5007,55.81396,37.50024,211.491,NaN,0.0,6.0,,19 / 21,,4622,2021-05-01 19:30:43:341
0.0838,-0.047885,9.749487,0.086536,-0.037763,9.806195,-3.7E-4,1.24E-4,-6.64E-4,3.84,-16.92,-24.42,193.8626,0.2144,-0.5007,55.81396,37.50024,211.491,NaN,0.0,6.0,,19 / 21,,4633,2021-05-01 19:30:43:352
0.090982,-0.035914,9.77343,0.086527,-0.037789,9.806195,8.52E-4,-0.001098,-5.3E-5,3.84,-16.92,-24.3,193.8626,0.2144,-0.5007,55.81396,37.50024,211.491,NaN,0.0,6.0,,19 / 21,,4642,2021-05-01 19:30:43:361
0.088588,-0.045491,9.771035,0.086527,-0.037789,9.806195,-3.7E-4,-4.87E-4,0.001169,3.84,-16.92,-24.3,193.8626,0.2144,-0.5007,55.81396,37.50024,211.491,NaN,0.0,6.0,,19 / 21,,4653,2021-05-01 19:30:43:372
0.088588,-0.045491,9.771035,0.08614,-0.037515,9.8062,-0.002813,-0.001098,-5.3E-5,4.38,-16.32,-24.66,194.6924,0.2208,-0.5055,55.81396,37.50024,211.491,NaN,0.0,6.0,,19 / 21,,4662,2021-05-01 19:30:43:381
0.086194,-0.035914,9.73991,0.08614,-0.037515,9.8062,0.002074,7.35E-4,0.001779,4.38,-16.32,-24.66,194.6924,0.2208,-0.5055,55.81396,37.50024,211.491,NaN,0.0,6.0,,19 / 21,,4672,2021-05-01 19:30:43:391
0.088588,-0.035914,9.747093,0.086408,-0.037348,9.806198,-0.002202,0.001346,-0.002497,3.78,-16.44,-25.02,194.6924,0.2208,-0.5055,55.81396,37.50024,211.491,NaN,0.0,6.0,,19 / 21,,4682,2021-05-01 19:30:43:401
0.10056,-0.052674,9.749487,0.086411,-0.037259,9.806198,-0.002202,7.35E-4,5.58E-4,3.42,-16.2,-24.66,194.6924,0.2208,-0.5055,55.81396,37.50024,211.491,NaN,0.0,6.0,,19 / 21,,4693,2021-05-01 19:30:43:412
0.10056,-0.052674,9.749487,0.086411,-0.037259,9.806198,-0.002202,7.35E-4,5.58E-4,3.42,-16.2,-24.66,194.6924,0.2208,-0.5055,55.81396,37.50024,211.491,NaN,0.0,6.0,,19 / 21,,4702,2021-05-01 19:30:43:421
0.088588,-0.038308,9.751882,0.086674,-0.037268,9.806196,8.52E-4,-0.001709,-0.002497,2.88,-16.44,-24.36,191.2865,0.2177,-0.5049,55.81396,37.50024,211.491,NaN,0.0,6.0,,19 / 21,,4712,2021-05-01 19:30:43:431
0.088588,-0.055068,9.749487,0.086674,-0.037268,9.806196,-0.002202,-0.002319,-0.001886,2.88,-16.44,-24.36,191.2865,0.2177,-0.5049,55.81396,37.50024,211.491,NaN,0.0,6.0,,19 / 21,,4722,2021-05-01 19:30:43:441
0.086194,-0.040703,9.785401,0.086383,-0.037576,9.806198,-0.001591,-0.002319,-0.001275,3.9,-17.1,-24.48,191.2865,0.2177,-0.5049,55.81396,37.50024,211.491,NaN,0.0,6.0,,19 / 21,,4733,2021-05-01 19:30:43:452
0.093377,-0.031126,9.857229,0.086383,-0.037576,9.806198,-0.002813,0.008065,-0.003718,3.9,-17.1,-24.48,191.2865,0.2177,-0.5049,55.81396,37.50024,211.491,NaN,0.0,6.0,,19 / 21,,4742,2021-05-01 19:30:43:461
0.093377,-0.031126,9.857229,0.085603,-0.03785,9.806204,-0.002813,0.008065,-0.003718,3.66,-17.16,-24.42,193.8415,0.2195,-0.5047,55.81396,37.50024,211.491,NaN,0.0,6.0,,19 / 21,,4752,2021-05-01 19:30:43:471
0.071828,-0.03352,9.811738,0.085603,-0.03785,9.806204,-0.002202,0.001957,-5.3E-5,3.66,-17.16,-24.42,193.8415,0.2195,-0.5047,55.81396,37.50024,211.491,NaN,0.0,6.0,,19 / 21,,4762,2021-05-01 19:30:43:481
0.076617,-0.031126,9.761458,0.087793,-0.037679,9.806185,-0.002202,0.001957,-5.3E-5,3.18,-16.92,-24.24,193.8415,0.2195,-0.5047,55.81396,37.50024,211.491,NaN,0.0,6.0,,19 / 21,,4772,2021-05-01 19:30:43:491
0.052674,0.007183,9.658504,0.087793,-0.037679,9.806185,0.003906,0.002567,0.003001,3.18,-16.92,-24.24,193.8415,0.2195,-0.5047,55.81396,37.50024,211.491,NaN,0.0,6.0,,19 / 21,,4782,2021-05-01 19:30:43:501
0.01676,-0.014366,9.816526,0.087533,-0.037584,9.806188,-3.7E-4,0.001346,0.003001,3.72,-16.74,-24.54,193.8775,0.2201,-0.5129,55.81396,37.50024,211.491,NaN,0.0,6.0,,19 / 21,,4792,2021-05-01 19:30:43:511
0.01676,-0.014366,9.816526,0.087533,-0.037584,9.806188,-3.7E-4,0.001346,0.003001,3.72,-16.74,-24.54,193.8775,0.2201,-0.5129,55.81396,37.50024,211.491,NaN,0.0,6.0,,19 / 21,,4802,2021-05-01 19:30:43:521
0.136474,-0.110137,9.703996,0.087825,-0.037232,9.806186,0.004517,7.35E-4,-6.64E-4,3.48,-16.62,-25.02,193.8775,0.2201,-0.5129,55.81396,37.50024,211.491,NaN,0.0,6.0,,19 / 21,,4812,2021-05-01 19:30:43:531
0.124502,-0.102954,9.627379,0.087825,-0.037232,9.806186,-0.004035,-0.005374,-0.001275,3.48,-16.62,-25.02,193.8775,0.2201,-0.5129,55.81396,37.50024,211.491,NaN,0.0,6.0,,19 / 21,,4823,2021-05-01 19:30:43:542
0.047885,0.069434,9.763853,0.087069,-0.03756,9.806191,-3.7E-4,-0.004763,-5.3E-5,3.24,-16.5,-25.08,191.3265,0.2175,-0.5131,55.81396,37.50024,211.491,NaN,0.0,6.0,,19 / 21,,4832,2021-05-01 19:30:43:551
0.057463,-0.055068,9.692024,0.08716,-0.037151,9.806192,0.003906,0.002567,-0.003107,3.78,-16.32,-24.9,191.3265,0.2175,-0.5131,55.81396,37.50024,211.491,NaN,0.0,6.0,,19 / 21,,4842,2021-05-01 19:30:43:561
0.057463,-0.055068,9.692024,0.08716,-0.037151,9.806192,-3.7E-4,-0.003541,5.58E-4,3.78,-16.32,-24.9,191.3265,0.2175,-0.5131,55.81396,37.50024,211.491,NaN,0.0,6.0,,19 / 21,,4853,2021-05-01 19:30:43:572
0.102954,-0.035914,9.742304,0.087909,-0.036802,9.806188,0.002685,0.005622,5.58E-4,3.84,-16.2,-24.96,191.3265,0.2175,-0.5131,55.81396,37.50024,211.491,NaN,0.0,6.0,,19 / 21,,4863,2021-05-01 19:30:43:582
0.081405,-0.040703,9.730332,0.087909,-0.036802,9.806188,-9.8E-4,-0.005374,-5.3E-5,3.84,-16.2,-24.96,191.3265,0.2175,-0.5131,55.81396,37.50024,211.491,NaN,0.0,6.0,,19 / 21,,4872,2021-05-01 19:30:43:591
0.086194,-0.079011,9.785401,0.087812,-0.037107,9.806187,2.41E-4,-0.004152,-5.3E-5,3.72,-16.8,-25.44,193.8802,0.215,-0.5136,55.81396,37.50024,211.491,NaN,0.0,6.0,,19 / 21,,4882,2021-05-01 19:30:43:601
0.0838,-0.011971,9.871595,0.087261,-0.037319,9.80619,0.003906,0.001957,-0.002497,3.3,-17.04,-25.5,193.8802,0.215,-0.5136,55.81396,37.50024,211.491,NaN,0.0,6.0,,19 / 21,,4893,2021-05-01 19:30:43:612
0.0838,-0.011971,9.871595,0.087261,-0.037319,9.80619,0.003906,0.001957,-0.002497,3.3,-17.04,-25.5,193.8802,0.215,-0.5136,55.81396,37.50024,211.491,NaN,0.0,6.0,,19 / 21,,4902,2021-05-01 19:30:43:621
0.081405,-0.059857,9.514848,0.086819,-0.037998,9.806192,0.002685,-4.87E-4,5.58E-4,3.78,-16.56,-25.02,193.8802,0.215,-0.5136,55.81396,37.50024,211.491,NaN,0.0,6.0,,19 / 21,,4913,2021-05-01 19:30:43:632
0.093377,-0.028731,9.873989,0.086819,-0.037998,9.806192,-0.002202,-0.002319,-5.3E-5,3.78,-16.56,-25.02,193.8802,0.215,-0.5136,55.81396,37.50024,211.491,NaN,0.0,6.0,,19 / 21,,4922,2021-05-01 19:30:43:641
0.081405,-0.107742,9.579494,0.086734,-0.038189,9.806191,8.52E-4,1.24E-4,0.001169,4.32,-16.62,-24.42,193.8441,0.222,-0.5073,55.81396,37.50024,211.491,NaN,0.0,6.0,,19 / 21,,4932,2021-05-01 19:30:43:651
0.071828,0.023943,9.945818,0.086734,-0.038189,9.806191,0.002074,0.001957,-6.64E-4,4.32,-16.62,-24.42,193.8441,0.222,-0.5073,55.81396,37.50024,211.491,NaN,0.0,6.0,,19 / 21,,4943,2021-05-01 19:30:43:662
0.071828,0.023943,9.945818,0.08701,-0.038083,9.80619,-0.004646,-4.87E-4,-0.001886,3.36,-16.92,-24.9,193.8441,0.222,-0.5073,55.81396,37.50024,211.491,NaN,0.0,6.0,,19 / 21,,4952,2021-05-01 19:30:43:671
0.112531,-0.01676,9.694419,0.08701,-0.038083,9.80619,2.41E-4,-0.003541,-6.64E-4,3.36,-16.92,-24.9,193.8441,0.222,-0.5073,55.81396,37.50024,211.491,NaN,0.0,6.0,,19 / 21,,4963,2021-05-01 19:30:43:682
0.117319,-0.007183,9.897932,0.087312,-0.037943,9.806188,0.002685,0.001957,-6.64E-4,3.18,-16.74,-24.66,190.6716,0.2225,-0.5084,55.81396,37.50024,211.491,NaN,0.0,6.0,,19 / 21,,4972,2021-05-01 19:30:43:691
0.064645,-0.009577,9.778218,0.087312,-0.037943,9.806188,-0.001591,0.009287,-5.3E-5,3.18,-16.74,-24.66,190.6716,0.2225,-0.5084,55.81396,37.50024,211.491,NaN,0.0,6.0,,19 / 21,,4982,2021-05-01 19:30:43:701
0.110137,-0.071828,9.675264,0.087006,-0.036444,9.806196,8.52E-4,-0.002319,-5.3E-5,3.9,-16.68,-24.6,190.6716,0.2225,-0.5084,55.81396,37.50024,211.491,NaN,0.0,6.0,,19 / 21,,4993,2021-05-01 19:30:43:712
0.110137,-0.071828,9.675264,0.087006,-0.036444,9.806196,2.41E-4,0.005011,5.58E-4,3.9,-16.68,-24.6,190.6716,0.2225,-0.5084,55.81396,37.50024,211.491,NaN,0.0,6.0,,19 / 21,,5002,2021-05-01 19:30:43:721
0.06704,-0.03352,9.842864,0.088142,-0.03661,9.806186,-9.8E-4,0.005011,-0.001886,4.02,-17.04,-25.62,193.8987,0.2129,-0.5083,55.81396,37.50024,211.491,NaN,0.0,6.0,,19 / 21,,5012,2021-05-01 19:30:43:731
0.105348,-0.090982,9.629773,0.088142,-0.03661,9.806186,-3.7E-4,0.003178,-5.3E-5,4.02,-17.04,-25.62,193.8987,0.2129,-0.5083,55.81396,37.50024,211.491,NaN,0.0,6.0,,19 / 21,,5023,2021-05-01 19:30:43:742
0.088588,0.014366,9.950606,0.089064,-0.037197,9.806175,-0.001591,-0.002319,-6.64E-4,3.48,-17.04,-25.38,193.8987,0.2129,-0.5083,55.81396,37.50024,211.491,NaN,0.0,6.0,,19 / 21,,5033,2021-05-01 19:30:43:752
0.088588,-0.035914,9.581888,0.089156,-0.037068,9.806174,-0.001591,-0.002319,-6.64E-4,3.3,-16.98,-25.32,193.8987,0.2129,-0.5083,55.81396,37.50024,211.491,NaN,0.0,6.0,,19 / 21,,5042,2021-05-01 19:30:43:761
0.088588,-0.035914,9.581888,0.089156,-0.037068,9.806174,-9.8E-4,-0.00293,-0.001886,3.3,-16.98,-25.32,193.8987,0.2129,-0.5083,55.81396,37.50024,211.491,NaN,0.0,6.0,,19 / 21,,5052,2021-05-01 19:30:43:771
0.079011,-0.040703,9.742304,0.088411,-0.036763,9.806183,2.41E-4,-0.003541,0.00239,3.18,-17.04,-25.26,190.6908,0.2166,-0.5209,55.81396,37.50024,211.491,NaN,0.0,6.0,,19 / 21,,5062,2021-05-01 19:30:43:781
0.059857,0.0,9.737515,0.088411,-0.036763,9.806183,2.41E-4,-4.87E-4,-0.001886,3.18,-17.04,-25.26,190.6908,0.2166,-0.5209,55.81396,37.50024,211.491,NaN,0.0,6.0,,19 / 21,,5072,2021-05-01 19:30:43:791
0.069434,-0.06704,9.708784,0.087775,-0.035759,9.806191,0.001463,0.001957,-6.64E-4,3.6,-17.04,-25.02,190.6908,0.2166,-0.5209,55.81396,37.50024,211.491,NaN,0.0,6.0,,19 / 21,,5082,2021-05-01 19:30:43:801
0.107742,0.0,9.826104,0.087775,-0.035759,9.806191,0.001463,-0.001098,0.001779,3.6,-17.04,-25.02,190.6908,0.2166,-0.5209,55.81396,37.50024,211.491,NaN,0.0,6.0,,19 / 21,,5092,2021-05-01 19:30:43:811
0.107742,0.0,9.826104,0.087352,-0.03522,9.806198,-9.8E-4,0.005011,-0.001275,3.84,-16.86,-25.38,193.8811,0.2089,-0.5128,55.81396,37.50024,211.491,NaN,0.0,6.0,,19 / 21,,5102,2021-05-01 19:30:43:821
0.079011,-0.071828,9.653716,0.087352,-0.03522,9.806198,-0.004035,-0.001709,-0.002497,3.84,-16.86,-25.38,193.8811,0.2089,-0.5128,55.81396,37.50024,211.491,NaN,0.0,6.0,,19 / 21,,5112,2021-05-01 19:30:43:831
0.114925,0.014366,9.883567,0.087284,-0.034885,9.806199,-0.002202,0.001957,-5.3E-5,3.36,-16.5,-25.74,193.8811,0.2089,-0.5128,55.81396,37.50024,211.491,NaN,0.0,6.0,,19 / 21,,5122,2021-05-01 19:30:43:841
0.074223,-0.031126,9.744699,0.087284,-0.034885,9.806199,-3.7E-4,7.35E-4,-6.64E-4,3.36,-16.5,-25.74,193.8811,0.2089,-0.5128,55.81396,37.50024,211.491,NaN,0.0,6.0,,19 / 21,,5132,2021-05-01 19:30:43:851
0.0838,-0.031126,9.890749,0.087189,-0.033654,9.806205,2.41E-4,0.001957,-5.3E-5,3.12,-16.74,-24.84,190.6788,0.2038,-0.51,55.81396,37.50024,211.491,NaN,0.0,6.0,,19 / 21,,5142,2021-05-01 19:30:43:861
0.0838,-0.031126,9.890749,0.087189,-0.033654,9.806205,0.001463,-0.001709,5.58E-4,3.12,-16.74,-24.84,190.6788,0.2038,-0.51,55.81396,37.50024,211.491,NaN,0.0,6.0,,19 / 21,,5153,2021-05-01 19:30:43:872
0.098165,-0.088588,9.780613,0.086711,-0.031737,9.806215,-0.002202,0.001346,0.001779,3.36,-17.04,-24.48,190.6788,0.2038,-0.51,55.81396,37.50024,211.491,NaN,0.0,6.0,,19 / 21,,5162,2021-05-01 19:30:43:881
0.110137,-0.086194,9.656111,0.086711,-0.031737,9.806215,-9.8E-4,-0.00293,-0.001275,3.36,-17.04,-24.48,190.6788,0.2038,-0.51,55.81396,37.50024,211.491,NaN,0.0,6.0,,19 / 21,,5173,2021-05-01 19:30:43:892
0.079011,0.023943,9.680053,0.087268,-0.032191,9.80621,-9.8E-4,1.24E-4,-0.002497,3.12,-16.68,-25.08,190.6789,0.1854,-0.5066,55.81396,37.50024,211.491,NaN,0.0,6.0,,19 / 21,,5182,2021-05-01 19:30:43:901
0.045491,0.002394,9.799767,0.086557,-0.031634,9.806217,-0.001591,-4.87E-4,-6.64E-4,2.82,-16.68,-24.9,190.6789,0.1854,-0.5066,55.81396,37.50024,211.491,NaN,0.0,6.0,,19 / 21,,5192,2021-05-01 19:30:43:911
0.045491,0.002394,9.799767,0.086557,-0.031634,9.806217,8.52E-4,0.001957,-0.002497,2.82,-16.68,-24.9,190.6789,0.1854,-0.5066,55.81396,37.50024,211.491,NaN,0.0,6.0,,19 / 21,,5203,2021-05-01 19:30:43:922
0.081405,-0.064645,9.783007,0.086597,-0.032049,9.806215,-9.8E-4,-0.00293,-0.001275,3.3,-17.04,-25.38,190.6789,0.1854,-0.5066,55.81396,37.50024,211.491,NaN,0.0,6.0,,19 / 21,,5212,2021-05-01 19:30:43:931
0.079011,-0.047885,9.833286,0.086597,-0.032049,9.806215,-0.001591,1.24E-4,-6.64E-4,3.3,-17.04,-25.38,190.6789,0.1854,-0.5066,55.81396,37.50024,211.491,NaN,0.0,6.0,,19 / 21,,5222,2021-05-01 19:30:43:941
0.079011,-0.047885,9.833286,0.086926,-0.031595,9.806213,-0.001591,1.24E-4,-6.64E-4,3.72,-17.16,-25.38,193.879,0.1872,-0.506,55.81396,37.50024,211.491,NaN,0.0,6.0,,19 / 21,,5232,2021-05-01 19:30:43:951
0.090982,-0.035914,9.70639,0.086606,-0.031743,9.806216,2.41E-4,-4.87E-4,-0.002497,4.02,-17.04,-25.32,193.879,0.1872,-0.506,55.81396,37.50024,211.491,NaN,0.0,6.0,,19 / 21,,5243,2021-05-01 19:30:43:962
0.0838,-0.052674,9.744699,0.086606,-0.031743,9.806216,-3.7E-4,0.001346,0.001169,4.02,-17.04,-25.32,193.879,0.1872,-0.506,55.81396,37.50024,211.491,NaN,0.0,6.0,,19 / 21,,5252,2021-05-01 19:30:43:971
0.098165,-0.040703,9.672871,0.086501,-0.032871,9.806213,-0.002202,0.001957,0.001169,3.6,-16.62,-25.08,193.879,0.1872,-0.506,55.81396,37.50024,211.491,NaN,0.0,6.0,,19 / 21,,5262,2021-05-01 19:30:43:981
0.095771,-0.028731,9.692024,0.086501,-0.032871,9.806213,-3.7E-4,0.001957,-5.3E-5,3.6,-16.62,-25.08,193.879,0.1872,-0.506,55.81396,37.50024,211.491,NaN,0.0,6.0,,19 / 21,,5273,2021-05-01 19:30:43:992
0.095771,-0.028731,9.692024,0.086691,-0.035291,9.806204,-0.002202,1.24E-4,-5.3E-5,3.48,-16.5,-24.6,191.3225,0.1921,-0.5054,55.81396,37.50024,211.491,NaN,0.0,6.0,,19 / 21,,5282,2021-05-01 19:30:44:001
0.081405,-0.06704,9.672871,0.086729,-0.036634,9.806198,-0.001591,-0.002319,0.003001,3.12,-16.68,-24.66,191.3225,0.1921,-0.5054,55.81396,37.50024,211.491,NaN,0.0,6.0,,19 / 21,,5292,2021-05-01 19:30:44:011
0.10056,-0.047885,9.828498,0.086729,-0.036634,9.806198,0.002074,7.35E-4,-5.3E-5,3.12,-16.68,-24.66,191.3225,0.1921,-0.5054,55.81396,37.50024,211.491,NaN,0.0,6.0,,19 / 21,,5302,2021-05-01 19:30:44:021
0.10056,-0.047885,9.828498,0.086864,-0.039123,9.806188,-0.004035,-0.002319,-0.001886,3.54,-16.74,-24.24,191.3225,0.1921,-0.5054,55.81396,37.50024,211.491,NaN,0.0,6.0,,19 / 21,,5312,2021-05-01 19:30:44:031
0.06704,-0.045491,9.668081,0.086864,-0.039123,9.806188,2.41E-4,0.001957,0.001779,3.54,-16.74,-24.24,191.3225,0.1921,-0.5054,55.81396,37.50024,211.491,NaN,0.0,6.0,,19 / 21,,5323,2021-05-01 19:30:44:042
0.0838,-0.019154,9.802161,0.087223,-0.040881,9.806177,8.52E-4,-0.002319,5.58E-4,3.36,-17.16,-24.42,190.6425,0.2286,-0.5075,55.81396,37.50024,211.491,NaN,0.0,6.0,,19 / 21,,5332,2021-05-01 19:30:44:051
0.090982,-0.021548,9.797373,0.087685,-0.041553,9.80617,-3.7E-4,-0.001709,-0.002497,3.3,-17.1,-24.6,190.6425,0.2286,-0.5075,55.81396,37.50024,211.491,NaN,0.0,6.0,,19 / 21,,5342,2021-05-01 19:30:44:061
0.090982,-0.021548,9.797373,0.087685,-0.041553,9.80617,-3.7E-4,-0.001709,-0.002497,3.3,-17.1,-24.6,190.6425,0.2286,-0.5075,55.81396,37.50024,211.491,NaN,0.0,6.0,,19 / 21,,5352,2021-05-01 19:30:44:071
0.090982,-0.021548,9.785401,0.088451,-0.041761,9.806163,8.52E-4,-0.001098,0.001169,4.44,-16.5,-25.26,190.6425,0.2286,-0.5075,55.81396,37.50024,211.491,NaN,0.0,6.0,,19 / 21,,5362,2021-05-01 19:30:44:081
0.079011,-0.014366,9.684841,0.088451,-0.041761,9.806163,0.001463,-4.87E-4,-5.3E-5,4.44,-16.5,-25.26,190.6425,0.2286,-0.5075,55.81396,37.50024,211.491,NaN,0.0,6.0,,19 / 21,,5372,2021-05-01 19:30:44:091
0.079011,-0.014366,9.684841,0.089245,-0.041005,9.806158,0.002074,-0.002319,-5.3E-5,4.14,-15.66,-25.26,194.6999,0.244,-0.5168,55.81396,37.50024,211.491,NaN,0.0,6.0,,19 / 21,,5382,2021-05-01 19:30:44:101
0.090982,-0.031126,9.845258,0.089471,-0.040793,9.806157,0.002074,0.001957,0.001169,3.66,-16.02,-25.38,194.6999,0.244,-0.5168,55.81396,37.50024,211.491,NaN,0.0,6.0,,19 / 21,,5392,2021-05-01 19:30:44:111
0.076617,-0.074223,9.684841,0.089471,-0.040793,9.806157,-3.7E-4,0.002567,-6.64E-4,3.66,-16.02,-25.38,194.6999,0.244,-0.5168,55.81396,37.50024,211.491,NaN,0.0,6.0,,19 / 21,,5403,2021-05-01 19:30:44:122
0.076617,-0.074223,9.684841,0.08934,-0.040746,9.806159,0.003906,-4.87E-4,-0.001275,3.6,-16.74,-24.72,194.6999,0.244,-0.5168,55.81396,37.50024,211.491,NaN,0.0,6.0,,19 / 21,,5412,2021-05-01 19:30:44:131
0.102954,-0.03352,9.833286,0.08934,-0.040746,9.806159,-0.002202,-0.002319,-5.3E-5,3.6,-16.74,-24.72,194.6999,0.244,-0.5168,55.81396,37.50024,211.491,NaN,0.0,6.0,,19 / 21,,5423,2021-05-01 19:30:44:142
0.074223,-0.03352,9.658504,0.088293,-0.041707,9.806164,0.002074,0.001346,0.001779,3.72,-17.22,-24.78,193.8838,0.2381,-0.522,55.81396,37.50024,211.491,NaN,0.0,6.0,,19 / 21,,5433,2021-05-01 19:30:44:152
0.098165,-0.03352,9.73991,0.087411,-0.041574,9.806172,-3.7E-4,1.24E-4,-6.64E-4,3.6,-16.98,-24.18,193.8838,0.2381,-0.522,55.81396,37.50024,211.491,NaN,0.0,6.0,,19 / 21,,5442,2021-05-01 19:30:44:161
0.098165,-0.03352,9.73991,0.087411,-0.041574,9.806172,-3.7E-4,1.24E-4,-6.64E-4,3.6,-16.98,-24.18,193.8838,0.2381,-0.522,55.81396,37.50024,211.491,NaN,0.0,6.0,,19 / 21,,5453,2021-05-01 19:30:44:172
0.098165,-0.002394,9.766247,0.08655,-0.041302,9.806181,-0.002202,0.003178,5.58E-4,3.84,-16.92,-24.24,193.8838,0.2381,-0.522,55.81396,37.50024,211.491,NaN,0.0,6.0,,19 / 21,,5462,2021-05-01 19:30:44:181
0.076617,-0.05028,9.797373,0.08655,-0.041302,9.806181,8.52E-4,0.001346,-6.64E-4,3.84,-16.92,-24.24,193.8838,0.2381,-0.522,55.81396,37.50024,211.491,NaN,0.0,6.0,,19 / 21,,5473,2021-05-01 19:30:44:192
0.076617,-0.05028,9.797373,0.086766,-0.04144,9.806179,-3.7E-4,-0.002319,0.001169,3.54,-17.22,-24.9,193.8603,0.2413,-0.5057,55.81396,37.50024,211.491,NaN,0.0,6.0,,19 / 21,,5482,2021-05-01 19:30:44:201
0.088588,-0.023943,9.718362,0.086975,-0.041473,9.806177,-0.001591,-0.00293,-0.001275,3.54,-17.1,-25.08,193.8603,0.2413,-0.5057,55.81396,37.50024,211.491,NaN,0.0,6.0,,19 / 21,,5492,2021-05-01 19:30:44:211
0.090982,-0.03352,9.794978,0.086975,-0.041473,9.806177,-3.7E-4,0.001957,-0.002497,3.54,-17.1,-25.08,193.8603,0.2413,-0.5057,55.81396,37.50024,211.491,NaN,0.0,6.0,,19 / 21,,5504,2021-05-01 19:30:44:223
0.088588,-0.040703,9.699207,0.087196,-0.041717,9.806173,-0.003424,-0.001098,-5.3E-5,2.94,-17.34,-25.5,193.8603,0.2413,-0.5057,55.81396,37.50024,211.491,NaN,0.0,6.0,,19 / 21,,5512,2021-05-01 19:30:44:231
0.088588,-0.040703,9.699207,0.087196,-0.041717,9.806173,8.52E-4,-0.001098,-5.3E-5,2.94,-17.34,-25.5,193.8603,0.2413,-0.5057,55.81396,37.50024,211.491,NaN,0.0,6.0,,19 / 21,,5522,2021-05-01 19:30:44:241
0.110137,-0.021548,9.73991,0.087535,-0.040955,9.806173,8.52E-4,-0.001098,-5.3E-5,3.36,-17.88,-24.78,190.0908,0.2437,-0.5095,55.81396,37.50024,211.491,NaN,0.0,6.0,,19 / 21,,5532,2021-05-01 19:30:44:251
0.076617,-0.007183,9.804555,0.087535,-0.040955,9.806173,-3.7E-4,7.35E-4,-5.3E-5,3.36,-17.88,-24.78,190.0908,0.2437,-0.5095,55.81396,37.50024,211.491,NaN,0.0,6.0,,19 / 21,,5543,2021-05-01 19:30:44:262
0.081405,-0.038308,9.735122,0.087984,-0.039492,9.806176,2.41E-4,-0.002319,5.58E-4,3.9,-17.34,-24.6,190.0908,0.2437,-0.5095,55.81396,37.50024,211.491,NaN,0.0,6.0,,19 / 21,,5552,2021-05-01 19:30:44:271
0.081405,-0.038308,9.735122,0.088427,-0.03905,9.806173,0.002074,7.35E-4,-5.3E-5,3.72,-17.1,-24.72,190.0908,0.2437,-0.5095,55.81396,37.50024,211.491,NaN,0.0,6.0,,19 / 21,,5562,2021-05-01 19:30:44:281
0.076617,-0.026337,9.838076,0.088427,-0.03905,9.806173,-0.001591,-4.87E-4,-0.002497,3.72,-17.1,-24.72,190.0908,0.2437,-0.5095,55.81396,37.50024,211.491,NaN,0.0,6.0,,19 / 21,,5572,2021-05-01 19:30:44:291
0.102954,-0.057463,9.694419,0.088457,-0.038928,9.806173,2.41E-4,1.24E-4,0.001779,3.78,-17.7,-24.96,193.1403,0.2282,-0.5167,55.81396,37.50024,211.491,NaN,0.0,6.0,,19 / 21,,5583,2021-05-01 19:30:44:302
0.090982,-0.031126,9.727939,0.089039,-0.039113,9.806168,2.41E-4,-4.87E-4,0.00239,3.3,-17.52,-24.66,193.1403,0.2282,-0.5167,55.81396,37.50024,211.491,NaN,0.0,6.0,,19 / 21,,5592,2021-05-01 19:30:44:311
0.090982,-0.031126,9.727939,0.089039,-0.039113,9.806168,-3.7E-4,7.35E-4,-0.003107,3.3,-17.52,-24.66,193.1403,0.2282,-0.5167,55.81396,37.50024,211.491,NaN,0.0,6.0,,19 / 21,,5602,2021-05-01 19:30:44:321
0.098165,-0.047885,9.727939,0.089363,-0.038835,9.806167,0.001463,-0.002319,-0.002497,3.0,-17.04,-24.36,193.1403,0.2282,-0.5167,55.81396,37.50024,211.491,NaN,0.0,6.0,,19 / 21,,5612,2021-05-01 19:30:44:331
0.076617,-0.019154,9.759064,0.089363,-0.038835,9.806167,0.001463,-0.002319,-0.002497,3.0,-17.04,-24.36,193.1403,0.2282,-0.5167,55.81396,37.50024,211.491,NaN,0.0,6.0,,19 / 21,,5622,2021-05-01 19:30:44:341
0.090982,-0.040703,9.747093,0.089384,-0.038739,9.806167,-0.003424,7.35E-4,-5.3E-5,3.18,-17.1,-24.6,190.6898,0.2269,-0.5221,55.81396,37.50024,211.491,NaN,0.0,6.0,,19 / 21,,5632,2021-05-01 19:30:44:351
0.074223,-0.021548,9.799767,0.089242,-0.038762,9.806168,-0.001591,-0.003541,-0.002497,3.36,-16.92,-24.84,190.6898,0.2269,-0.5221,55.81396,37.50024,211.491,NaN,0.0,6.0,,19 / 21,,5643,2021-05-01 19:30:44:362
0.074223,-0.021548,9.799767,0.089242,-0.038762,9.806168,-0.001591,-0.003541,-0.002497,3.36,-16.92,-24.84,190.6898,0.2269,-0.5221,55.81396,37.50024,211.491,NaN,0.0,6.0,,19 / 21,,5653,2021-05-01 19:30:44:372
0.088588,-0.021548,9.75667,0.089225,-0.038769,9.806168,-0.001591,-4.87E-4,-0.003107,3.3,-16.98,-24.96,190.6898,0.2269,-0.5221,55.81396,37.50024,211.491,NaN,0.0,6.0,,19 / 21,,5662,2021-05-01 19:30:44:381
0.081405,-0.035914,9.749487,0.089225,-0.038769,9.806168,-9.8E-4,1.24E-4,-5.3E-5,3.3,-16.98,-24.96,190.6898,0.2269,-0.5221,55.81396,37.50024,211.491,NaN,0.0,6.0,,19 / 21,,5672,2021-05-01 19:30:44:391
0.086194,-0.028731,9.754275,0.089147,-0.038417,9.80617,-0.002202,-4.87E-4,-5.3E-5,2.82,-17.46,-24.6,190.6888,0.2265,-0.5213,55.81396,37.50024,211.491,NaN,0.0,6.0,,19 / 21,,5683,2021-05-01 19:30:44:402
0.086194,-0.028731,9.754275,0.089147,-0.038417,9.80617,-3.7E-4,-0.002319,-0.001886,2.82,-17.46,-24.6,190.6888,0.2265,-0.5213,55.81396,37.50024,211.491,NaN,0.0,6.0,,19 / 21,,5692,2021-05-01 19:30:44:411
0.081405,-0.047885,9.732727,0.088622,-0.037514,9.806178,-0.002813,1.24E-4,-0.001275,2.76,-17.22,-24.78,190.6888,0.2265,-0.5213,55.81396,37.50024,211.491,NaN,0.0,6.0,,19 / 21,,5702,2021-05-01 19:30:44:421
0.090982,-0.045491,9.70639,0.088622,-0.037514,9.806178,-0.001591,-0.00293,-6.64E-4,2.76,-17.22,-24.78,190.6888,0.2265,-0.5213,55.81396,37.50024,211.491,NaN,0.0,6.0,,19 / 21,,5712,2021-05-01 19:30:44:431
0.076617,-0.043097,9.759064,0.088081,-0.036532,9.806187,0.001463,0.002567,5.58E-4,2.64,-17.1,-24.9,190.6858,0.2192,-0.5178,55.81396,37.50024,211.491,NaN,0.0,6.0,,19 / 21,,5723,2021-05-01 19:30:44:442
0.079011,-0.031126,9.77343,0.088081,-0.036532,9.806187,-0.001591,7.35E-4,0.001169,2.64,-17.1,-24.9,190.6858,0.2192,-0.5178,55.81396,37.50024,211.491,NaN,0.0,6.0,,19 / 21,,5732,2021-05-01 19:30:44:451
0.079011,-0.031126,9.77343,0.087827,-0.036261,9.80619,-0.001591,7.35E-4,0.001169,2.82,-16.5,-25.2,190.6858,0.2192,-0.5178,55.81396,37.50024,211.491,NaN,0.0,6.0,,19 / 21,,5742,2021-05-01 19:30:44:461
0.059857,-0.040703,9.742304,0.087827,-0.036261,9.80619,0.001463,-0.001098,5.58E-4,2.82,-16.5,-25.2,190.6858,0.2192,-0.5178,55.81396,37.50024,211.491,NaN,0.0,6.0,,19 / 21,,5752,2021-05-01 19:30:44:471
0.10056,-0.045491,9.778218,0.087694,-0.0363,9.80619,-3.7E-4,1.24E-4,0.001169,4.08,-16.14,-25.26,194.7056,0.2121,-0.5124,55.81396,37.50024,211.491,NaN,0.0,6.0,,19 / 21,,5763,2021-05-01 19:30:44:482
0.074223,-0.031126,9.754275,0.087694,-0.0363,9.80619,0.002685,0.002567,0.001169,4.08,-16.14,-25.26,194.7056,0.2121,-0.5124,55.81396,37.50024,211.491,NaN,0.0,6.0,,19 / 21,,5772,2021-05-01 19:30:44:491
0.074223,-0.031126,9.754275,0.087685,-0.036607,9.80619,8.52E-4,-4.87E-4,0.001779,4.02,-16.56,-25.08,194.7056,0.2121,-0.5124,55.81396,37.50024,211.491,NaN,0.0,6.0,,19 / 21,,5782,2021-05-01 19:30:44:501
0.074223,-0.03352,9.747093,0.087685,-0.036607,9.80619,-3.7E-4,7.35E-4,5.58E-4,4.02,-16.56,-25.08,194.7056,0.2121,-0.5124,55.81396,37.50024,211.491,NaN,0.0,6.0,,19 / 21,,5793,2021-05-01 19:30:44:512
0.086194,-0.052674,9.720756,0.086848,-0.036713,9.806196,0.001463,-0.001709,-5.3E-5,3.6,-16.86,-24.72,193.8787,0.2139,-0.5123,55.81396,37.50024,211.491,NaN,0.0,6.0,,19 / 21,,5803,2021-05-01 19:30:44:522
0.095771,-0.040703,9.759064,0.086848,-0.036713,9.806196,-3.7E-4,1.24E-4,-6.64E-4,3.6,-16.86,-24.72,193.8787,0.2139,-0.5123,55.81396,37.50024,211.491,NaN,0.0,6.0,,19 / 21,,5812,2021-05-01 19:30:44:531
0.095771,-0.040703,9.759064,0.086988,-0.037015,9.806194,-3.7E-4,1.24E-4,-6.64E-4,3.78,-16.74,-24.36,193.8787,0.2139,-0.5123,55.81396,37.50024,211.491,NaN,0.0,6.0,,19 / 21,,5823,2021-05-01 19:30:44:542
0.086194,-0.038308,9.749487,0.086988,-0.037015,9.806194,0.001463,-0.002319,-0.002497,3.78,-16.74,-24.36,193.8787,0.2139,-0.5123,55.81396,37.50024,211.491,NaN,0.0,6.0,,19 / 21,,5832,2021-05-01 19:30:44:551
0.062251,-0.009577,9.79019,0.0869,-0.036731,9.806196,2.41E-4,-4.87E-4,-5.3E-5,3.72,-16.26,-24.84,194.698,0.2163,-0.5082,55.81396,37.50024,211.491,NaN,0.0,6.0,,19 / 21,,5842,2021-05-01 19:30:44:561
0.102954,-0.047885,9.75667,0.0869,-0.036731,9.806196,-3.7E-4,7.35E-4,-5.3E-5,3.72,-16.26,-24.84,194.698,0.2163,-0.5082,55.81396,37.50024,211.491,NaN,0.0,6.0,,19 / 21,,5853,2021-05-01 19:30:44:572
0.102954,-0.047885,9.75667,0.086096,-0.036066,9.806206,-0.001591,-0.001709,-0.002497,3.96,-15.9,-24.54,194.698,0.2163,-0.5082,55.81396,37.50024,211.491,NaN,0.0,6.0,,19 / 21,,5862,2021-05-01 19:30:44:581
0.081405,-0.045491,9.775824,0.086096,-0.036066,9.806206,0.001463,-0.001709,-0.002497,3.96,-15.9,-24.54,194.698,0.2163,-0.5082,55.81396,37.50024,211.491,NaN,0.0,6.0,,19 / 21,,5872,2021-05-01 19:30:44:591
0.079011,-0.021548,9.763853,0.085889,-0.035945,9.806208,-0.002813,-0.00293,-0.004329,4.38,-15.96,-24.54,194.6925,0.2107,-0.503,55.81396,37.50024,211.491,NaN,0.0,6.0,,19 / 21,,5882,2021-05-01 19:30:44:601
0.079011,-0.021548,9.763853,0.085889,-0.035945,9.806208,0.001463,7.35E-4,0.003612,4.38,-15.96,-24.54,194.6925,0.2107,-0.503,55.81396,37.50024,211.491,NaN,0.0,6.0,,19 / 21,,5892,2021-05-01 19:30:44:611
0.090982,-0.01676,9.737515,0.085743,-0.035819,9.80621,-0.004646,-0.001098,5.58E-4,4.02,-16.44,-24.48,194.6925,0.2107,-0.503,55.81396,37.50024,211.491,NaN,0.0,6.0,,19 / 21,,5903,2021-05-01 19:30:44:622
0.098165,-0.038308,9.749487,0.085743,-0.035819,9.80621,-9.8E-4,0.003178,-0.004329,4.02,-16.44,-24.48,194.6925,0.2107,-0.503,55.81396,37.50024,211.491,NaN,0.0,6.0,,19 / 21,,5912,2021-05-01 19:30:44:631
0.093377,-0.019154,9.787795,0.085499,-0.035198,9.806214,-9.8E-4,0.003178,-0.004329,3.48,-16.56,-24.54,190.6646,0.2093,-0.501,55.81396,37.50024,211.491,NaN,0.0,6.0,,19 / 21,,5922,2021-05-01 19:30:44:641
0.0838,-0.035914,9.771035,0.085499,-0.035198,9.806214,-0.002202,-4.87E-4,5.58E-4,3.48,-16.56,-24.54,190.6646,0.2093,-0.501,55.81396,37.50024,211.491,NaN,0.0,6.0,,19 / 21,,5932,2021-05-01 19:30:44:651
0.0838,-0.035914,9.771035,0.08482,-0.034714,9.806222,8.52E-4,0.001957,-6.64E-4,3.6,-17.1,-25.5,190.6646,0.2093,-0.501,55.81396,37.50024,211.491,NaN,0.0,6.0,,19 / 21,,5942,2021-05-01 19:30:44:661
0.081405,-0.023943,9.754275,0.08482,-0.034714,9.806222,-0.002813,0.001346,-5.3E-5,3.6,-17.1,-25.5,190.6646,0.2093,-0.501,55.81396,37.50024,211.491,NaN,0.0,6.0,,19 / 21,,5952,2021-05-01 19:30:44:671
0.076617,-0.028731,9.768641,0.084498,-0.034905,9.806224,-3.7E-4,0.001957,0.001169,3.42,-16.92,-25.32,190.6587,0.2028,-0.4956,55.81396,37.50024,211.491,NaN,0.0,6.0,,19 / 21,,5962,2021-05-01 19:30:44:681
0.088588,-0.035914,9.73991,0.084498,-0.034905,9.806224,0.001463,7.35E-4,0.001779,3.42,-16.92,-25.32,190.6587,0.2028,-0.4956,55.81396,37.50024,211.491,NaN,0.0,6.0,,19 / 21,,5973,2021-05-01 19:30:44:692
