ACCELEROMETER X (m/s²),ACCELEROMETER Y (m/s²),ACCELEROMETER Z (m/s²),GRAVITY X (m/s²),GRAVITY Y (m/s²),GRAVITY Z (m/s²),GYROSCOPE X (rad/s),GYROSCOPE Y (rad/s),GYROSCOPE Z (rad/s),MAGNETIC FIELD X (μT),MAGNETIC FIELD Y (μT),MAGNETIC FIELD Z (μT),ORIENTATION Z (azimuth °),ORIENTATION X (pitch °),ORIENTATION Y (roll °),LOCATION Latitude : ,LOCATION Longitude : ,LOCATION Altitude ( m),LOCATION Altitude-google ( m),LOCATION Speed ( m/s),LOCATION Accuracy ( m),LOCATION ORIENTATION (°),Satellites in range,GPS NMEA,Time since start in ms ,YYYY-MO-DD HH-MI-SS_SSS
0.001939,0.009164,9.78051,3.45E-4,-0.001005,9.806652,0.002461,-0.003541,2.26E-4,1.26,-15.12,-26.64,185.972,0.1698,-1.2261,55.813835,37.50017,181.0538,NaN,0.0,12.0,,21 / 23,,15,2021-05-01 19:21:13:084
-0.001245,0.009611,9.742261,3.45E-4,-0.001005,9.806652,1.8E-5,0.004401,0.00328,1.26,-15.12,-26.64,185.972,0.1698,-1.2261,55.813835,37.50017,181.0538,NaN,0.0,12.0,,21 / 23,,25,2021-05-01 19:21:13:094
-0.003326,0.012229,9.744714,1.88E-4,-9.9E-4,9.806652,6.29E-4,0.002568,0.002669,1.8,-15.12,-26.58,185.972,0.1698,-1.2261,55.813835,37.50017,181.0538,NaN,0.0,12.0,,21 / 23,,35,2021-05-01 19:21:13:104
-0.006306,0.00774,9.739963,9.45E-4,-5.74E-4,9.80665,0.001239,0.005622,0.005724,2.04,-15.12,-26.52,189.6974,0.1642,-1.2244,55.813835,37.50017,181.0538,NaN,0.0,12.0,,21 / 23,,45,2021-05-01 19:21:13:114
-0.006306,0.00774,9.739963,9.45E-4,-5.74E-4,9.80665,0.002461,0.001957,0.002059,2.04,-15.12,-26.52,189.6974,0.1642,-1.2244,55.813835,37.50017,181.0538,NaN,0.0,12.0,,21 / 23,,55,2021-05-01 19:21:13:124
-0.00899,-0.009799,9.747086,9.45E-4,-5.74E-4,9.80665,0.002461,0.001957,0.002059,2.04,-15.12,-26.52,189.6974,0.1642,-1.2244,55.813835,37.50017,181.0538,NaN,0.0,12.0,,21 / 23,,65,2021-05-01 19:21:13:134
-0.00899,-0.009799,9.747086,0.001618,-9.37E-4,9.80665,0.001239,1.25E-4,0.002669,1.92,-14.58,-26.22,189.6974,0.1642,-1.2244,55.813835,37.50017,181.0538,NaN,0.0,12.0,,21 / 23,,76,2021-05-01 19:21:13:145
0.011631,-0.010314,9.77536,0.001042,-5.59E-4,9.806649,0.002461,0.004401,0.003891,1.86,-14.52,-26.58,189.6807,0.1604,-1.2141,55.813835,37.50017,181.0538,NaN,0.0,12.0,,21 / 23,,85,2021-05-01 19:21:13:154
0.013591,0.0136,9.78984,0.002138,-0.001027,9.806649,0.003072,0.004401,0.006335,2.46,-15.24,-26.76,189.6807,0.1604,-1.2141,55.813835,37.50017,181.0538,NaN,0.0,12.0,,21 / 23,,96,2021-05-01 19:21:13:165
0.013591,0.0136,9.78984,0.002138,-0.001027,9.806649,0.001239,0.002568,8.37E-4,2.46,-15.24,-26.76,189.6807,0.1604,-1.2141,55.813835,37.50017,181.0538,NaN,0.0,12.0,,21 / 23,,105,2021-05-01 19:21:13:174
0.022684,-0.01458,9.758344,0.003083,-0.001497,9.806649,1.8E-5,0.001346,0.002059,2.04,-14.76,-26.58,189.6807,0.1604,-1.2141,55.813835,37.50017,181.0538,NaN,0.0,12.0,,21 / 23,,115,2021-05-01 19:21:13:184
-0.002502,0.023739,9.751915,1.39E-4,-2.8E-5,9.806651,6.29E-4,-4.86E-4,8.37E-4,1.62,-15.18,-26.76,189.649,0.1548,-1.1949,55.813835,37.50017,181.0538,NaN,0.0,12.0,,21 / 23,,126,2021-05-01 19:21:13:195
-0.00709,0.001175,9.758978,1.39E-4,-2.8E-5,9.806651,6.29E-4,-4.86E-4,8.37E-4,1.62,-15.18,-26.76,189.649,0.1548,-1.1949,55.813835,37.50017,181.0538,NaN,0.0,12.0,,21 / 23,,135,2021-05-01 19:21:13:204
-0.00709,0.001175,9.758978,0.001473,-8.88E-4,9.80665,-0.001204,-0.002319,0.00328,1.92,-15.0,-26.58,189.649,0.1548,-1.1949,55.813835,37.50017,181.0538,NaN,0.0,12.0,,21 / 23,,145,2021-05-01 19:21:13:214
0.002703,0.001946,9.75639,0.001473,-8.88E-4,9.80665,6.29E-4,-0.002319,0.00328,1.92,-15.0,-26.58,189.649,0.1548,-1.1949,55.813835,37.50017,181.0538,NaN,0.0,12.0,,21 / 23,,155,2021-05-01 19:21:13:224
0.004259,0.025981,9.751717,7.74E-4,-2.6E-5,9.80665,0.001239,-0.00293,-9.96E-4,2.22,-14.82,-27.06,189.6338,0.1511,-1.1856,55.813835,37.50017,181.0538,NaN,0.0,12.0,,21 / 23,,165,2021-05-01 19:21:13:234
-0.014273,0.012773,9.747182,7.74E-4,-2.6E-5,9.80665,-0.001815,-0.004151,0.002059,2.22,-14.82,-27.06,189.6338,0.1511,-1.1856,55.813835,37.50017,181.0538,NaN,0.0,12.0,,21 / 23,,176,2021-05-01 19:21:13:245
-0.014273,0.012773,9.747182,0.00119,9.7E-5,9.80665,0.002461,0.003179,0.002669,1.86,-14.64,-26.52,189.6338,0.1511,-1.1856,55.813835,37.50017,181.0538,NaN,0.0,12.0,,21 / 23,,186,2021-05-01 19:21:13:255
0.004593,-0.007486,9.768235,0.001757,-3.74E-4,9.806651,-5.93E-4,-0.00293,8.37E-4,1.98,-14.76,-26.34,189.6338,0.1511,-1.1856,55.813835,37.50017,181.0538,NaN,0.0,12.0,,21 / 23,,195,2021-05-01 19:21:13:264
-0.002664,0.010828,9.73736,0.001757,-3.74E-4,9.806651,-0.001204,-0.003541,8.37E-4,1.98,-14.76,-26.34,189.6338,0.1511,-1.1856,55.813835,37.50017,181.0538,NaN,0.0,12.0,,21 / 23,,206,2021-05-01 19:21:13:275
-0.009998,-0.004952,9.746989,7.26E-4,-6.7E-5,9.806649,0.001239,0.001346,0.004502,1.62,-15.36,-27.3,189.6157,0.1507,-1.1751,55.813835,37.50017,181.0538,NaN,0.0,12.0,,21 / 23,,215,2021-05-01 19:21:13:284
5.45E-4,0.010327,9.749228,8.24E-4,-2.58E-4,9.80665,0.001239,1.25E-4,-9.96E-4,1.62,-15.6,-27.66,189.6157,0.1507,-1.1751,55.813835,37.50017,181.0538,NaN,0.0,12.0,,21 / 23,,226,2021-05-01 19:21:13:295
5.45E-4,0.010327,9.749228,8.24E-4,-2.58E-4,9.80665,0.001239,0.001957,0.00328,1.62,-15.6,-27.66,189.6157,0.1507,-1.1751,55.813835,37.50017,181.0538,NaN,0.0,12.0,,21 / 23,,235,2021-05-01 19:21:13:304
0.004397,0.002345,9.765867,8.24E-4,-2.58E-4,9.80665,6.29E-4,-0.00293,0.004502,1.62,-15.6,-27.66,189.6157,0.1507,-1.1751,55.813835,37.50017,181.0538,NaN,0.0,12.0,,21 / 23,,245,2021-05-01 19:21:13:314
-0.003388,-0.001206,9.770789,0.001043,6.99E-4,9.80665,1.8E-5,0.004401,2.26E-4,1.62,-15.12,-27.18,189.6157,0.1507,-1.1751,55.813835,37.50017,181.0538,NaN,0.0,12.0,,21 / 23,,256,2021-05-01 19:21:13:325
-0.00236,0.012363,9.754072,2.85E-4,7.28E-4,9.80665,0.002461,0.002568,0.002669,1.86,-15.24,-26.52,189.605,0.1557,-1.1698,55.813835,37.50017,181.0538,NaN,0.0,12.0,,21 / 23,,266,2021-05-01 19:21:13:335
-0.00236,0.012363,9.754072,2.85E-4,7.28E-4,9.80665,0.002461,0.002568,0.002669,1.86,-15.24,-26.52,189.605,0.1557,-1.1698,55.813835,37.50017,181.0538,NaN,0.0,12.0,,21 / 23,,276,2021-05-01 19:21:13:345
-0.007022,-0.001432,9.758869,2.29E-4,9.82E-4,9.80665,-0.001204,1.25E-4,2.26E-4,2.46,-15.06,-26.58,189.605,0.1557,-1.1698,55.813835,37.50017,181.0538,NaN,0.0,12.0,,21 / 23,,285,2021-05-01 19:21:13:354
-0.019178,0.003159,9.72082,-2.11E-4,0.00178,9.80665,0.001239,-0.003541,2.26E-4,1.38,-14.58,-27.06,189.605,0.1557,-1.1698,55.813835,37.50017,181.0538,NaN,0.0,12.0,,21 / 23,,295,2021-05-01 19:21:13:364
-0.019178,0.003159,9.72082,-2.11E-4,0.00178,9.80665,0.002461,-0.003541,0.002669,1.38,-14.58,-27.06,189.605,0.1557,-1.1698,55.813835,37.50017,181.0538,NaN,0.0,12.0,,21 / 23,,306,2021-05-01 19:21:13:375
0.004662,-0.005876,9.772981,-0.001285,8.95E-4,9.80665,0.002461,-0.003541,0.002669,1.2,-15.36,-26.88,185.8783,0.1658,-1.1727,55.813835,37.50017,181.0538,NaN,0.0,12.0,,21 / 23,,316,2021-05-01 19:21:13:385
0.004662,-0.005876,9.772981,-0.001285,8.95E-4,9.80665,0.00185,0.002568,0.002059,1.2,-15.36,-26.88,185.8783,0.1658,-1.1727,55.813835,37.50017,181.0538,NaN,0.0,12.0,,21 / 23,,325,2021-05-01 19:21:13:394
-0.018741,-0.004796,9.759108,-0.001696,0.001353,9.80665,0.001239,-0.001708,0.00328,1.86,-15.3,-27.0,185.8783,0.1658,-1.1727,55.813835,37.50017,181.0538,NaN,0.0,12.0,,21 / 23,,335,2021-05-01 19:21:13:404
0.017515,-0.003719,9.76078,-0.003226,0.001935,9.806649,1.8E-5,1.25E-4,0.001448,1.98,-15.06,-27.72,185.8783,0.1658,-1.1727,55.813835,37.50017,181.0538,NaN,0.0,12.0,,21 / 23,,345,2021-05-01 19:21:13:414
-0.001919,-0.001664,9.742023,-0.003226,0.001935,9.806649,0.004905,0.005012,0.002669,1.98,-15.06,-27.72,185.8783,0.1658,-1.1727,55.813835,37.50017,181.0538,NaN,0.0,12.0,,21 / 23,,355,2021-05-01 19:21:13:424
-0.013238,0.004301,9.747068,-0.003226,0.001935,9.806649,0.001239,0.005622,0.002059,2.04,-14.82,-27.0,189.639,0.1751,-1.1926,55.813835,37.50017,181.0538,NaN,0.0,12.0,,21 / 23,,366,2021-05-01 19:21:13:435
-0.013238,0.004301,9.747068,-9.88E-4,9.64E-4,9.806652,0.00185,-0.003541,0.002059,2.04,-14.82,-27.0,189.639,0.1751,-1.1926,55.813835,37.50017,181.0538,NaN,0.0,12.0,,21 / 23,,376,2021-05-01 19:21:13:445
0.02697,0.001539,9.777459,-0.001505,0.001374,9.806652,-0.001204,-0.001708,0.005724,1.8,-14.88,-26.16,189.639,0.1751,-1.1926,55.813835,37.50017,181.0538,NaN,0.0,12.0,,21 / 23,,386,2021-05-01 19:21:13:455
0.02697,9.65E-4,9.756399,-0.001505,0.001374,9.806652,1.8E-5,-0.001708,0.003891,1.8,-14.88,-26.16,189.639,0.1751,-1.1926,55.813835,37.50017,181.0538,NaN,0.0,12.0,,21 / 23,,395,2021-05-01 19:21:13:464
0.002137,9.65E-4,9.756399,-5.66E-4,2.65E-4,9.806651,1.8E-5,-0.001097,-9.96E-4,1.56,-14.82,-26.28,189.579,0.1815,-1.2026,55.813835,37.50017,181.0538,NaN,0.0,12.0,,21 / 23,,405,2021-05-01 19:21:13:474
-0.0074,-0.008249,9.756569,-5.66E-4,2.65E-4,9.806651,1.8E-5,-0.001097,-9.96E-4,1.56,-14.82,-26.28,189.579,0.1815,-1.2026,55.813835,37.50017,181.0538,NaN,0.0,12.0,,21 / 23,,415,2021-05-01 19:21:13:484
-0.006651,-0.003512,9.754189,-5.66E-4,2.65E-4,9.806651,0.002461,7.35E-4,0.001448,1.56,-14.82,-26.28,189.579,0.1815,-1.2026,55.813835,37.50017,181.0538,NaN,0.0,12.0,,21 / 23,,426,2021-05-01 19:21:13:495
-0.011885,0.009535,9.747197,-0.001033,0.001036,9.80665,0.001239,0.003179,-3.85E-4,1.68,-14.88,-26.46,189.579,0.1815,-1.2026,55.813835,37.50017,181.0538,NaN,0.0,12.0,,21 / 23,,435,2021-05-01 19:21:13:504
0.010348,0.007426,9.725209,-7.61E-4,7.55E-4,9.80665,6.29E-4,0.002568,0.00328,2.04,-15.36,-26.4,189.5892,0.1865,-1.2096,55.813835,37.50017,181.0538,NaN,0.0,12.0,,21 / 23,,446,2021-05-01 19:21:13:515
0.010348,0.007426,9.725209,-7.61E-4,7.55E-4,9.80665,0.00185,0.00379,0.002059,2.04,-15.36,-26.4,189.5892,0.1865,-1.2096,55.813835,37.50017,181.0538,NaN,0.0,12.0,,21 / 23,,455,2021-05-01 19:21:13:524
1.49E-4,0.008887,9.804455,-0.001082,5.03E-4,9.80665,0.00185,0.003179,8.37E-4,1.74,-15.66,-26.4,189.5892,0.1865,-1.2096,55.813835,37.50017,181.0538,NaN,0.0,12.0,,21 / 23,,465,2021-05-01 19:21:13:534
0.018303,0.00594,9.768145,-0.001082,5.03E-4,9.80665,6.29E-4,0.001346,0.005724,1.74,-15.66,-26.4,189.5892,0.1865,-1.2096,55.813835,37.50017,181.0538,NaN,0.0,12.0,,21 / 23,,476,2021-05-01 19:21:13:545
0.018303,0.00594,9.768145,-0.001082,5.03E-4,9.80665,0.001239,-0.001708,2.26E-4,1.5,-15.72,-26.58,189.0851,0.1884,-1.2163,55.813835,37.50017,181.0538,NaN,0.0,12.0,,21 / 23,,486,2021-05-01 19:21:13:555
-0.008061,0.005242,9.737568,1.79E-4,7.8E-4,9.806651,0.001239,-0.001708,2.26E-4,1.5,-15.72,-26.58,189.0851,0.1884,-1.2163,55.813835,37.50017,181.0538,NaN,0.0,12.0,,21 / 23,,496,2021-05-01 19:21:13:565
0.002212,0.005953,9.758916,3.64E-4,0.001538,9.806651,0.001239,0.002568,0.005724,2.1,-15.54,-26.28,189.0851,0.1884,-1.2163,55.813835,37.50017,181.0538,NaN,0.0,12.0,,21 / 23,,505,2021-05-01 19:21:13:574
0.012753,0.01155,9.756343,3.64E-4,0.001538,9.806651,-5.93E-4,0.001957,0.002059,2.1,-15.54,-26.28,189.0851,0.1884,-1.2163,55.813835,37.50017,181.0538,NaN,0.0,12.0,,21 / 23,,515,2021-05-01 19:21:13:584
0.002292,0.004439,9.778065,3.52E-4,0.001371,9.806651,0.00185,0.002568,0.003891,2.16,-15.3,-26.04,189.5963,0.1966,-1.2155,55.813835,37.50017,181.0538,NaN,0.0,12.0,,21 / 23,,525,2021-05-01 19:21:13:594
0.002292,0.004439,9.778065,3.52E-4,0.001371,9.806651,1.8E-5,-0.001097,2.26E-4,2.16,-15.3,-26.04,189.5963,0.1966,-1.2155,55.813835,37.50017,181.0538,NaN,0.0,12.0,,21 / 23,,535,2021-05-01 19:21:13:604
-0.002857,0.007879,9.737482,3.52E-4,0.001371,9.806651,0.001239,0.005012,0.002059,2.16,-15.3,-26.04,189.5963,0.1966,-1.2155,55.813835,37.50017,181.0538,NaN,0.0,12.0,,21 / 23,,546,2021-05-01 19:21:13:615
0.01401,-0.012102,9.775317,3.15E-4,1.7E-4,9.806648,0.001239,0.00379,0.007556,1.14,-14.94,-25.44,189.5963,0.1966,-1.2155,55.813835,37.50017,181.0538,NaN,0.0,12.0,,21 / 23,,555,2021-05-01 19:21:13:624
0.004481,-0.00798,9.751591,4.77E-4,-2.31E-4,9.806651,0.002461,0.00379,0.005113,0.96,-15.3,-25.38,185.7887,0.1979,-1.2139,55.813835,37.50017,181.0538,NaN,0.0,12.0,,21 / 23,,566,2021-05-01 19:21:13:635
0.001934,-0.012404,9.756414,4.77E-4,-2.31E-4,9.806651,0.003072,7.35E-4,0.001448,0.96,-15.3,-25.38,185.7887,0.1979,-1.2139,55.813835,37.50017,181.0538,NaN,0.0,12.0,,21 / 23,,576,2021-05-01 19:21:13:645
0.001934,-0.012404,9.756414,5.97E-4,-0.001254,9.80665,0.003683,0.001346,0.003891,1.98,-16.08,-26.34,185.7887,0.1979,-1.2139,55.813835,37.50017,181.0538,NaN,0.0,12.0,,21 / 23,,585,2021-05-01 19:21:13:654
0.010081,0.001284,9.734768,0.001347,-0.002328,9.80665,6.29E-4,0.005012,0.001448,2.04,-15.9,-26.34,185.7887,0.1979,-1.2139,55.813835,37.50017,181.0538,NaN,0.0,12.0,,21 / 23,,597,2021-05-01 19:21:13:666
0.007948,0.001459,9.746787,0.001347,-0.002328,9.80665,6.29E-4,0.005012,0.001448,2.04,-15.9,-26.34,185.7887,0.1979,-1.2139,55.813835,37.50017,181.0538,NaN,0.0,12.0,,21 / 23,,605,2021-05-01 19:21:13:674
0.007948,0.001459,9.746787,0.001347,-0.002328,9.80665,-5.93E-4,-0.001708,8.37E-4,2.04,-15.9,-26.34,185.7887,0.1979,-1.2139,55.813835,37.50017,181.0538,NaN,0.0,12.0,,21 / 23,,615,2021-05-01 19:21:13:684
0.03288,-0.003223,9.767771,0.001847,-0.001937,9.806649,0.00185,0.001957,0.005113,2.34,-15.66,-26.4,188.9957,0.1851,-1.2047,55.813835,37.50017,181.0538,NaN,0.0,12.0,,21 / 23,,625,2021-05-01 19:21:13:694
0.003177,-0.022771,9.77064,0.003091,-0.002697,9.80665,-0.002426,-4.86E-4,0.001448,2.04,-15.54,-26.28,188.9957,0.1851,-1.2047,55.813835,37.50017,181.0538,NaN,0.0,12.0,,21 / 23,,635,2021-05-01 19:21:13:704
-0.011335,-0.003412,9.742323,0.003091,-0.002697,9.80665,0.00185,0.001957,0.002669,2.04,-15.54,-26.28,188.9957,0.1851,-1.2047,55.813835,37.50017,181.0538,NaN,0.0,12.0,,21 / 23,,646,2021-05-01 19:21:13:715
0.004494,-0.015739,9.780239,0.004862,-0.004135,9.806648,0.002461,-4.86E-4,0.002669,1.98,-15.42,-26.16,188.9957,0.1851,-1.2047,55.813835,37.50017,181.0538,NaN,0.0,12.0,,21 / 23,,656,2021-05-01 19:21:13:725
0.004494,-0.015739,9.780239,0.004862,-0.004135,9.806648,1.8E-5,-0.001708,0.001448,1.98,-15.42,-26.16,188.9957,0.1851,-1.2047,55.813835,37.50017,181.0538,NaN,0.0,12.0,,21 / 23,,666,2021-05-01 19:21:13:735
-0.007775,3.1E-5,9.76845,0.006456,-0.005139,9.806647,0.00185,0.00379,0.002059,2.16,-16.2,-26.22,188.9356,0.1614,-1.1627,55.813835,37.50017,181.0538,NaN,0.0,12.0,,21 / 23,,676,2021-05-01 19:21:13:745
-0.002453,-0.007981,9.734772,6.32E-4,-0.001179,9.806651,0.002461,0.005622,0.00328,2.28,-15.6,-26.28,188.9356,0.1614,-1.1627,55.81383,37.50018,181.0042,NaN,0.0,12.0,,21 / 23,,685,2021-05-01 19:21:13:754
-0.013659,0.027692,9.742388,6.32E-4,-0.001179,9.806651,0.002461,0.005622,0.00328,2.28,-15.6,-26.28,188.9356,0.1614,-1.1627,55.81383,37.50018,181.0042,NaN,0.0,12.0,,21 / 23,,695,2021-05-01 19:21:13:764
0.001598,0.013093,9.77074,0.001145,-0.001497,9.80665,1.8E-5,0.004401,0.00328,2.46,-15.36,-26.52,188.9356,0.1614,-1.1627,55.81383,37.50018,181.0042,NaN,0.0,12.0,,21 / 23,,706,2021-05-01 19:21:13:775
0.001598,0.013093,9.77074,3.87E-4,-1.16E-4,9.80665,1.8E-5,-0.00293,0.003891,2.46,-15.36,-26.04,189.5066,0.1538,-1.1548,55.81383,37.50018,181.0042,NaN,0.0,12.0,,21 / 23,,715,2021-05-01 19:21:13:784
0.009569,-0.001422,9.746519,3.87E-4,-1.16E-4,9.80665,0.004294,1.25E-4,0.002669,2.46,-15.36,-26.04,189.5066,0.1538,-1.1548,55.81383,37.50018,181.0042,NaN,0.0,12.0,,21 / 23,,725,2021-05-01 19:21:13:794
0.013373,0.007671,9.739314,5.68E-4,3.37E-4,9.80665,0.00185,-0.002319,2.26E-4,2.46,-15.6,-26.04,189.5066,0.1538,-1.1548,55.81383,37.50018,181.0042,NaN,0.0,12.0,,21 / 23,,736,2021-05-01 19:21:13:805
-0.013726,0.019484,9.742307,8.38E-4,-1.2E-4,9.80665,0.001239,-0.002319,0.002669,2.34,-16.02,-25.92,189.5066,0.1538,-1.1548,55.81383,37.50018,181.0042,NaN,0.0,12.0,,21 / 23,,746,2021-05-01 19:21:13:815
-0.006538,0.001216,9.7684,8.38E-4,-1.2E-4,9.80665,6.29E-4,7.35E-4,0.002669,2.34,-16.02,-25.92,189.5066,0.1538,-1.1548,55.81383,37.50018,181.0042,NaN,0.0,12.0,,21 / 23,,756,2021-05-01 19:21:13:825
-0.003539,-0.009191,9.770673,-3.64E-4,2.21E-4,9.806651,-0.001204,-0.004151,0.002669,1.38,-15.78,-25.8,185.4089,0.1539,-1.1498,55.81383,37.50018,181.0042,NaN,0.0,12.0,,21 / 23,,765,2021-05-01 19:21:13:834
-0.003539,-0.009191,9.770673,-3.64E-4,2.21E-4,9.806651,0.001239,1.25E-4,0.002669,1.38,-15.78,-25.8,185.4089,0.1539,-1.1498,55.81383,37.50018,181.0042,NaN,0.0,12.0,,21 / 23,,776,2021-05-01 19:21:13:845
-0.00925,0.008204,9.76368,-3.64E-4,2.21E-4,9.806651,0.002461,-0.002319,0.003891,1.38,-15.78,-25.8,185.4089,0.1539,-1.1498,55.81383,37.50018,181.0042,NaN,0.0,12.0,,21 / 23,,785,2021-05-01 19:21:13:854
-0.008872,-0.008609,9.742043,-0.001072,2.99E-4,9.80665,6.29E-4,-4.86E-4,0.001448,1.2,-15.48,-25.5,185.4089,0.1539,-1.1498,55.81383,37.50018,181.0042,NaN,0.0,12.0,,21 / 23,,796,2021-05-01 19:21:13:865
-0.010253,0.027596,9.742235,-0.001091,2.98E-4,9.806651,-5.93E-4,-0.001708,0.005113,2.58,-15.6,-25.92,192.3687,0.155,-1.1562,55.81383,37.50018,181.0042,NaN,0.0,12.0,,21 / 23,,805,2021-05-01 19:21:13:874
0.018993,-0.016484,9.75582,-0.001091,2.98E-4,9.806651,0.002461,-0.001708,2.26E-4,2.58,-15.6,-25.92,192.3687,0.155,-1.1562,55.81383,37.50018,181.0042,NaN,0.0,12.0,,21 / 23,,816,2021-05-01 19:21:13:885
0.018993,-0.016484,9.75582,-0.002133,0.001416,9.806651,6.29E-4,0.001346,-9.96E-4,2.52,-15.54,-26.1,192.3687,0.155,-1.1562,55.81383,37.50018,181.0042,NaN,0.0,12.0,,21 / 23,,826,2021-05-01 19:21:13:895
0.011722,0.016961,9.760982,-0.002133,0.001416,9.806651,-5.93E-4,-0.002319,8.37E-4,2.52,-15.54,-26.1,192.3687,0.155,-1.1562,55.81383,37.50018,181.0042,NaN,0.0,12.0,,21 / 23,,836,2021-05-01 19:21:13:905
-0.013883,0.003032,9.737429,-0.002133,0.001416,9.806651,-5.93E-4,-0.002319,8.37E-4,2.52,-15.54,-26.1,192.3687,0.155,-1.1562,55.81383,37.50018,181.0042,NaN,0.0,12.0,,21 / 23,,845,2021-05-01 19:21:13:914
-0.007758,0.020741,9.751856,-0.002283,0.002897,9.806651,1.8E-5,0.002568,0.00328,2.28,-15.42,-26.16,189.5328,0.1687,-1.1729,55.81383,37.50018,181.0042,NaN,0.0,12.0,,21 / 23,,856,2021-05-01 19:21:13:925
-0.007758,0.020741,9.751856,-2.42E-4,0.001152,9.806651,0.003072,0.00379,0.004502,2.34,-15.48,-26.46,189.5328,0.1687,-1.1729,55.81383,37.50018,181.0042,NaN,0.0,12.0,,21 / 23,,865,2021-05-01 19:21:13:934
-0.001205,1.76E-4,9.765966,-2.42E-4,0.001152,9.806651,0.004294,0.002568,0.001448,2.34,-15.48,-26.46,189.5328,0.1687,-1.1729,55.81383,37.50018,181.0042,NaN,0.0,12.0,,21 / 23,,876,2021-05-01 19:21:13:945
-0.003489,-0.014022,9.770712,-7.17E-4,0.00124,9.806651,0.001239,0.005012,0.00328,2.04,-15.3,-26.4,189.5352,0.1751,-1.1754,55.81383,37.50018,181.0042,NaN,0.0,12.0,,21 / 23,,886,2021-05-01 19:21:13:955
-0.003489,-0.014022,9.770712,-7.17E-4,0.00124,9.806651,0.002461,0.002568,2.26E-4,2.04,-15.3,-26.4,189.5352,0.1751,-1.1754,55.81383,37.50018,181.0042,NaN,0.0,12.0,,21 / 23,,896,2021-05-01 19:21:13:965
-0.009293,0.010212,9.742255,-0.001146,0.002275,9.806651,0.00185,0.003179,0.002669,2.16,-15.12,-25.86,189.5352,0.1751,-1.1754,55.81383,37.50018,181.0042,NaN,0.0,12.0,,21 / 23,,906,2021-05-01 19:21:13:975
0.005646,0.010072,9.761117,-0.001763,0.003258,9.80665,0.002461,0.001346,8.37E-4,2.34,-15.66,-25.56,189.5352,0.1751,-1.1754,55.81383,37.50018,181.0042,NaN,0.0,12.0,,21 / 23,,916,2021-05-01 19:21:13:985
0.005646,0.010072,9.761117,-0.001763,0.003258,9.80665,0.002461,0.001346,8.37E-4,2.34,-15.66,-25.56,189.5352,0.1751,-1.1754,55.81383,37.50018,181.0042,NaN,0.0,12.0,,21 / 23,,925,2021-05-01 19:21:13:994
-0.0012,-8.95E-4,9.753999,-0.001109,0.001119,9.806652,0.001239,0.00379,0.00328,2.34,-16.02,-26.04,188.9688,0.1922,-1.1887,55.81383,37.50018,181.0042,NaN,0.0,12.0,,21 / 23,,935,2021-05-01 19:21:14:004
0.024278,-0.024882,9.767757,-0.001109,0.001119,9.806652,6.29E-4,0.00379,2.26E-4,2.34,-16.02,-26.04,188.9688,0.1922,-1.1887,55.81383,37.50018,181.0042,NaN,0.0,12.0,,21 / 23,,945,2021-05-01 19:21:14:014
0.024431,-0.007923,9.763076,-0.001386,0.001282,9.806651,0.001239,0.002568,0.001448,2.1,-15.9,-26.94,188.9688,0.1922,-1.1887,55.81383,37.50018,181.0042,NaN,0.0,12.0,,21 / 23,,955,2021-05-01 19:21:14:024
0.01459,-0.006305,9.744124,-0.001386,0.001282,9.806652,0.002461,0.004401,8.37E-4,2.22,-15.42,-26.4,188.9688,0.1922,-1.1887,55.81383,37.50018,181.0042,NaN,0.0,12.0,,21 / 23,,966,2021-05-01 19:21:14:035
0.01459,-0.006305,9.744124,-0.001671,0.001215,9.806652,6.29E-4,-0.00293,8.37E-4,2.22,-15.42,-26.4,188.9688,0.1922,-1.1887,55.81383,37.50018,181.0042,NaN,0.0,12.0,,21 / 23,,975,2021-05-01 19:21:14:044
-0.029962,0.003147,9.745076,-3.6E-5,-2.22E-4,9.806649,-5.93E-4,-0.00293,8.37E-4,2.16,-15.06,-25.68,189.5691,0.1977,-1.1995,55.81383,37.50018,181.0042,NaN,0.0,12.0,,21 / 23,,985,2021-05-01 19:21:14:054
0.015039,-0.002711,9.76573,-3.6E-5,-2.22E-4,9.806649,-5.93E-4,-0.00293,8.37E-4,2.16,-15.06,-25.68,189.5691,0.1977,-1.1995,55.81383,37.50018,181.0042,NaN,0.0,12.0,,21 / 23,,996,2021-05-01 19:21:14:065
-0.012552,-0.00527,9.744712,-3.09E-4,-1.17E-4,9.80665,6.29E-4,-0.001097,0.001448,2.16,-15.24,-25.74,189.5691,0.1977,-1.1995,55.81383,37.50018,181.0042,NaN,0.0,12.0,,21 / 23,,1006,2021-05-01 19:21:14:075
-0.014151,0.002359,9.723244,-1.77E-4,-8.22E-4,9.806649,0.001239,0.006844,0.002669,2.46,-15.42,-26.4,189.5691,0.1977,-1.1995,55.81383,37.50018,181.0042,NaN,0.0,12.0,,21 / 23,,1020,2021-05-01 19:21:14:089
-0.014151,0.002359,9.723244,-1.77E-4,-8.22E-4,9.806649,0.001239,0.006844,0.002669,2.46,-15.42,-26.4,189.5691,0.1977,-1.1995,55.81383,37.50018,181.0042,NaN,0.0,12.0,,21 / 23,,1025,2021-05-01 19:21:14:094
-0.011197,2.5E-5,9.763882,-3.52E-4,-1.21E-4,9.806652,-0.001815,-0.004151,2.26E-4,2.34,-15.66,-26.1,188.9859,0.1928,-1.1997,55.81383,37.50018,181.0042,NaN,0.0,12.0,,21 / 23,,1035,2021-05-01 19:21:14:104
-0.011197,2.5E-5,9.763882,-3.52E-4,-1.21E-4,9.806652,6.29E-4,-4.86E-4,0.002669,2.34,-15.66,-26.1,188.9859,0.1928,-1.1997,55.81383,37.50018,181.0042,NaN,0.0,12.0,,21 / 23,,1046,2021-05-01 19:21:14:115
7.0E-5,-0.006637,9.77319,-0.00113,-1.78E-4,9.806652,0.003072,-0.00293,-3.85E-4,2.64,-15.72,-25.26,188.9859,0.1928,-1.1997,55.81383,37.50018,181.0042,NaN,0.0,12.0,,21 / 23,,1055,2021-05-01 19:21:14:124
-9.19E-4,-0.011288,9.761205,-0.00113,-1.78E-4,9.806652,-5.93E-4,-0.00293,0.002059,2.64,-15.72,-25.26,188.9859,0.1928,-1.1997,55.81383,37.50018,181.0042,NaN,0.0,12.0,,21 / 23,,1066,2021-05-01 19:21:14:135
0.001671,-0.004125,9.777984,2.0E-4,-5.98E-4,9.806651,6.29E-4,0.00379,0.003891,1.86,-15.96,-25.5,188.9251,0.1907,-1.206,55.81383,37.50018,181.0042,NaN,0.0,12.0,,21 / 23,,1076,2021-05-01 19:21:14:145
0.001671,-0.004386,9.761177,3.05E-4,-4.91E-4,9.806651,0.00185,-0.001097,0.002669,1.32,-15.54,-25.62,188.9251,0.1907,-1.206,55.81383,37.50018,181.0042,NaN,0.0,12.0,,21 / 23,,1085,2021-05-01 19:21:14:154
0.003696,-0.004386,9.761177,3.05E-4,-4.91E-4,9.806651,-5.93E-4,0.004401,0.003891,1.32,-15.54,-25.62,188.9251,0.1907,-1.206,55.81383,37.50018,181.0042,NaN,0.0,12.0,,21 / 23,,1095,2021-05-01 19:21:14:164
0.015753,-0.020836,9.765615,2.86E-4,-8.57E-4,9.806651,0.002461,0.004401,0.00328,1.44,-15.72,-25.5,188.9251,0.1907,-1.206,55.81383,37.50018,181.0042,NaN,0.0,12.0,,21 / 23,,1105,2021-05-01 19:21:14:174
0.00988,0.001858,9.777856,0.00108,-0.001068,9.806651,0.002461,0.005012,0.002669,1.44,-16.08,-25.38,185.417,0.186,-1.2036,55.81383,37.50018,181.0042,NaN,0.0,12.0,,21 / 23,,1116,2021-05-01 19:21:14:185
0.00988,0.001858,9.777856,0.00108,-0.001068,9.806651,0.002461,0.005012,0.002669,1.44,-16.08,-25.38,185.417,0.186,-1.2036,55.81383,37.50018,181.0042,NaN,0.0,12.0,,21 / 23,,1125,2021-05-01 19:21:14:194
0.006514,0.006091,9.742009,0.002843,-0.002828,9.80665,6.29E-4,-0.004151,8.37E-4,1.98,-15.6,-25.38,185.417,0.186,-1.2036,55.81383,37.50018,181.0042,NaN,0.0,12.0,,21 / 23,,1135,2021-05-01 19:21:14:204
0.006514,0.006091,9.742009,0.002843,-0.002828,9.80665,0.00185,0.003179,0.006335,1.98,-15.6,-25.38,185.417,0.186,-1.2036,55.81383,37.50018,181.0042,NaN,0.0,12.0,,21 / 23,,1146,2021-05-01 19:21:14:215
0.003613,-0.008197,9.782706,0.003097,-0.0029,9.806651,0.002461,0.00379,0.002059,2.28,-15.54,-25.38,185.417,0.186,-1.2036,55.81383,37.50018,181.0042,NaN,0.0,12.0,,21 / 23,,1156,2021-05-01 19:21:14:225
-0.002595,0.009328,9.751794,8.48E-4,-0.001635,9.80665,0.001239,0.00379,0.002669,2.52,-15.54,-25.02,192.338,0.1709,-1.184,55.81383,37.50018,181.0042,NaN,0.0,12.0,,21 / 23,,1165,2021-05-01 19:21:14:234
0.011152,-0.007727,9.760918,8.48E-4,-0.001635,9.80665,0.001239,0.00379,8.37E-4,2.52,-15.54,-25.02,192.338,0.1709,-1.184,55.81383,37.50018,181.0042,NaN,0.0,12.0,,21 / 23,,1176,2021-05-01 19:21:14:245
0.011152,-0.007727,9.760918,0.001906,-0.003157,9.806651,0.004294,0.005012,0.003891,2.82,-15.9,-24.78,192.338,0.1709,-1.184,55.81383,37.50018,181.0042,NaN,0.0,12.0,,21 / 23,,1186,2021-05-01 19:21:14:255
0.002587,-9.16E-4,9.749162,0.001906,-0.003157,9.806651,0.004294,0.005012,0.003891,2.82,-15.9,-24.78,192.338,0.1709,-1.184,55.81383,37.50018,181.0042,NaN,0.0,12.0,,21 / 23,,1195,2021-05-01 19:21:14:264
-0.004443,0.012912,9.737427,0.00275,-0.004047,9.806649,0.00185,0.003179,-9.96E-4,2.4,-15.84,-24.84,192.338,0.1709,-1.184,55.81383,37.50018,181.0042,NaN,0.0,12.0,,21 / 23,,1206,2021-05-01 19:21:14:275
-0.005185,0.008129,9.751775,4.3E-4,-4.79E-4,9.806651,0.001239,-0.001097,0.001448,2.1,-15.72,-25.5,188.8697,0.1512,-1.1632,55.81383,37.50018,181.0042,NaN,0.0,12.0,,21 / 23,,1215,2021-05-01 19:21:14:284
-0.008899,-0.007738,9.768425,4.3E-4,-4.79E-4,9.806651,0.00185,-0.003541,0.001448,2.1,-15.72,-25.5,188.8697,0.1512,-1.1632,55.81383,37.50018,181.0042,NaN,0.0,12.0,,21 / 23,,1226,2021-05-01 19:21:14:295
-0.008899,-0.007738,9.768425,0.00121,-7.71E-4,9.80665,6.29E-4,-0.002319,0.003891,2.7,-15.0,-25.8,188.8697,0.1512,-1.1632,55.81383,37.50018,181.0042,NaN,0.0,12.0,,21 / 23,,1235,2021-05-01 19:21:14:304
0.010013,0.003832,9.775305,0.00121,-7.71E-4,9.80665,1.8E-5,-0.003541,0.003891,2.7,-15.0,-25.8,188.8697,0.1512,-1.1632,55.81383,37.50018,181.0042,NaN,0.0,12.0,,21 / 23,,1246,2021-05-01 19:21:14:315
-0.010958,0.012008,9.754211,0.001589,-7.63E-4,9.80665,6.29E-4,-0.001708,-3.85E-4,2.94,-14.94,-26.22,188.8697,0.1512,-1.1632,55.81383,37.50018,181.0042,NaN,0.0,12.0,,21 / 23,,1255,2021-05-01 19:21:14:324
0.005741,-0.002662,9.73464,0.001589,-7.63E-4,9.80665,1.8E-5,-4.86E-4,0.002059,2.94,-14.94,-26.22,188.8697,0.1512,-1.1632,55.81383,37.50018,181.0042,NaN,0.0,12.0,,21 / 23,,1266,2021-05-01 19:21:14:335
0.005741,-0.002662,9.73464,-3.3E-5,-3.9E-4,9.806651,0.00185,0.002568,0.002059,2.28,-15.18,-25.86,189.5059,0.1482,-1.1534,55.81383,37.50018,181.0042,NaN,0.0,12.0,,21 / 23,,1275,2021-05-01 19:21:14:344
0.008189,-0.009981,9.760857,-8.41E-4,-3.7E-4,9.806651,6.29E-4,-4.86E-4,2.26E-4,1.74,-14.7,-25.08,189.5059,0.1482,-1.1534,55.81383,37.50018,181.0042,NaN,0.0,12.0,,21 / 23,,1286,2021-05-01 19:21:14:355
0.008189,-0.009981,9.760857,-8.41E-4,-3.7E-4,9.806651,6.29E-4,-4.86E-4,2.26E-4,1.74,-14.7,-25.08,189.5059,0.1482,-1.1534,55.81383,37.50018,181.0042,NaN,0.0,12.0,,21 / 23,,1296,2021-05-01 19:21:14:365
0.002072,0.012923,9.749137,-0.001284,4.0E-6,9.80665,0.003072,7.35E-4,0.00328,1.62,-14.58,-24.84,189.5059,0.1482,-1.1534,55.81383,37.50018,181.0042,NaN,0.0,12.0,,21 / 23,,1305,2021-05-01 19:21:14:374
0.016703,0.010411,9.772785,-9.43E-4,7.91E-4,9.806651,1.8E-5,0.002568,0.005113,2.1,-15.24,-25.14,189.4452,0.147,-1.1608,55.81383,37.50018,181.0042,NaN,0.0,12.0,,21 / 23,,1315,2021-05-01 19:21:14:384
-0.011778,0.008124,9.761377,-9.43E-4,7.91E-4,9.806651,-5.93E-4,0.001346,0.002059,2.1,-15.24,-25.14,189.4452,0.147,-1.1608,55.81383,37.50018,181.0042,NaN,0.0,12.0,,21 / 23,,1325,2021-05-01 19:21:14:394
-0.011778,0.008124,9.761377,-0.001809,0.001865,9.806649,0.001239,-0.001097,0.002059,2.34,-15.18,-25.38,189.4452,0.147,-1.1608,55.81383,37.50018,181.0042,NaN,0.0,12.0,,21 / 23,,1335,2021-05-01 19:21:14:404
-0.005296,0.016729,9.770881,-0.001809,0.001865,9.806649,1.8E-5,-0.001097,0.004502,2.34,-15.18,-25.38,189.4452,0.147,-1.1608,55.81383,37.50018,181.0042,NaN,0.0,12.0,,21 / 23,,1346,2021-05-01 19:21:14:415
0.001792,9.88E-4,9.77065,-0.002081,0.002076,9.80665,0.002461,-0.001097,0.002059,2.76,-14.94,-25.56,189.4452,0.147,-1.1608,55.81383,37.50018,181.0042,NaN,0.0,12.0,,21 / 23,,1356,2021-05-01 19:21:14:425
-0.002221,0.008999,9.746827,-0.001065,0.001522,9.80665,-5.93E-4,-0.001097,2.26E-4,2.04,-15.12,-25.38,189.4651,0.157,-1.1748,55.81383,37.50018,181.0042,NaN,0.0,12.0,,21 / 23,,1365,2021-05-01 19:21:14:434
-0.002221,0.008999,9.746827,-0.001065,0.001522,9.80665,0.00185,-0.001097,0.002059,2.04,-15.12,-25.38,189.4651,0.157,-1.1748,55.81383,37.50018,181.0042,NaN,0.0,12.0,,21 / 23,,1375,2021-05-01 19:21:14:444
-0.009548,0.008495,9.74942,-0.002058,0.002651,9.80665,0.00185,-0.001097,0.002059,1.68,-15.96,-25.08,189.4651,0.157,-1.1748,55.81383,37.50018,181.0042,NaN,0.0,12.0,,21 / 23,,1386,2021-05-01 19:21:14:455
-0.009548,0.008495,9.74942,-0.002058,0.002651,9.80665,0.003072,7.35E-4,-0.002217,1.68,-15.96,-25.08,189.4651,0.157,-1.1748,55.81383,37.50018,181.0042,NaN,0.0,12.0,,21 / 23,,1395,2021-05-01 19:21:14:464
0.001471,0.001804,9.749162,-8.48E-4,1.83E-4,9.806651,0.001239,-0.001708,0.002059,1.32,-16.14,-25.38,185.3971,0.1703,-1.1892,55.81383,37.50018,181.0042,NaN,0.0,12.0,,21 / 23,,1405,2021-05-01 19:21:14:474
0.005646,-0.005608,9.756278,-8.48E-4,1.83E-4,9.806651,1.8E-5,-4.86E-4,0.002669,1.32,-16.14,-25.38,185.3971,0.1703,-1.1892,55.81383,37.50018,181.0042,NaN,0.0,12.0,,21 / 23,,1415,2021-05-01 19:21:14:484
0.009155,0.006085,9.756264,-0.001931,4.03E-4,9.806651,-5.93E-4,-4.86E-4,0.002669,1.86,-15.96,-25.2,185.3971,0.1703,-1.1892,55.81383,37.50018,181.0042,NaN,0.0,12.0,,21 / 23,,1426,2021-05-01 19:21:14:495
-0.002101,-0.009665,9.749232,-0.001931,4.03E-4,9.806651,-5.93E-4,-4.86E-4,0.002669,1.86,-15.96,-25.2,185.3971,0.1703,-1.1892,55.81383,37.50018,181.0042,NaN,0.0,12.0,,21 / 23,,1435,2021-05-01 19:21:14:504
-0.002101,-0.009665,9.749232,-0.001931,4.03E-4,9.806651,0.00185,0.003179,8.37E-4,1.86,-15.96,-25.2,185.3971,0.1703,-1.1892,55.81383,37.50018,181.0042,NaN,0.0,12.0,,21 / 23,,1445,2021-05-01 19:21:14:514
-0.006435,-0.002005,9.737384,-9.95E-4,7.9E-5,9.80665,0.001239,7.35E-4,-3.85E-4,1.98,-15.42,-24.54,189.5028,0.1716,-1.2006,55.81383,37.50018,181.0042,NaN,0.0,12.0,,21 / 23,,1455,2021-05-01 19:21:14:524
0.007572,0.010374,9.75877,-0.001166,-7.0E-5,9.80665,0.001239,0.00379,0.00328,2.1,-15.36,-25.14,189.5028,0.1716,-1.2006,55.81383,37.50018,181.0042,NaN,0.0,12.0,,21 / 23,,1465,2021-05-01 19:21:14:534
-0.003868,-0.0169,9.777984,-0.001166,-7.0E-5,9.80665,-5.93E-4,-0.004762,0.00328,2.1,-15.36,-25.14,189.5028,0.1716,-1.2006,55.81383,37.50018,181.0042,NaN,0.0,12.0,,21 / 23,,1475,2021-05-01 19:21:14:544
-0.003868,-0.0169,9.777984,-5.81E-4,-6.97E-4,9.80665,1.8E-5,-0.001708,8.37E-4,2.34,-15.54,-25.38,188.9319,0.17,-1.2073,55.81383,37.50018,181.0042,NaN,0.0,12.0,,21 / 23,,1485,2021-05-01 19:21:14:554
-0.010369,0.001483,9.730362,-5.81E-4,-6.97E-4,9.80665,1.8E-5,-0.001708,8.37E-4,2.34,-15.54,-25.38,188.9319,0.17,-1.2073,55.81383,37.50018,181.0042,NaN,0.0,12.0,,21 / 23,,1496,2021-05-01 19:21:14:565
-0.016671,0.007313,9.732922,-6.71E-4,-6.27E-4,9.806651,6.29E-4,1.25E-4,8.37E-4,2.34,-15.9,-24.78,188.9319,0.17,-1.2073,55.81383,37.50018,181.0042,NaN,0.0,12.0,,21 / 23,,1506,2021-05-01 19:21:14:575
-0.016671,0.007313,9.732922,-6.71E-4,-6.27E-4,9.806651,0.001239,-0.003541,0.002669,2.34,-15.9,-24.78,188.9319,0.17,-1.2073,55.81383,37.50018,181.0042,NaN,0.0,12.0,,21 / 23,,1515,2021-05-01 19:21:14:584
-0.003141,-0.004629,9.773283,-4.36E-4,-7.81E-4,9.806651,1.8E-5,7.35E-4,-3.85E-4,2.88,-15.42,-24.96,188.9319,0.17,-1.2073,55.81383,37.50018,181.0042,NaN,0.0,12.0,,21 / 23,,1525,2021-05-01 19:21:14:594
-0.00564,7.4E-4,9.730261,2.05E-4,-0.001212,9.806649,1.8E-5,-4.86E-4,8.37E-4,2.52,-15.54,-25.32,192.377,0.1651,-1.2091,55.81383,37.50018,181.0042,NaN,0.0,12.0,,21 / 23,,1535,2021-05-01 19:21:14:604
-0.00564,7.4E-4,9.730261,2.05E-4,-0.001212,9.806649,1.8E-5,-0.003541,8.37E-4,2.52,-15.54,-25.32,192.377,0.1651,-1.2091,55.81383,37.50018,181.0042,NaN,0.0,12.0,,21 / 23,,1546,2021-05-01 19:21:14:615
0.016178,0.006883,9.756215,4.62E-4,-0.001974,9.806649,0.00185,0.004401,0.00328,2.1,-15.9,-25.44,192.377,0.1651,-1.2091,55.81383,37.50018,181.0042,NaN,0.0,12.0,,21 / 23,,1555,2021-05-01 19:21:14:624
0.012716,-0.007008,9.737023,4.62E-4,-0.001974,9.806649,-0.002426,-0.00293,2.26E-4,2.1,-15.9,-25.44,192.377,0.1651,-1.2091,55.81383,37.50018,181.0042,NaN,0.0,12.0,,21 / 23,,1565,2021-05-01 19:21:14:634
0.012716,-0.007008,9.737023,0.001117,-0.002431,9.80665,6.29E-4,-4.86E-4,0.002669,1.98,-15.84,-25.2,192.377,0.1651,-1.2091,55.81383,37.50018,181.0042,NaN,0.0,12.0,,21 / 23,,1575,2021-05-01 19:21:14:644
0.012455,-0.011966,9.77531,0.001946,-5.36E-4,9.806649,-5.93E-4,-4.86E-4,0.002059,2.52,-15.9,-25.2,192.3671,0.1527,-1.1997,55.81383,37.50018,181.0042,NaN,0.0,12.0,,21 / 23,,1585,2021-05-01 19:21:14:654
0.012455,-0.011966,9.77531,0.001946,-5.36E-4,9.806649,1.8E-5,-0.001097,0.002059,2.52,-15.9,-25.2,192.3671,0.1527,-1.1997,55.81383,37.50018,181.0042,NaN,0.0,12.0,,21 / 23,,1596,2021-05-01 19:21:14:665
-0.010369,0.005075,9.75669,0.002625,-7.6E-4,9.806649,0.001239,7.35E-4,-3.85E-4,2.4,-15.84,-25.2,192.3671,0.1527,-1.1997,55.81383,37.50018,181.0042,NaN,0.0,12.0,,21 / 23,,1606,2021-05-01 19:21:14:675
4.29E-4,3.09E-4,9.737284,0.002625,-7.6E-4,9.806649,0.001239,7.35E-4,0.002059,2.4,-15.84,-25.2,192.3671,0.1527,-1.1997,55.81383,37.50018,181.0042,NaN,0.0,12.0,,21 / 23,,1615,2021-05-01 19:21:14:684
4.29E-4,3.09E-4,9.737284,0.00343,-0.001414,9.806647,0.003072,0.004401,2.26E-4,2.28,-15.42,-25.02,192.3671,0.1527,-1.1997,55.81383,37.50018,181.0042,NaN,0.0,12.0,,21 / 23,,1626,2021-05-01 19:21:14:695
0.028081,-0.010739,9.767787,7.17E-4,-2.43E-4,9.806651,0.003072,0.004401,2.26E-4,2.52,-14.7,-24.78,193.1281,0.1489,-1.1783,55.81383,37.50018,181.0042,NaN,0.0,12.0,,21 / 23,,1635,2021-05-01 19:21:14:704
0.026186,0.009677,9.748748,7.17E-4,-2.43E-4,9.806651,0.001239,0.001346,0.002059,2.52,-14.7,-24.78,193.1281,0.1489,-1.1783,55.81383,37.50018,181.0042,NaN,0.0,12.0,,21 / 23,,1645,2021-05-01 19:21:14:714
0.025765,0.017113,9.763179,0.001846,-2.89E-4,9.80665,1.8E-5,0.004401,0.001448,2.22,-14.94,-25.08,193.1281,0.1489,-1.1783,55.81383,37.50018,181.0042,NaN,0.0,12.0,,21 / 23,,1655,2021-05-01 19:21:14:724
0.025765,0.017113,9.763179,0.001846,-2.89E-4,9.80665,1.8E-5,0.002568,-3.85E-4,2.22,-14.94,-25.08,193.1281,0.1489,-1.1783,55.81383,37.50018,181.0042,NaN,0.0,12.0,,21 / 23,,1666,2021-05-01 19:21:14:735
-0.006545,0.017322,9.74465,0.0043,7.33E-4,9.80665,0.002461,-0.004151,0.002669,2.4,-15.06,-25.14,193.1281,0.1489,-1.1783,55.81383,37.50018,181.0042,NaN,0.0,12.0,,21 / 23,,1675,2021-05-01 19:21:14:744
-0.013694,0.006664,9.756686,8.38E-4,9.24E-4,9.80665,-0.001815,-0.002319,0.00328,1.92,-15.3,-25.2,189.4325,0.1587,-1.1548,55.813835,37.50018,181.1761,NaN,0.0,12.0,,22 / 23,,1686,2021-05-01 19:21:14:755
-0.021589,0.017518,9.730477,8.38E-4,9.24E-4,9.80665,-5.93E-4,-0.005984,0.002059,1.92,-15.3,-25.2,189.4325,0.1587,-1.1548,55.813835,37.50018,181.1761,NaN,0.0,12.0,,22 / 23,,1696,2021-05-01 19:21:14:765
-0.021589,0.017518,9.730477,6.99E-4,0.001759,9.80665,6.29E-4,-0.005984,0.001448,1.5,-15.42,-25.26,189.4325,0.1587,-1.1548,55.813835,37.50018,181.1761,NaN,0.0,12.0,,22 / 23,,1705,2021-05-01 19:21:14:774
0.030422,-0.010658,9.772403,6.99E-4,0.001759,9.80665,1.8E-5,-0.004762,-9.96E-4,1.5,-15.42,-25.26,189.4325,0.1587,-1.1548,55.813835,37.50018,181.1761,NaN,0.0,12.0,,22 / 23,,1716,2021-05-01 19:21:14:785
0.024195,-0.007264,9.796492,2.29E-4,3.9E-4,9.80665,0.001239,1.25E-4,0.003891,1.92,-15.06,-25.92,189.4984,0.1696,-1.1525,55.813835,37.50018,181.1761,NaN,0.0,12.0,,22 / 23,,1725,2021-05-01 19:21:14:794
0.029779,-0.014955,9.796333,2.29E-4,3.9E-4,9.80665,6.29E-4,-0.001708,0.002059,1.92,-15.06,-25.92,189.4984,0.1696,-1.1525,55.813835,37.50018,181.1761,NaN,0.0,12.0,,22 / 23,,1736,2021-05-01 19:21:14:805
0.029779,-0.014955,9.796333,2.29E-4,3.9E-4,9.80665,6.29E-4,-0.001708,0.002059,1.92,-15.06,-25.92,189.4984,0.1696,-1.1525,55.813835,37.50018,181.1761,NaN,0.0,12.0,,22 / 23,,1746,2021-05-01 19:21:14:815
-0.016104,0.019522,9.763909,6.24E-4,0.001268,9.80665,0.00185,0.005012,0.001448,2.46,-15.54,-25.44,189.4984,0.1696,-1.1525,55.813835,37.50018,181.1761,NaN,0.0,12.0,,22 / 23,,1755,2021-05-01 19:21:14:824
0.020884,0.013458,9.722445,-9.97E-4,0.00146,9.80665,6.29E-4,1.25E-4,0.002669,1.98,-16.02,-24.96,188.8435,0.1775,-1.1501,55.813835,37.50018,181.1761,NaN,0.0,12.0,,22 / 23,,1765,2021-05-01 19:21:14:834
0.012431,0.008759,9.729759,-9.97E-4,0.00146,9.80665,0.00185,0.002568,0.005113,1.98,-16.02,-24.96,188.8435,0.1775,-1.1501,55.813835,37.50018,181.1761,NaN,0.0,12.0,,22 / 23,,1776,2021-05-01 19:21:14:845
0.012431,0.008759,9.729759,-0.001431,0.002789,9.80665,0.00185,1.25E-4,0.002059,1.56,-15.72,-24.96,188.8435,0.1775,-1.1501,55.813835,37.50018,181.1761,NaN,0.0,12.0,,22 / 23,,1785,2021-05-01 19:21:14:854
-0.021397,-0.010308,9.761429,-0.001431,0.002789,9.80665,6.29E-4,-0.002319,0.002669,1.56,-15.72,-24.96,188.8435,0.1775,-1.1501,55.813835,37.50018,181.1761,NaN,0.0,12.0,,22 / 23,,1796,2021-05-01 19:21:14:865
-0.016113,-0.008737,9.770916,-0.001431,0.002789,9.80665,6.29E-4,-0.002319,0.002669,1.56,-15.72,-24.96,188.8435,0.1775,-1.1501,55.813835,37.50018,181.1761,NaN,0.0,12.0,,22 / 23,,1805,2021-05-01 19:21:14:874
-0.005387,0.004065,9.751676,-4.85E-4,7.79E-4,9.806651,1.8E-5,-0.001708,0.001448,2.04,-16.08,-24.84,188.8564,0.1923,-1.1609,55.813835,37.50018,181.1761,NaN,0.0,12.0,,22 / 23,,1815,2021-05-01 19:21:14:884
0.004349,0.004988,9.746702,-0.001256,0.001271,9.806651,1.8E-5,0.00379,0.00328,2.28,-16.44,-25.44,188.8564,0.1923,-1.1609,55.813835,37.50018,181.1761,NaN,0.0,12.0,,22 / 23,,1825,2021-05-01 19:21:14:894
0.004349,0.004988,9.746702,-0.001256,0.001271,9.806651,6.29E-4,0.005012,0.001448,2.28,-16.44,-25.44,188.8564,0.1923,-1.1609,55.813835,37.50018,181.1761,NaN,0.0,12.0,,22 / 23,,1835,2021-05-01 19:21:14:904
0.019605,0.007402,9.763183,-6.56E-4,7.29E-4,9.80665,6.29E-4,0.005012,0.001448,2.1,-15.66,-25.44,188.8676,0.1985,-1.1693,55.813835,37.50018,181.1761,NaN,0.0,12.0,,22 / 23,,1845,2021-05-01 19:21:14:914
0.005921,0.006106,9.744315,-6.56E-4,7.29E-4,9.80665,0.001239,-4.86E-4,0.004502,2.1,-15.66,-25.44,188.8676,0.1985,-1.1693,55.813835,37.50018,181.1761,NaN,0.0,12.0,,22 / 23,,1855,2021-05-01 19:21:14:924
-0.008804,-0.013482,9.766028,-7.68E-4,0.001429,9.806649,0.002461,0.002568,2.26E-4,1.56,-15.0,-25.2,188.8676,0.1985,-1.1693,55.813835,37.50018,181.1761,NaN,0.0,12.0,,22 / 23,,1865,2021-05-01 19:21:14:934
-0.003265,0.009978,9.739731,-7.68E-4,0.001429,9.806649,0.001239,0.002568,0.004502,1.56,-15.0,-25.2,188.8676,0.1985,-1.1693,55.813835,37.50018,181.1761,NaN,0.0,12.0,,22 / 23,,1875,2021-05-01 19:21:14:944
-0.003265,0.009978,9.739731,-2.11E-4,-9.8E-5,9.806652,6.29E-4,7.35E-4,8.37E-4,1.32,-16.02,-25.68,185.4412,0.206,-1.175,55.813835,37.50018,181.1761,NaN,0.0,12.0,,22 / 23,,1885,2021-05-01 19:21:14:954
0.028835,0.005207,9.782184,-2.11E-4,-9.8E-5,9.806652,0.00185,7.35E-4,0.002059,1.32,-16.02,-25.68,185.4412,0.206,-1.175,55.813835,37.50018,181.1761,NaN,0.0,12.0,,22 / 23,,1895,2021-05-01 19:21:14:964
0.00538,-0.011766,9.772981,4.38E-4,3.69E-4,9.806651,0.00185,-0.003541,0.001448,1.92,-15.96,-25.74,185.4412,0.206,-1.175,55.813835,37.50018,181.1761,NaN,0.0,12.0,,22 / 23,,1905,2021-05-01 19:21:14:974
-0.001625,-0.011125,9.780311,4.38E-4,3.69E-4,9.806651,0.001239,-0.001708,0.002059,1.92,-15.96,-25.74,185.4412,0.206,-1.175,55.813835,37.50018,181.1761,NaN,0.0,12.0,,22 / 23,,1915,2021-05-01 19:21:14:984
-0.002995,-0.003705,9.734855,6.22E-4,3.5E-4,9.806651,0.00185,-0.002319,0.005724,2.58,-15.36,-25.44,193.0958,0.2084,-1.1716,55.813835,37.50018,181.1761,NaN,0.0,12.0,,22 / 23,,1926,2021-05-01 19:21:14:995
-0.002995,-0.003705,9.734855,6.22E-4,3.5E-4,9.806651,0.001239,0.00379,0.002059,2.58,-15.36,-25.44,193.0958,0.2084,-1.1716,55.813835,37.50018,181.1761,NaN,0.0,12.0,,22 / 23,,1935,2021-05-01 19:21:15:004
0.005993,0.001508,9.753883,-6.49E-4,-2.1E-5,9.806652,0.00185,-0.005984,0.002669,2.64,-15.42,-25.68,193.0958,0.2084,-1.1716,55.813835,37.50018,181.1761,NaN,0.0,12.0,,22 / 23,,1945,2021-05-01 19:21:15:014
-0.00188,-0.011419,9.756323,-6.49E-4,-2.1E-5,9.806652,1.8E-5,-0.003541,0.001448,2.64,-15.42,-25.68,193.0958,0.2084,-1.1716,55.813835,37.50018,181.1761,NaN,0.0,12.0,,22 / 23,,1955,2021-05-01 19:21:15:024
-0.00188,-0.011419,9.756323,-6.49E-4,-2.1E-5,9.806652,1.8E-5,-0.003541,0.001448,2.64,-15.42,-25.68,193.0958,0.2084,-1.1716,55.813835,37.50018,181.1761,NaN,0.0,12.0,,22 / 23,,1966,2021-05-01 19:21:15:035
-0.009646,0.007089,9.751842,-9.6E-5,-4.98E-4,9.80665,1.8E-5,-0.00293,8.37E-4,2.34,-15.3,-25.98,189.5259,0.2074,-1.1752,55.813835,37.50018,181.1761,NaN,0.0,12.0,,22 / 23,,1976,2021-05-01 19:21:15:045
-0.017003,0.003371,9.778302,-9.6E-5,-4.98E-4,9.80665,0.002461,0.001957,0.002669,2.34,-15.3,-25.98,189.5259,0.2074,-1.1752,55.813835,37.50018,181.1761,NaN,0.0,12.0,,22 / 23,,1985,2021-05-01 19:21:15:054
0.014483,-0.009123,9.758439,-0.00118,7.2E-5,9.806649,-5.93E-4,0.003179,8.37E-4,2.46,-16.26,-25.74,189.5259,0.2074,-1.1752,55.813835,37.50018,181.1761,NaN,0.0,12.0,,22 / 23,,1996,2021-05-01 19:21:15:065
0.014483,-0.009123,9.758439,-2.5E-5,-3.43E-4,9.80665,6.29E-4,0.002568,0.005113,2.28,-15.96,-25.2,188.8851,0.2067,-1.1821,55.813835,37.50018,181.1761,NaN,0.0,12.0,,22 / 23,,2005,2021-05-01 19:21:15:074
2.59E-4,-0.011338,9.729992,4.97E-4,-5.32E-4,9.806651,0.001239,0.004401,8.37E-4,2.4,-15.36,-25.02,188.8851,0.2067,-1.1821,55.813835,37.50018,181.1761,NaN,0.0,12.0,,22 / 23,,2016,2021-05-01 19:21:15:085
-0.003352,-0.005998,9.749258,4.97E-4,-5.32E-4,9.806651,0.003072,0.003179,0.005113,2.4,-15.36,-25.02,188.8851,0.2067,-1.1821,55.813835,37.50018,181.1761,NaN,0.0,12.0,,22 / 23,,2025,2021-05-01 19:21:15:094
0.012134,0.013331,9.765846,6.43E-4,-0.001508,9.806651,0.00185,0.004401,8.37E-4,2.16,-14.82,-25.44,188.8851,0.2067,-1.1821,55.813835,37.50018,181.1761,NaN,0.0,12.0,,22 / 23,,2035,2021-05-01 19:21:15:104
-0.001768,9.37E-4,9.773221,6.43E-4,-0.001508,9.806651,-5.93E-4,-4.86E-4,0.001448,2.16,-14.82,-25.44,188.8851,0.2067,-1.1821,55.813835,37.50018,181.1761,NaN,0.0,12.0,,22 / 23,,2046,2021-05-01 19:21:15:115
-0.001768,9.37E-4,9.773221,2.4E-4,-4.92E-4,9.80665,0.001239,-0.00293,0.001448,2.34,-15.36,-25.26,189.4576,0.1986,-1.177,55.813835,37.50018,181.1761,NaN,0.0,12.0,,22 / 23,,2055,2021-05-01 19:21:15:124
-0.018943,-0.006839,9.751929,2.4E-4,-4.92E-4,9.80665,0.001239,0.001957,0.004502,2.34,-15.36,-25.26,189.4576,0.1986,-1.177,55.813835,37.50018,181.1761,NaN,0.0,12.0,,22 / 23,,2066,2021-05-01 19:21:15:135
-0.003501,-0.002145,9.756447,3.15E-4,-6.65E-4,9.80665,1.8E-5,-0.001097,0.00328,2.64,-15.3,-25.14,189.4576,0.1986,-1.177,55.813835,37.50018,181.1761,NaN,0.0,12.0,,22 / 23,,2075,2021-05-01 19:21:15:144
0.005961,-0.001226,9.737109,3.15E-4,-6.65E-4,9.80665,-0.004258,-0.004762,-3.85E-4,2.64,-15.3,-25.14,189.4576,0.1986,-1.177,55.813835,37.50018,181.1761,NaN,0.0,12.0,,22 / 23,,2086,2021-05-01 19:21:15:155
0.005772,-0.003104,9.763433,6.12E-4,-2.6E-4,9.80665,1.8E-5,-0.001097,-3.85E-4,1.68,-15.06,-25.32,189.4546,0.1951,-1.1746,55.813835,37.50018,181.1761,NaN,0.0,12.0,,22 / 23,,2095,2021-05-01 19:21:15:164
0.005772,-0.003104,9.763433,6.12E-4,-2.6E-4,9.80665,6.29E-4,-0.001097,2.26E-4,1.68,-15.06,-25.32,189.4546,0.1951,-1.1746,55.813835,37.50018,181.1761,NaN,0.0,12.0,,22 / 23,,2106,2021-05-01 19:21:15:175
2.6E-5,0.007602,9.751642,6.12E-4,-2.6E-4,9.80665,6.29E-4,-0.001097,2.26E-4,1.68,-15.06,-25.32,189.4546,0.1951,-1.1746,55.813835,37.50018,181.1761,NaN,0.0,12.0,,22 / 23,,2115,2021-05-01 19:21:15:184
-0.012691,0.007383,9.725549,9.4E-4,-6.54E-4,9.80665,0.003072,0.002568,2.26E-4,1.5,-15.18,-26.04,189.4546,0.1951,-1.1746,55.813835,37.50018,181.1761,NaN,0.0,12.0,,22 / 23,,2125,2021-05-01 19:21:15:194
0.007663,-0.003336,9.739445,0.001526,-0.001673,9.80665,0.001239,-0.001097,2.26E-4,2.28,-15.36,-25.74,189.5189,0.1922,-1.1685,55.813835,37.50018,181.1761,NaN,0.0,12.0,,22 / 23,,2135,2021-05-01 19:21:15:204
0.007892,0.0019,9.758614,0.001526,-0.001673,9.80665,0.001239,-0.001097,2.26E-4,2.28,-15.36,-25.74,189.5189,0.1922,-1.1685,55.813835,37.50018,181.1761,NaN,0.0,12.0,,22 / 23,,2145,2021-05-01 19:21:15:214
0.007892,0.0019,9.758614,0.002602,-0.002465,9.806651,-0.001204,-0.001708,-3.85E-4,2.34,-15.66,-25.5,189.5189,0.1922,-1.1685,55.813835,37.50018,181.1761,NaN,0.0,12.0,,22 / 23,,2155,2021-05-01 19:21:15:224
-0.004052,0.003927,9.751676,0.002602,-0.002465,9.806651,0.003683,-0.001097,0.002669,2.34,-15.66,-25.5,189.5189,0.1922,-1.1685,55.813835,37.50018,181.1761,NaN,0.0,12.0,,22 / 23,,2165,2021-05-01 19:21:15:234
0.001832,0.012725,9.730067,4.68E-4,-3.16E-4,9.806651,1.8E-5,-0.00293,-3.85E-4,1.8,-15.84,-25.8,188.9126,0.1805,-1.1512,55.813835,37.50018,181.1761,NaN,0.0,12.0,,22 / 23,,2175,2021-05-01 19:21:15:244
2.02E-4,0.00277,9.761097,4.68E-4,-3.16E-4,9.806651,0.00185,-0.002319,0.00328,1.8,-15.84,-25.8,188.9126,0.1805,-1.1512,55.813835,37.50018,181.1761,NaN,0.0,12.0,,22 / 23,,2185,2021-05-01 19:21:15:254
0.008641,-0.005839,9.76567,0.001242,-9.06E-4,9.806651,-0.001204,7.35E-4,0.002669,1.86,-15.9,-25.56,188.9126,0.1805,-1.1512,55.813835,37.50018,181.1761,NaN,0.0,12.0,,22 / 23,,2195,2021-05-01 19:21:15:264
0.008641,-0.005839,9.76567,0.001242,-9.06E-4,9.806651,6.29E-4,7.35E-4,8.37E-4,1.86,-15.9,-25.56,188.9126,0.1805,-1.1512,55.813835,37.50018,181.1761,NaN,0.0,12.0,,22 / 23,,2205,2021-05-01 19:21:15:274
0.00252,0.016932,9.76593,8.49E-4,-6.26E-4,9.80665,1.8E-5,0.004401,-3.85E-4,2.46,-15.6,-25.62,188.901,0.1764,-1.1432,55.813835,37.50018,181.1761,NaN,0.0,12.0,,22 / 23,,2216,2021-05-01 19:21:15:285
-0.002795,0.0113,9.734835,8.49E-4,-6.26E-4,9.80665,1.8E-5,0.004401,-3.85E-4,2.46,-15.6,-25.62,188.901,0.1764,-1.1432,55.813835,37.50018,181.1761,NaN,0.0,12.0,,22 / 23,,2225,2021-05-01 19:21:15:294
-0.030388,0.020459,9.737816,0.001528,-2.67E-4,9.80665,-5.93E-4,1.25E-4,2.26E-4,2.64,-15.6,-25.26,188.901,0.1764,-1.1432,55.813835,37.50018,181.1761,NaN,0.0,12.0,,22 / 23,,2236,2021-05-01 19:21:15:305
-0.030388,0.020459,9.737816,0.001528,-2.67E-4,9.80665,-0.001815,7.35E-4,0.001448,2.64,-15.6,-25.26,188.901,0.1764,-1.1432,55.813835,37.50018,181.1761,NaN,0.0,12.0,,22 / 23,,2245,2021-05-01 19:21:15:314
-0.003354,0.004028,9.763537,-1.92E-4,3.32E-4,9.806651,1.8E-5,7.35E-4,8.37E-4,2.76,-15.96,-24.72,192.2624,0.1762,-1.1341,55.813835,37.50018,181.1761,NaN,0.0,12.0,,22 / 23,,2256,2021-05-01 19:21:15:325
0.028772,0.014566,9.731853,-1.92E-4,3.32E-4,9.806651,-5.93E-4,-0.001708,0.001448,2.76,-15.96,-24.72,192.2624,0.1762,-1.1341,55.813835,37.50018,181.1761,NaN,0.0,12.0,,22 / 23,,2265,2021-05-01 19:21:15:334
-0.026934,-0.007722,9.761471,-2.23E-4,6.15E-4,9.806651,-5.93E-4,-0.003541,0.002059,2.58,-16.2,-25.62,192.2624,0.1762,-1.1341,55.813835,37.50018,181.1761,NaN,0.0,12.0,,22 / 23,,2275,2021-05-01 19:21:15:344
-0.00918,0.017829,9.758928,-1.14E-4,0.001152,9.806651,0.001239,-0.001097,0.00328,2.76,-16.86,-25.38,192.2624,0.1762,-1.1341,55.813835,37.50018,181.1761,NaN,0.0,12.0,,22 / 23,,2286,2021-05-01 19:21:15:355
-0.00918,0.017829,9.758928,-1.14E-4,0.001152,9.806651,-5.93E-4,-0.002319,0.002059,2.76,-16.86,-25.38,192.2624,0.1762,-1.1341,55.813835,37.50018,181.1761,NaN,0.0,12.0,,22 / 23,,2295,2021-05-01 19:21:15:364
0.016376,-0.002515,9.787042,-9.69E-4,7.46E-4,9.806652,0.002461,0.003179,0.002669,2.34,-16.62,-25.02,188.3122,0.1827,-1.1362,55.813835,37.50018,181.1761,NaN,0.0,12.0,,22 / 23,,2306,2021-05-01 19:21:15:375
0.016376,-0.002515,9.787042,-9.69E-4,7.46E-4,9.806652,0.00185,1.25E-4,0.006335,2.34,-16.62,-25.02,188.3122,0.1827,-1.1362,55.813835,37.50018,181.1761,NaN,0.0,12.0,,22 / 23,,2315,2021-05-01 19:21:15:384
0.00408,-5.45E-4,9.746584,-0.001778,8.56E-4,9.806651,0.00185,-0.002319,8.37E-4,2.82,-16.14,-25.08,188.3122,0.1827,-1.1362,55.813835,37.50018,181.1761,NaN,0.0,12.0,,22 / 23,,2326,2021-05-01 19:21:15:395
0.005139,0.004078,9.76575,-0.001977,8.84E-4,9.806652,1.8E-5,-0.001097,0.002669,2.4,-15.66,-25.5,188.3122,0.1827,-1.1362,55.813835,37.50018,181.1761,NaN,0.0,12.0,,22 / 23,,2335,2021-05-01 19:21:15:404
-0.005649,-0.001559,9.751554,-0.001977,8.84E-4,9.806652,1.8E-5,-0.001097,0.002669,2.4,-15.66,-25.5,188.3122,0.1827,-1.1362,55.813835,37.50018,181.1761,NaN,0.0,12.0,,22 / 23,,2345,2021-05-01 19:21:15:414
-0.005649,-0.001559,9.751554,1.32E-4,-2.02E-4,9.80665,0.002461,-0.001097,2.26E-4,2.64,-15.72,-25.2,192.2804,0.1861,-1.1484,55.813835,37.50018,181.1761,NaN,0.0,12.0,,22 / 23,,2355,2021-05-01 19:21:15:424
0.014084,0.013555,9.741752,1.32E-4,-2.02E-4,9.80665,0.003072,7.35E-4,0.00328,2.64,-15.72,-25.2,192.2804,0.1861,-1.1484,55.813835,37.50018,181.1761,NaN,0.0,12.0,,22 / 23,,2366,2021-05-01 19:21:15:435
0.0064,-0.021519,9.739242,1.82E-4,8.8E-5,9.80665,-5.93E-4,-0.003541,8.37E-4,2.52,-15.48,-25.14,192.2804,0.1861,-1.1484,55.813835,37.50018,181.1761,NaN,0.0,12.0,,22 / 23,,2375,2021-05-01 19:21:15:444
0.023,-0.025171,9.750875,-5.38E-4,-2.5E-5,9.80665,0.00185,-4.86E-4,0.002669,2.4,-15.96,-25.38,188.8373,0.1868,-1.1474,55.813835,37.50018,181.1761,NaN,0.0,12.0,,22 / 23,,2385,2021-05-01 19:21:15:454
0.030244,0.001965,9.726974,-5.38E-4,-2.5E-5,9.80665,0.00185,0.001346,0.003891,2.4,-15.96,-25.38,188.8373,0.1868,-1.1474,55.813835,37.50018,181.1761,NaN,0.0,12.0,,22 / 23,,2395,2021-05-01 19:21:15:464
0.030244,0.001965,9.726974,-1.14E-4,8.8E-5,9.80665,0.001239,0.004401,0.005724,1.98,-16.08,-25.38,188.8373,0.1868,-1.1474,55.813835,37.50018,181.1761,NaN,0.0,12.0,,22 / 23,,2405,2021-05-01 19:21:15:474
0.007283,0.005415,9.763362,-1.14E-4,8.8E-5,9.80665,0.003072,0.002568,0.00328,1.98,-16.08,-25.38,188.8373,0.1868,-1.1474,55.813835,37.50018,181.1761,NaN,0.0,12.0,,22 / 23,,2415,2021-05-01 19:21:15:484
0.019867,-0.008696,9.775003,0.001182,2.1E-5,9.806649,0.004905,0.004401,0.002669,1.56,-15.84,-25.5,188.8383,0.1873,-1.1482,55.813835,37.50018,181.1761,NaN,0.0,12.0,,22 / 23,,2425,2021-05-01 19:21:15:494
0.008108,-0.00693,9.772849,0.001182,2.1E-5,9.806649,0.00185,1.25E-4,0.002059,1.56,-15.84,-25.5,188.8383,0.1873,-1.1482,55.813835,37.50018,181.1761,NaN,0.0,12.0,,22 / 23,,2436,2021-05-01 19:21:15:505
0.008108,-0.00693,9.772849,0.001764,-9.8E-5,9.806649,0.001239,-0.002319,0.001448,2.1,-15.36,-25.38,188.8383,0.1873,-1.1482,55.813835,37.50018,181.1761,NaN,0.0,12.0,,22 / 23,,2445,2021-05-01 19:21:15:514
-0.015614,0.013765,9.759069,0.001764,-9.8E-5,9.806649,0.001239,-0.004151,2.26E-4,2.1,-15.36,-25.38,188.8383,0.1873,-1.1482,55.813835,37.50018,181.1761,NaN,0.0,12.0,,22 / 23,,2455,2021-05-01 19:21:15:524
-0.015614,0.013765,9.759069,0.001764,-9.8E-5,9.806649,0.001239,-0.004151,2.26E-4,2.1,-15.36,-25.38,188.8383,0.1873,-1.1482,55.813835,37.50018,181.1761,NaN,0.0,12.0,,22 / 23,,2465,2021-05-01 19:21:15:534
-0.020797,-0.007212,9.756601,2.47E-4,-4.07E-4,9.806651,6.29E-4,-0.00293,0.001448,2.34,-15.24,-24.72,189.3973,0.1883,-1.1379,55.813835,37.50018,181.1761,NaN,0.0,12.0,,22 / 23,,2475,2021-05-01 19:21:15:544
0.01472,-0.013104,9.760675,4.7E-5,-3.81E-4,9.80665,1.8E-5,-0.001708,0.00328,1.86,-15.66,-24.54,189.3973,0.1883,-1.1379,55.813835,37.50018,181.1761,NaN,0.0,12.0,,22 / 23,,2485,2021-05-01 19:21:15:554
0.020316,-0.009192,9.765384,4.7E-5,-3.81E-4,9.80665,0.001239,0.002568,0.001448,1.86,-15.66,-24.54,189.3973,0.1883,-1.1379,55.813835,37.50018,181.1761,NaN,0.0,12.0,,22 / 23,,2495,2021-05-01 19:21:15:564
0.026395,-0.002949,9.774887,5.61E-4,-7.4E-4,9.806651,-0.001204,1.25E-4,0.00328,1.56,-15.96,-24.66,188.822,0.1861,-1.1373,55.813835,37.50018,181.1761,NaN,0.0,12.0,,22 / 23,,2505,2021-05-01 19:21:15:574
0.026395,-0.002949,9.774887,5.61E-4,-7.4E-4,9.806651,0.003683,0.003179,0.001448,1.86,-15.66,-24.84,188.822,0.1861,-1.1373,55.813835,37.50018,181.1761,NaN,0.0,12.0,,22 / 23,,2515,2021-05-01 19:21:15:584
0.021987,-0.016194,9.784466,0.001449,-0.001203,9.806651,0.001239,0.002568,0.002059,1.86,-15.66,-24.84,188.822,0.1861,-1.1373,55.813835,37.50018,181.1761,NaN,0.0,12.0,,22 / 23,,2525,2021-05-01 19:21:15:594
0.003178,0.006186,9.761018,0.002686,-0.001947,9.806652,-5.93E-4,7.35E-4,8.37E-4,2.52,-15.6,-25.44,188.822,0.1861,-1.1373,55.813835,37.50018,181.1761,NaN,0.0,12.0,,22 / 23,,2535,2021-05-01 19:21:15:604
0.009494,3.68E-4,9.758466,0.002686,-0.001947,9.806652,1.8E-5,0.003179,8.37E-4,2.52,-15.6,-25.44,188.822,0.1861,-1.1373,55.813835,37.50018,181.1761,NaN,0.0,12.0,,22 / 23,,2545,2021-05-01 19:21:15:614
0.013602,0.00689,9.791955,0.001971,-5.73E-4,9.80665,0.002461,0.003179,0.003891,2.4,-15.72,-25.62,188.8643,0.1773,-1.12,55.813835,37.50018,181.1761,NaN,0.0,12.0,,22 / 23,,2555,2021-05-01 19:21:15:624
0.018137,-0.004347,9.770187,0.003198,-8.76E-4,9.80665,0.00185,0.002568,0.005113,2.1,-15.48,-25.44,188.8643,0.1773,-1.12,55.813835,37.50018,181.1761,NaN,0.0,12.0,,22 / 23,,2566,2021-05-01 19:21:15:635
0.018137,-0.004347,9.770187,0.003198,-8.76E-4,9.80665,0.00185,1.25E-4,0.002669,2.1,-15.48,-25.44,188.8643,0.1773,-1.12,55.813835,37.50018,181.1761,NaN,0.0,12.0,,22 / 23,,2575,2021-05-01 19:21:15:644
0.005589,-0.002271,9.73212,0.005581,-0.001362,9.806648,0.003072,7.35E-4,0.00328,2.28,-15.78,-26.1,188.8643,0.1773,-1.12,55.813835,37.50018,181.1761,NaN,0.0,12.0,,22 / 23,,2585,2021-05-01 19:21:15:654
0.002236,0.005477,9.746598,0.005581,-0.001362,9.806648,0.003072,7.35E-4,0.00328,2.28,-15.78,-26.1,188.8643,0.1773,-1.12,55.813835,37.50018,181.1761,NaN,0.0,12.0,,22 / 23,,2595,2021-05-01 19:21:15:664
0.00773,0.009561,9.760793,0.002561,-8.9E-4,9.80665,-0.001204,-0.004151,-3.85E-4,3.0,-15.72,-25.74,192.2549,0.1744,-1.0866,55.813835,37.50018,181.1761,NaN,0.0,12.0,,22 / 23,,2605,2021-05-01 19:21:15:674
0.00773,0.009561,9.760793,0.002561,-8.9E-4,9.80665,0.002461,0.00379,0.002669,3.0,-15.72,-25.74,192.2549,0.1744,-1.0866,55.813835,37.50018,181.1761,NaN,0.0,12.0,,22 / 23,,2615,2021-05-01 19:21:15:684
-0.002539,-0.01516,9.760803,0.004023,-0.00128,9.806649,1.8E-5,0.002568,8.37E-4,2.64,-15.3,-24.78,192.2549,0.1744,-1.0866,55.813835,37.50018,181.1761,NaN,0.0,12.0,,22 / 23,,2625,2021-05-01 19:21:15:694
0.007608,-1.38E-4,9.73678,0.004023,-0.00128,9.806649,0.001239,0.002568,0.002059,2.64,-15.3,-24.78,192.2549,0.1744,-1.0866,55.813835,37.50018,181.1761,NaN,0.0,12.0,,22 / 23,,2635,2021-05-01 19:21:15:704
-0.018186,-3.4E-5,9.753925,5.77E-4,-6.93E-4,9.806651,0.003072,0.003179,-9.96E-4,2.22,-15.24,-24.6,189.2793,0.1721,-1.062,55.813835,37.50018,181.1761,NaN,0.0,12.0,,22 / 23,,2645,2021-05-01 19:21:15:714
-0.018186,-3.4E-5,9.753925,5.77E-4,-6.93E-4,9.806651,0.004294,0.005012,0.002059,2.22,-15.24,-24.6,189.2793,0.1721,-1.062,55.813835,37.50018,181.1761,NaN,0.0,12.0,,22 / 23,,2655,2021-05-01 19:21:15:724
-0.017368,-0.009871,9.753852,5.77E-4,-6.93E-4,9.806651,0.004294,0.005012,0.002059,2.22,-15.24,-24.6,189.2793,0.1721,-1.062,55.813835,37.50018,181.1761,NaN,0.0,12.0,,22 / 23,,2666,2021-05-01 19:21:15:735
-0.01454,0.004135,9.782622,8.1E-4,-0.001378,9.806651,0.003072,0.001346,0.002059,2.52,-15.36,-25.08,189.2793,0.1721,-1.062,55.813835,37.50018,181.1761,NaN,0.0,12.0,,21 / 23,,2675,2021-05-01 19:21:15:744
-0.026391,0.011061,9.737374,-0.001423,-7.7E-5,9.80665,1.8E-5,0.001957,8.37E-4,2.46,-15.36,-25.5,189.2716,0.1649,-1.056,55.813835,37.50018,181.1761,NaN,0.0,12.0,,21 / 23,,2685,2021-05-01 19:21:15:754
-0.026391,0.011061,9.737374,-0.001423,-7.7E-5,9.80665,0.001239,0.001346,8.37E-4,2.46,-15.36,-25.5,189.2716,0.1649,-1.056,55.813835,37.50018,181.1761,NaN,0.0,12.0,,21 / 23,,2695,2021-05-01 19:21:15:764
-0.029476,-0.006743,9.782798,-0.003627,9.07E-4,9.806649,0.003683,0.004401,8.37E-4,1.68,-15.36,-25.32,189.2716,0.1649,-1.056,55.813835,37.50018,181.1761,NaN,0.0,12.0,,21 / 23,,2705,2021-05-01 19:21:15:774
-0.01182,1.49E-4,9.758577,-0.003627,9.07E-4,9.806649,0.003683,0.004401,8.37E-4,1.68,-15.36,-25.32,189.2716,0.1649,-1.056,55.813835,37.50018,181.1761,NaN,0.0,12.0,,21 / 23,,2715,2021-05-01 19:21:15:784
0.005363,0.002218,9.751101,-0.001843,3.23E-4,9.806651,6.29E-4,0.00379,0.002059,1.38,-15.42,-24.96,185.5706,0.1668,-1.0778,55.813835,37.50018,181.1761,NaN,0.0,12.0,,21 / 23,,2725,2021-05-01 19:21:15:794
0.004145,0.002346,9.753584,-0.001843,3.23E-4,9.806651,0.001239,0.002568,0.002059,1.38,-15.42,-24.96,185.5706,0.1668,-1.0778,55.813835,37.50018,181.1761,NaN,0.0,12.0,,21 / 23,,2735,2021-05-01 19:21:15:804
0.004145,0.002346,9.753584,-0.001806,4.3E-4,9.806651,6.29E-4,-0.003541,0.003891,1.26,-15.42,-24.72,185.5706,0.1668,-1.0778,55.813835,37.50018,181.1761,NaN,0.0,12.0,,21 / 23,,2745,2021-05-01 19:21:15:814
0.021453,0.003002,9.77482,-0.001806,4.3E-4,9.806651,0.001239,7.35E-4,8.37E-4,1.26,-15.42,-24.72,185.5706,0.1668,-1.0778,55.813835,37.50018,181.1761,NaN,0.0,12.0,,21 / 23,,2755,2021-05-01 19:21:15:824
0.006372,-0.002731,9.770282,-0.001806,4.3E-4,9.806651,0.001239,-0.001708,8.37E-4,1.26,-15.42,-24.72,185.5706,0.1668,-1.0778,55.813835,37.50018,181.1761,NaN,0.0,12.0,,21 / 23,,2766,2021-05-01 19:21:15:835
-0.013983,-0.0026,9.753924,-6.36E-4,0.001351,9.80665,0.00185,-0.001097,2.26E-4,1.68,-15.66,-25.32,188.7524,0.1682,-1.0886,55.813835,37.50018,181.1761,NaN,0.0,12.0,,21 / 23,,2775,2021-05-01 19:21:15:844
-0.013983,-0.0026,9.753924,-0.001589,0.003274,9.806649,6.29E-4,1.25E-4,0.002059,2.58,-15.54,-25.86,188.7524,0.1682,-1.0886,55.813835,37.50018,181.1761,NaN,0.0,12.0,,21 / 23,,2786,2021-05-01 19:21:15:855
-2.22E-4,-0.012092,9.789537,-0.001589,0.003274,9.806649,-5.93E-4,-0.003541,0.00328,2.58,-15.54,-25.86,188.7524,0.1682,-1.0886,55.813835,37.50018,181.1761,NaN,0.0,12.0,,21 / 23,,2795,2021-05-01 19:21:15:864
-0.010304,0.004065,9.76587,-6.97E-4,0.001014,9.806649,-5.93E-4,-0.003541,0.002059,2.58,-15.3,-25.68,193.0593,0.1857,-1.1006,55.813835,37.50018,181.1761,NaN,0.0,12.0,,21 / 23,,2805,2021-05-01 19:21:15:874
-0.00743,-0.00373,9.763416,-6.97E-4,0.001014,9.806649,-5.93E-4,-0.003541,0.002059,2.58,-15.3,-25.68,193.0593,0.1857,-1.1006,55.813835,37.50018,181.1761,NaN,0.0,12.0,,21 / 23,,2816,2021-05-01 19:21:15:885
-0.00743,-0.00373,9.735097,-9.19E-4,0.001068,9.806649,0.001239,-0.001708,2.26E-4,2.1,-15.0,-25.68,193.0593,0.1857,-1.1006,55.813835,37.50018,181.1761,NaN,0.0,12.0,,21 / 23,,2825,2021-05-01 19:21:15:894
-0.023897,0.012474,9.735097,-0.002153,0.001519,9.806649,0.003072,0.00379,0.00328,1.74,-15.9,-25.32,193.0593,0.1857,-1.1006,55.813835,37.50018,181.1761,NaN,0.0,12.0,,21 / 23,,2835,2021-05-01 19:21:15:904
0.005527,-0.001859,9.77517,-0.002153,0.001519,9.806649,0.002461,0.00379,0.001448,1.74,-15.9,-25.32,193.0593,0.1857,-1.1006,55.813835,37.50018,181.1761,NaN,0.0,12.0,,21 / 23,,2845,2021-05-01 19:21:15:914
0.009779,-0.005326,9.782252,-0.001874,4.46E-4,9.80665,6.29E-4,7.35E-4,-9.96E-4,1.5,-15.96,-24.84,188.7869,0.1915,-1.1149,55.813835,37.50018,181.1761,NaN,0.0,12.0,,21 / 23,,2855,2021-05-01 19:21:15:924
-0.011329,0.002724,9.739643,-0.001874,4.46E-4,9.80665,0.002461,0.00379,0.003891,1.5,-15.96,-24.84,188.7869,0.1915,-1.1149,55.813835,37.50018,181.1761,NaN,0.0,12.0,,21 / 23,,2866,2021-05-01 19:21:15:935
-0.024344,0.009499,9.763877,-0.003545,4.44E-4,9.806648,-5.93E-4,-0.001708,2.26E-4,1.5,-15.84,-25.2,188.7869,0.1915,-1.1149,55.813835,37.50018,181.1761,NaN,0.0,12.0,,21 / 23,,2875,2021-05-01 19:21:15:944
-0.024344,0.009499,9.763877,-0.003545,4.44E-4,9.806648,0.002461,0.003179,0.001448,1.5,-15.84,-25.2,188.7869,0.1915,-1.1149,55.813835,37.50018,181.1761,NaN,0.0,12.0,,21 / 23,,2885,2021-05-01 19:21:15:954
-0.016299,-0.001443,9.766053,-0.00437,8.09E-4,9.806649,1.8E-5,0.002568,0.004502,1.2,-15.78,-25.14,188.7869,0.1915,-1.1149,55.813835,37.50018,181.1761,NaN,0.0,12.0,,21 / 23,,2895,2021-05-01 19:21:15:964
-0.006336,-5.84E-4,9.773055,-5.67E-4,4.8E-5,9.80665,0.001239,0.001957,0.002669,1.86,-16.14,-24.84,188.826,0.1923,-1.1409,55.813835,37.50018,181.1761,NaN,0.0,12.0,,21 / 23,,2905,2021-05-01 19:21:15:974
0.006975,-0.00269,9.746533,-5.67E-4,4.8E-5,9.80665,-5.93E-4,0.002568,0.002059,1.86,-16.14,-24.84,188.826,0.1923,-1.1409,55.813835,37.50018,181.1761,NaN,0.0,12.0,,21 / 23,,2916,2021-05-01 19:21:15:985
0.006975,-0.00269,9.746533,-7.65E-4,7.9E-5,9.80665,0.001239,1.25E-4,-9.96E-4,2.64,-16.26,-24.78,188.826,0.1923,-1.1409,55.813835,37.50018,181.1761,NaN,0.0,12.0,,21 / 23,,2926,2021-05-01 19:21:15:995
0.019491,2.22E-4,9.743917,-7.65E-4,7.9E-5,9.80665,0.003072,0.001957,0.004502,2.64,-16.26,-24.78,188.826,0.1923,-1.1409,55.813835,37.50018,181.1761,NaN,0.0,12.0,,21 / 23,,2936,2021-05-01 19:21:16:005
0.012027,-0.006019,9.782338,-7.65E-4,7.9E-5,9.80665,6.29E-4,0.002568,0.002669,2.28,-16.14,-24.96,188.8329,0.1921,-1.1454,55.813835,37.50018,181.1761,NaN,0.0,12.0,,21 / 23,,2945,2021-05-01 19:21:16:014
0.024433,-0.010363,9.791665,-5.22E-4,-2.74E-4,9.80665,0.002461,0.002568,0.001448,2.28,-16.14,-24.96,188.8329,0.1921,-1.1454,55.813835,37.50018,181.1761,NaN,0.0,12.0,,21 / 23,,2956,2021-05-01 19:21:16:025
0.008448,-0.017515,9.775163,1.14E-4,-8.35E-4,9.806649,0.003072,0.002568,8.37E-4,2.22,-16.02,-25.14,188.8329,0.1921,-1.1454,55.813835,37.50018,181.1761,NaN,0.0,12.0,,21 / 23,,2966,2021-05-01 19:21:16:035
0.008448,-0.017515,9.775163,1.14E-4,-8.35E-4,9.806649,0.00185,0.003179,0.003891,2.22,-16.02,-25.14,188.8329,0.1921,-1.1454,55.813835,37.50018,181.1761,NaN,0.0,12.0,,21 / 23,,2975,2021-05-01 19:21:16:044
0.005278,-0.002371,9.741795,1.14E-4,-8.35E-4,9.806649,0.002461,0.001346,0.004502,2.22,-16.02,-25.14,188.8329,0.1921,-1.1454,55.813835,37.50018,181.1761,NaN,0.0,12.0,,21 / 23,,2986,2021-05-01 19:21:16:055
-0.007305,0.015648,9.749309,7.37E-4,-0.001675,9.80665,0.002461,0.00379,0.001448,2.16,-15.6,-24.72,188.8263,0.1831,-1.1396,55.813835,37.50018,181.1761,NaN,0.0,12.0,,21 / 23,,2995,2021-05-01 19:21:16:064
0.004201,0.008946,9.770598,7.37E-4,-0.001675,9.80665,0.002461,0.00379,-3.85E-4,2.16,-15.6,-24.72,188.8263,0.1831,-1.1396,55.813835,37.50018,181.1761,NaN,0.0,12.0,,21 / 23,,3005,2021-05-01 19:21:16:074
0.003328,0.004259,9.763402,0.001734,-0.001351,9.806649,6.29E-4,-4.86E-4,2.26E-4,2.22,-15.42,-24.12,188.8263,0.1831,-1.1396,55.813835,37.50018,181.1761,NaN,0.0,12.0,,21 / 23,,3015,2021-05-01 19:21:16:084
0.003328,0.004259,9.763402,6.77E-4,-5.72E-4,9.806651,0.00185,0.002568,8.37E-4,2.46,-15.84,-24.72,188.8107,0.1768,-1.1284,55.813835,37.50018,181.1761,NaN,0.0,12.0,,21 / 23,,3025,2021-05-01 19:21:16:094
-0.00389,0.018607,9.751611,6.77E-4,-5.72E-4,9.806651,-0.003647,-0.00293,-0.001607,2.46,-15.84,-24.72,188.8107,0.1768,-1.1284,55.813835,37.50018,181.1761,NaN,0.0,12.0,,21 / 23,,3035,2021-05-01 19:21:16:104
-0.004763,0.011436,9.763558,0.001513,-0.001051,9.806651,-0.003647,-0.00293,-0.001607,2.22,-15.66,-25.2,188.8107,0.1768,-1.1284,55.813835,37.50018,181.1761,NaN,0.0,12.0,,21 / 23,,3045,2021-05-01 19:21:16:114
-0.011419,3.68E-4,9.758828,0.001513,-0.001051,9.806651,1.8E-5,-0.003541,0.002059,2.22,-15.66,-25.2,188.8107,0.1768,-1.1284,55.813835,37.50018,181.1761,NaN,0.0,12.0,,21 / 23,,3055,2021-05-01 19:21:16:124
-0.011419,3.68E-4,9.758828,0.001513,-0.001051,9.806651,0.002461,-0.004151,0.004502,2.22,-15.66,-25.2,188.8107,0.1768,-1.1284,55.813835,37.50018,181.1761,NaN,0.0,12.0,,21 / 23,,3065,2021-05-01 19:21:16:134
0.007905,-0.0067,9.772752,7.36E-4,-7.53E-4,9.806648,6.29E-4,-0.003541,0.001448,1.62,-15.6,-25.14,188.7972,0.1721,-1.1187,55.813835,37.50018,181.1761,NaN,0.0,12.0,,21 / 23,,3075,2021-05-01 19:21:16:144
0.005556,0.010651,9.76332,7.36E-4,-7.53E-4,9.806648,1.8E-5,-0.002319,0.004502,1.62,-15.6,-25.14,188.7972,0.1721,-1.1187,55.813835,37.50018,181.1761,NaN,0.0,12.0,,21 / 23,,3085,2021-05-01 19:21:16:154
0.011583,-0.014545,9.775031,0.001909,-0.001861,9.806647,6.29E-4,-0.004762,0.002669,1.98,-16.14,-25.56,188.7972,0.1721,-1.1187,55.813835,37.50018,181.1761,NaN,0.0,12.0,,21 / 23,,3095,2021-05-01 19:21:16:164
0.011583,-0.014545,9.775031,0.002098,-0.001359,9.806652,-5.93E-4,-0.005984,-9.96E-4,2.52,-16.08,-25.5,192.225,0.1631,-1.106,55.813835,37.50018,181.1761,NaN,0.0,12.0,,21 / 23,,3105,2021-05-01 19:21:16:174
-0.004624,0.006944,9.737108,0.002098,-0.001359,9.806652,0.002461,1.25E-4,2.26E-4,2.52,-16.08,-25.5,192.225,0.1631,-1.106,55.813835,37.50018,181.1761,NaN,0.0,12.0,,21 / 23,,3115,2021-05-01 19:21:16:184
0.004315,0.002544,9.741704,0.002098,-0.001359,9.806652,1.8E-5,7.35E-4,0.002059,2.52,-16.08,-25.5,192.225,0.1631,-1.106,55.813835,37.50018,181.1761,NaN,0.0,12.0,,21 / 23,,3125,2021-05-01 19:21:16:194
0.013042,0.015192,9.796711,0.004159,-0.002729,9.806651,0.001239,7.35E-4,0.002059,2.34,-15.9,-25.2,192.225,0.1631,-1.106,55.813835,37.50018,181.1761,NaN,0.0,12.0,,21 / 23,,3135,2021-05-01 19:21:16:204
-0.017338,-0.010011,9.77554,0.001706,-0.00131,9.806651,6.29E-4,-0.002319,-3.85E-4,2.16,-15.72,-25.02,188.7413,0.1526,-1.0789,55.813835,37.50018,181.1761,NaN,0.0,12.0,,21 / 23,,3145,2021-05-01 19:21:16:214
-0.017338,-0.010011,9.77554,0.001706,-0.00131,9.806651,0.002461,0.002568,0.005724,2.16,-15.72,-25.02,188.7413,0.1526,-1.0789,55.813835,37.50018,181.1761,NaN,0.0,12.0,,21 / 23,,3155,2021-05-01 19:21:16:224
0.016688,0.002632,9.75575,0.002379,-0.002068,9.806649,1.8E-5,0.006233,0.002059,2.04,-15.72,-24.96,188.7413,0.1526,-1.0789,55.813835,37.50018,181.1761,NaN,0.0,12.0,,21 / 23,,3166,2021-05-01 19:21:16:235
-0.001243,-0.004315,9.760827,0.002379,-0.002068,9.806649,0.002461,0.003179,2.26E-4,2.04,-15.72,-24.96,188.7413,0.1526,-1.0789,55.813835,37.50018,181.1761,NaN,0.0,12.0,,21 / 23,,3175,2021-05-01 19:21:16:244
-0.032767,0.012675,9.749522,0.002379,-0.002068,9.806649,0.003683,0.002568,0.002059,1.8,-15.78,-25.26,188.72,0.1428,-1.0633,55.813835,37.50018,181.1761,NaN,0.0,12.0,,21 / 23,,3186,2021-05-01 19:21:16:255
0.001512,0.013883,9.772796,5.12E-4,-6.79E-4,9.80665,0.003683,0.002568,0.002059,1.8,-15.78,-25.26,188.72,0.1428,-1.0633,55.813835,37.50018,181.1761,NaN,0.0,12.0,,21 / 23,,3195,2021-05-01 19:21:16:264
-0.020064,-0.002223,9.787467,1.75E-4,-0.001302,9.806651,-5.93E-4,-0.001708,0.002669,1.56,-16.02,-25.2,188.72,0.1428,-1.0633,55.813835,37.50018,181.1761,NaN,0.0,12.0,,21 / 23,,3206,2021-05-01 19:21:16:275
-0.020064,-0.002223,9.787467,1.75E-4,-0.001302,9.806651,1.8E-5,0.001346,0.004502,1.56,-16.02,-25.2,188.72,0.1428,-1.0633,55.813835,37.50018,181.1761,NaN,0.0,12.0,,21 / 23,,3215,2021-05-01 19:21:16:284
-0.007402,0.003138,9.772899,-7.97E-4,1.46E-4,9.806649,6.29E-4,-4.86E-4,0.004502,1.8,-15.96,-25.14,188.7184,0.1354,-1.0611,55.813835,37.50018,181.1761,NaN,0.0,12.0,,21 / 23,,3226,2021-05-01 19:21:16:295
8.45E-4,0.012851,9.765605,-7.97E-4,1.46E-4,9.806649,-5.93E-4,-0.003541,0.002059,1.8,-15.96,-25.14,188.7184,0.1354,-1.0611,55.813835,37.50018,181.1761,NaN,0.0,12.0,,21 / 23,,3236,2021-05-01 19:21:16:305
8.45E-4,0.012851,9.765605,-6.51E-4,2.09E-4,9.806649,-5.93E-4,-4.86E-4,0.002669,2.04,-15.96,-25.44,188.7184,0.1354,-1.0611,55.813835,37.50018,181.1761,NaN,0.0,12.0,,21 / 23,,3246,2021-05-01 19:21:16:315
0.016234,0.003236,9.760489,-6.51E-4,2.09E-4,9.806649,0.001239,-0.003541,0.002669,2.04,-15.96,-25.44,188.7184,0.1354,-1.0611,55.813835,37.50018,181.1761,NaN,0.0,12.0,,21 / 23,,3255,2021-05-01 19:21:16:324
-0.02689,0.024427,9.742215,1.34E-4,2.62E-4,9.806651,0.001239,-4.86E-4,0.002669,1.02,-16.74,-25.2,184.9068,0.1361,-1.0651,55.813835,37.50018,181.1761,NaN,0.0,12.0,,21 / 23,,3265,2021-05-01 19:21:16:334
-0.021752,0.009898,9.737269,1.34E-4,2.62E-4,9.806651,6.29E-4,1.25E-4,-0.002217,1.02,-16.74,-25.2,184.9068,0.1361,-1.0651,55.813835,37.50018,181.1761,NaN,0.0,12.0,,21 / 23,,3275,2021-05-01 19:21:16:344
1.96E-4,0.007952,9.763201,-8.65E-4,0.001241,9.80665,0.004294,0.002568,0.002059,0.84,-16.32,-24.48,184.9068,0.1361,-1.0651,55.813835,37.50018,181.1761,NaN,0.0,12.0,,21 / 23,,3285,2021-05-01 19:21:16:354
1.96E-4,0.007952,9.763201,-8.65E-4,0.001241,9.80665,0.00185,0.00379,8.37E-4,0.84,-16.32,-24.48,184.9068,0.1361,-1.0651,55.813835,37.50018,181.1761,NaN,0.0,12.0,,21 / 23,,3295,2021-05-01 19:21:16:364
0.010117,0.009481,9.772604,-6.56E-4,7.57E-4,9.806651,0.001239,0.001957,0.002669,2.22,-15.36,-24.54,189.3011,0.1429,-1.0707,55.813835,37.50018,181.1761,NaN,0.0,12.0,,21 / 23,,3306,2021-05-01 19:21:16:375
0.001008,-0.012725,9.772685,-6.56E-4,7.57E-4,9.806651,0.001239,0.001957,0.002669,2.22,-15.36,-24.54,189.3011,0.1429,-1.0707,55.813835,37.50018,181.1761,NaN,0.0,12.0,,21 / 23,,3316,2021-05-01 19:21:16:385
-0.005093,-0.001943,9.741724,-0.001364,0.001216,9.806652,0.001239,0.001957,0.002059,2.52,-15.9,-25.14,189.3011,0.1429,-1.0707,55.813835,37.50018,181.1761,NaN,0.0,12.0,,21 / 23,,3325,2021-05-01 19:21:16:394
-0.005093,-0.001943,9.741724,-0.001364,0.001216,9.806652,-0.001204,1.25E-4,8.37E-4,2.52,-15.9,-25.14,189.3011,0.1429,-1.0707,55.813835,37.50018,181.1761,NaN,0.0,12.0,,21 / 23,,3335,2021-05-01 19:21:16:404
-0.005434,0.010231,9.746586,-0.001474,0.001976,9.806651,-5.93E-4,-0.00293,0.002669,2.7,-16.14,-25.14,189.3011,0.1429,-1.0707,55.813835,37.50018,181.1761,NaN,0.0,12.0,,21 / 23,,3346,2021-05-01 19:21:16:415
0.008696,-0.009108,9.762988,-4.51E-4,0.001095,9.80665,0.00185,1.25E-4,8.37E-4,2.76,-15.9,-25.44,192.1914,0.1529,-1.0811,55.813835,37.50018,181.1761,NaN,0.0,12.0,,21 / 23,,3355,2021-05-01 19:21:16:424
-8.22E-4,0.00781,9.768086,-4.51E-4,0.001095,9.80665,0.00185,1.25E-4,0.002669,2.76,-15.9,-25.44,192.1914,0.1529,-1.0811,55.813835,37.50018,181.1761,NaN,0.0,12.0,,21 / 23,,3366,2021-05-01 19:21:16:435
-8.22E-4,0.00781,9.768086,-0.001328,0.002829,9.806649,0.004905,0.006844,0.00328,2.1,-16.2,-24.66,192.1914,0.1529,-1.0811,55.813835,37.50018,181.1761,NaN,0.0,12.0,,21 / 23,,3375,2021-05-01 19:21:16:444
-0.016883,0.001481,9.768332,-0.001328,0.002829,9.806649,0.001239,0.003179,2.26E-4,2.1,-16.2,-24.66,192.1914,0.1529,-1.0811,55.813835,37.50018,181.1761,NaN,0.0,12.0,,21 / 23,,3385,2021-05-01 19:21:16:454
0.016381,-0.003255,9.767706,-0.001927,0.003496,9.806649,0.00185,0.001957,0.002059,1.86,-16.62,-24.72,192.1914,0.1529,-1.0811,55.813835,37.50018,181.1761,NaN,0.0,12.0,,21 / 23,,3395,2021-05-01 19:21:16:464
0.007381,0.010911,9.777538,-8.39E-4,4.01E-4,9.806651,0.00185,0.001957,8.37E-4,2.64,-16.26,-24.84,192.2085,0.1704,-1.0964,55.813835,37.50018,181.1761,NaN,0.0,12.0,,21 / 23,,3405,2021-05-01 19:21:16:474
0.004538,0.008468,9.772845,-8.39E-4,4.01E-4,9.806651,0.003683,0.005622,8.37E-4,2.64,-16.26,-24.84,192.2085,0.1704,-1.0964,55.813835,37.50018,181.1761,NaN,0.0,12.0,,21 / 23,,3415,2021-05-01 19:21:16:484
0.004538,0.008468,9.772845,-8.39E-4,4.01E-4,9.806651,0.005516,0.003179,0.004502,2.64,-16.26,-24.84,192.2085,0.1704,-1.0964,55.813835,37.50018,181.1761,NaN,0.0,12.0,,21 / 23,,3425,2021-05-01 19:21:16:494
-0.016897,0.003422,9.734882,-0.001374,0.001197,9.806651,0.002461,0.002568,0.002059,2.46,-15.96,-25.38,192.2085,0.1704,-1.0964,55.813835,37.50018,181.1761,NaN,0.0,12.0,,21 / 23,,3435,2021-05-01 19:21:16:504
0.011474,0.001889,9.753542,-1.61E-4,8.3E-5,9.806651,0.001239,1.25E-4,0.004502,2.22,-16.14,-25.8,188.8422,0.1756,-1.1058,55.813835,37.50018,181.1761,NaN,0.0,12.0,,21 / 23,,3445,2021-05-01 19:21:16:514
0.016104,-0.001299,9.767805,-2.11E-4,3.23E-4,9.806651,0.001239,-0.001708,-0.001607,1.98,-15.96,-25.2,188.8422,0.1756,-1.1058,55.813835,37.50018,181.1761,NaN,0.0,12.0,,21 / 23,,3455,2021-05-01 19:21:16:524
0.016104,-0.001299,9.767805,-2.11E-4,3.23E-4,9.806651,0.00185,0.001957,0.002059,1.98,-15.96,-25.2,188.8422,0.1756,-1.1058,55.813835,37.50018,181.1761,NaN,0.0,12.0,,21 / 23,,3465,2021-05-01 19:21:16:534
0.016941,0.005885,9.753464,1.73E-4,-3.08E-4,9.806651,0.003072,7.35E-4,0.003891,2.28,-16.68,-24.96,188.2719,0.1773,-1.1073,55.813835,37.50018,181.1761,NaN,0.0,12.0,,21 / 23,,3475,2021-05-01 19:21:16:544
0.016941,0.005885,9.753464,1.73E-4,-3.08E-4,9.806651,0.003072,7.35E-4,0.003891,2.28,-16.68,-24.96,188.2719,0.1773,-1.1073,55.813835,37.50018,181.1761,NaN,0.0,12.0,,21 / 23,,3486,2021-05-01 19:21:16:555
-3.27E-4,-0.018445,9.78478,7.75E-4,-5.21E-4,9.806651,6.29E-4,-0.00293,2.26E-4,2.16,-16.68,-24.78,188.2719,0.1773,-1.1073,55.813835,37.50018,181.1761,NaN,0.0,12.0,,21 / 23,,3495,2021-05-01 19:21:16:564
0.003272,-0.006789,9.758438,0.001556,-0.00172,9.80665,1.8E-5,-4.86E-4,0.002669,2.16,-16.56,-25.02,188.2719,0.1773,-1.1073,55.813835,37.50018,181.1761,NaN,0.0,12.0,,21 / 23,,3506,2021-05-01 19:21:16:575
0.016752,-0.013579,9.755753,0.001556,-0.00172,9.80665,-0.001815,-4.86E-4,0.002059,2.16,-16.56,-25.02,188.2719,0.1773,-1.1073,55.813835,37.50018,181.1761,NaN,0.0,12.0,,21 / 23,,3515,2021-05-01 19:21:16:584
0.016752,-0.013579,9.755753,0.001343,-0.001208,9.80665,-5.93E-4,-0.001097,8.37E-4,2.88,-16.56,-25.8,191.5739,0.1686,-1.0968,55.813835,37.50018,181.1761,NaN,0.0,12.0,,21 / 23,,3525,2021-05-01 19:21:16:594
-0.003773,0.005687,9.753819,0.001343,-0.001208,9.80665,6.29E-4,-4.86E-4,0.002669,2.88,-16.56,-25.8,191.5739,0.1686,-1.0968,55.813835,37.50018,181.1761,NaN,0.0,12.0,,21 / 23,,3535,2021-05-01 19:21:16:604
0.003526,0.006673,9.741718,0.001664,-0.001469,9.80665,1.8E-5,1.25E-4,0.001448,2.64,-16.68,-25.74,191.5739,0.1686,-1.0968,55.813835,37.50018,181.1761,NaN,0.0,12.0,,21 / 23,,3545,2021-05-01 19:21:16:614
0.006251,-0.003654,9.739204,0.003146,-0.002899,9.80665,0.003683,0.002568,2.26E-4,1.98,-16.26,-25.44,191.5739,0.1686,-1.0968,55.813835,37.50018,181.1761,NaN,0.0,12.0,,21 / 23,,3556,2021-05-01 19:21:16:625
0.006251,-0.003654,9.739204,0.003146,-0.002899,9.80665,0.00185,0.002568,-3.85E-4,1.98,-16.26,-25.44,191.5739,0.1686,-1.0968,55.813835,37.50018,181.1761,NaN,0.0,12.0,,21 / 23,,3566,2021-05-01 19:21:16:635
4.81E-4,0.002365,9.756113,9.77E-4,-9.32E-4,9.80665,0.002461,0.001346,-9.96E-4,1.86,-15.66,-25.14,188.7354,0.1557,-1.0754,55.813835,37.50018,181.1761,NaN,0.0,12.0,,21 / 23,,3576,2021-05-01 19:21:16:645
4.81E-4,0.002365,9.756113,9.77E-4,-9.32E-4,9.80665,0.002461,0.001346,-9.96E-4,1.86,-15.66,-25.14,188.7354,0.1557,-1.0754,55.813835,37.50018,181.1761,NaN,0.0,12.0,,21 / 23,,3585,2021-05-01 19:21:16:654
0.013961,0.002475,9.772553,0.001099,-0.001071,9.80665,6.29E-4,0.002568,0.002059,1.98,-15.78,-25.2,188.7354,0.1557,-1.0754,55.813835,37.50018,181.1761,NaN,0.0,12.0,,21 / 23,,3596,2021-05-01 19:21:16:665
0.006689,0.003619,9.763113,0.001771,-0.001367,9.806651,-4.7E-5,-7.54E-4,5.0E-4,2.04,-15.78,-25.56,188.7354,0.1557,-1.0754,55.813835,37.50018,181.1761,NaN,0.0,12.0,,21 / 23,,3606,2021-05-01 19:21:16:675
-0.008495,0.001146,9.749007,0.001771,-0.001367,9.806651,0.002396,0.002301,0.001722,2.04,-15.78,-25.56,188.7354,0.1557,-1.0754,55.813835,37.50018,181.1761,NaN,0.0,12.0,,21 / 23,,3615,2021-05-01 19:21:16:684
0.002754,-0.002972,9.736806,6.0E-4,1.38E-4,9.80665,-4.7E-5,-7.54E-4,-1.11E-4,2.1,-16.32,-25.56,188.7827,0.1494,-1.064,55.813835,37.50018,181.1761,NaN,0.0,12.0,,21 / 23,,3625,2021-05-01 19:21:16:694
0.002754,-0.002972,9.736806,6.0E-4,1.38E-4,9.80665,-4.7E-5,-7.54E-4,-1.11E-4,2.1,-16.32,-25.56,188.7827,0.1494,-1.064,55.813835,37.50018,181.1761,NaN,0.0,12.0,,21 / 23,,3636,2021-05-01 19:21:16:705
-6.41E-4,0.017993,9.74652,8.19E-4,6.94E-4,9.80665,-0.001269,0.00169,-0.002554,1.86,-16.56,-25.5,188.7827,0.1494,-1.064,55.813835,37.50018,181.1761,NaN,0.0,12.0,,21 / 23,,3646,2021-05-01 19:21:16:715
0.003381,-0.004463,9.758301,0.001122,0.001305,9.80665,5.64E-4,4.68E-4,0.001722,2.22,-16.56,-24.54,188.7827,0.1494,-1.064,55.813835,37.50018,181.1761,NaN,0.0,12.0,,21 / 23,,3656,2021-05-01 19:21:16:725
0.003381,-0.004463,9.758301,0.001122,0.001305,9.80665,-6.58E-4,-1.43E-4,-1.11E-4,2.22,-16.56,-24.54,188.7827,0.1494,-1.064,55.813835,37.50018,181.1761,NaN,0.0,12.0,,21 / 23,,3665,2021-05-01 19:21:16:734
-0.003187,0.003936,9.765642,0.001062,0.002128,9.80665,-0.001269,0.00169,0.001111,1.98,-16.2,-24.9,188.71,0.1626,-1.0597,55.813835,37.50018,181.1761,NaN,0.0,12.0,,21 / 23,,3676,2021-05-01 19:21:16:745
0.003378,5.35E-4,9.755926,-1.63E-4,5.09E-4,9.80665,-6.58E-4,-7.54E-4,0.001111,2.52,-16.68,-24.84,188.71,0.1626,-1.0597,55.813835,37.50018,181.1761,NaN,0.0,12.0,,21 / 23,,3686,2021-05-01 19:21:16:755
0.003378,5.35E-4,9.755926,-1.63E-4,5.09E-4,9.80665,-6.58E-4,-7.54E-4,0.001111,2.52,-16.68,-24.84,188.71,0.1626,-1.0597,55.813835,37.50018,181.1761,NaN,0.0,12.0,,23 / 23,,3695,2021-05-01 19:21:16:764
0.004763,-0.00448,9.741506,-1.96E-4,0.001112,9.806649,-6.58E-4,0.00169,0.001722,2.76,-16.38,-24.9,188.71,0.1626,-1.0597,55.813835,37.50018,181.1761,NaN,0.0,12.0,,23 / 23,,3705,2021-05-01 19:21:16:774
-0.003764,0.001636,9.753666,-1.96E-4,0.001112,9.806649,5.64E-4,4.68E-4,0.001111,2.76,-16.38,-24.9,188.71,0.1626,-1.0597,55.813835,37.50018,181.1761,NaN,0.0,12.0,,23 / 23,,3715,2021-05-01 19:21:16:784
-0.002128,-0.004081,9.744031,-1.67E-4,6.8E-4,9.80665,-6.58E-4,-7.54E-4,-1.11E-4,2.4,-16.14,-25.14,188.7114,0.1664,-1.0613,55.813835,37.50018,181.1761,NaN,0.0,12.0,,23 / 23,,3726,2021-05-01 19:21:16:795
-0.002128,-0.004081,9.744031,-1.67E-4,6.8E-4,9.80665,0.003007,-1.43E-4,0.001111,2.4,-16.14,-25.14,188.7114,0.1664,-1.0613,55.813835,37.50018,181.1761,NaN,0.0,12.0,,23 / 23,,3736,2021-05-01 19:21:16:805
0.003478,0.002362,9.731994,2.36E-4,9.7E-5,9.80665,0.001786,0.003522,0.001722,2.16,-16.44,-25.38,188.7114,0.1664,-1.0613,55.813835,37.50018,181.1761,NaN,0.0,12.0,,23 / 23,,3745,2021-05-01 19:21:16:814
0.004206,0.002131,9.772689,2.36E-4,9.7E-5,9.80665,0.001175,-7.54E-4,0.001111,2.16,-16.44,-25.38,188.7114,0.1664,-1.0613,55.813835,37.50018,181.1761,NaN,0.0,12.0,,23 / 23,,3755,2021-05-01 19:21:16:824
0.004206,0.002131,9.772689,-1.6E-4,-2.5E-5,9.806651,-4.7E-5,-7.54E-4,0.001111,1.8,-16.62,-25.26,188.2064,0.1672,-1.06,55.813835,37.50018,181.1761,NaN,0.0,12.0,,23 / 23,,3765,2021-05-01 19:21:16:834
-0.003051,-0.011401,9.760768,-1.6E-4,-2.5E-5,9.806651,0.001786,0.002301,-1.11E-4,1.8,-16.62,-25.26,188.2064,0.1672,-1.06,55.813835,37.50018,181.1761,NaN,0.0,12.0,,23 / 23,,3776,2021-05-01 19:21:16:845
-0.003051,-0.011401,9.760768,-1.6E-4,-2.5E-5,9.806651,0.001786,0.002301,-1.11E-4,1.8,-16.62,-25.26,188.2064,0.1672,-1.06,55.813835,37.50018,181.1761,NaN,0.0,12.0,,23 / 23,,3785,2021-05-01 19:21:16:854
0.005254,-0.007845,9.789374,2.03E-4,-6.38E-4,9.80665,0.001175,0.002301,5.0E-4,2.22,-16.2,-24.84,188.2064,0.1672,-1.06,55.813835,37.50018,181.1761,NaN,0.0,12.0,,23 / 23,,3795,2021-05-01 19:21:16:864
0.003524,0.002201,9.748753,4.61E-4,-2.58E-4,9.80665,-6.58E-4,-0.003808,0.001722,2.52,-16.02,-24.54,192.1541,0.1637,-1.0583,55.813835,37.50018,181.1761,NaN,0.0,12.0,,23 / 23,,3805,2021-05-01 19:21:16:874
-0.001958,0.011117,9.751299,4.61E-4,-2.58E-4,9.80665,0.001786,-0.001365,0.002333,2.52,-16.02,-24.54,192.1541,0.1637,-1.0583,55.813835,37.50018,181.1761,NaN,0.0,12.0,,23 / 23,,3816,2021-05-01 19:21:16:885
-0.001958,-0.006339,9.760737,0.00102,-3.78E-4,9.80665,-6.58E-4,4.68E-4,0.003555,1.74,-16.32,-24.84,192.1541,0.1637,-1.0583,55.813835,37.50018,181.1761,NaN,0.0,12.0,,23 / 23,,3826,2021-05-01 19:21:16:895
-6.39E-4,-0.006339,9.760737,0.00102,-3.78E-4,9.80665,0.001786,4.68E-4,-1.11E-4,1.74,-16.32,-24.84,192.1541,0.1637,-1.0583,55.813835,37.50018,181.1761,NaN,0.0,12.0,,23 / 23,,3835,2021-05-01 19:21:16:904
-0.002491,0.021063,9.739401,-1.26E-4,-4.8E-5,9.806649,-0.003101,0.002301,0.002944,1.98,-15.9,-25.56,188.7607,0.1627,-1.052,55.813835,37.50018,181.1761,NaN,0.0,12.0,,23 / 23,,3845,2021-05-01 19:21:16:914
4.83E-4,0.005795,9.758378,-1.26E-4,-4.8E-5,9.806649,0.003618,0.003522,0.003555,1.98,-15.9,-25.56,188.7607,0.1627,-1.052,55.813835,37.50018,181.1761,NaN,0.0,12.0,,23 / 23,,3855,2021-05-01 19:21:16:924
4.83E-4,0.005795,9.758378,-2.17E-4,-4.42E-4,9.80665,0.002396,0.002301,5.0E-4,2.28,-16.74,-25.8,188.7607,0.1627,-1.052,55.813835,37.50018,181.1761,NaN,0.0,12.0,,23 / 23,,3866,2021-05-01 19:21:16:935
0.013602,-0.005978,9.779632,-2.17E-4,-4.42E-4,9.80665,-6.58E-4,0.001079,5.0E-4,2.28,-16.74,-25.8,188.7607,0.1627,-1.052,55.813835,37.50018,181.1761,NaN,0.0,12.0,,23 / 23,,3875,2021-05-01 19:21:16:944
-0.012848,-0.001834,9.756176,-2.17E-4,-4.42E-4,9.80665,-6.58E-4,0.001079,5.0E-4,2.28,-16.74,-25.8,188.7607,0.1627,-1.052,55.813835,37.50018,181.1761,NaN,0.0,12.0,,23 / 23,,3885,2021-05-01 19:21:16:954
-0.006448,-0.009677,9.760813,-1.79E-4,9.91E-4,9.806651,5.64E-4,-1.43E-4,5.0E-4,1.92,-17.1,-25.02,188.1976,0.16,-1.0529,55.813835,37.50018,181.1761,NaN,0.0,12.0,,23 / 23,,3895,2021-05-01 19:21:16:964
6.39E-4,0.011188,9.72009,-1.79E-4,9.91E-4,9.806651,-4.7E-5,4.68E-4,-7.21E-4,1.92,-17.1,-25.02,188.1976,0.16,-1.0529,55.813835,37.50018,181.1761,NaN,0.0,12.0,,23 / 23,,3905,2021-05-01 19:21:16:974
6.39E-4,0.011188,9.72009,-0.001151,0.00235,9.806651,0.001175,-7.54E-4,-0.001943,1.08,-16.14,-24.6,188.1976,0.16,-1.0529,55.813835,37.50018,181.1761,NaN,0.0,12.0,,23 / 23,,3915,2021-05-01 19:21:16:984
0.014086,-0.002992,9.772457,-0.001413,0.001674,9.806649,0.001175,-1.43E-4,0.001722,0.78,-15.84,-24.9,185.2,0.1726,-1.0615,55.813835,37.50018,181.1761,NaN,0.0,12.0,,23 / 23,,3925,2021-05-01 19:21:16:994
0.006824,0.003435,9.784621,-0.001413,0.001674,9.806649,0.002396,-0.003808,5.0E-4,0.78,-15.84,-24.9,185.2,0.1726,-1.0615,55.813835,37.50018,181.1761,NaN,0.0,12.0,,23 / 23,,3935,2021-05-01 19:21:17:004
-0.0113,0.002882,9.717896,-0.002437,0.003033,9.806648,5.64E-4,-0.001365,5.0E-4,1.02,-16.14,-24.96,185.2,0.1726,-1.0615,55.813835,37.50018,181.1761,NaN,0.0,12.0,,23 / 23,,3945,2021-05-01 19:21:17:014
-0.0113,0.002882,9.717896,-0.002437,0.003033,9.806648,-6.58E-4,-0.003808,-7.21E-4,1.02,-16.14,-25.2,185.2,0.1726,-1.0615,55.813835,37.50018,181.1761,NaN,0.0,12.0,,23 / 23,,3955,2021-05-01 19:21:17:024
-0.00397,0.023751,9.751387,-0.00322,0.00403,9.806648,0.001175,0.00169,0.002333,1.02,-16.14,-25.2,185.2,0.1726,-1.0615,55.813835,37.50018,181.1761,NaN,0.0,12.0,,23 / 23,,3965,2021-05-01 19:21:17:034
-0.005662,0.002224,9.765686,-0.00322,0.00403,9.806648,0.001175,-0.003197,0.001111,1.62,-16.5,-25.32,188.7369,0.1944,-1.0824,55.813835,37.50018,181.1761,NaN,0.0,12.0,,23 / 23,,3975,2021-05-01 19:21:17:044
-0.005662,0.002224,9.765686,-4.52E-4,1.79E-4,9.806651,0.001175,-0.003197,0.001111,1.62,-16.5,-25.32,188.7369,0.1944,-1.0824,55.813835,37.50018,181.1761,NaN,0.0,12.0,,23 / 23,,3986,2021-05-01 19:21:17:055
-0.004721,0.003641,9.737024,-4.52E-4,1.79E-4,9.806651,-6.58E-4,-0.001365,-0.001332,1.86,-16.62,-24.96,188.7369,0.1944,-1.0824,55.813835,37.50018,181.1761,NaN,0.0,12.0,,23 / 23,,3995,2021-05-01 19:21:17:064
-7.0E-5,-0.01903,9.782298,-5.46E-4,2.07E-4,9.806651,5.64E-4,0.002301,-7.21E-4,1.86,-16.62,-24.96,188.7369,0.1944,-1.0824,55.813835,37.50018,181.1761,NaN,0.0,12.0,,23 / 23,,4005,2021-05-01 19:21:17:074
-7.0E-5,-0.01903,9.782298,-5.46E-4,2.07E-4,9.806651,0.001175,0.002911,-1.11E-4,1.8,-15.9,-25.14,188.7418,0.1951,-1.0857,55.813835,37.50018,181.1761,NaN,0.0,12.0,,23 / 23,,4016,2021-05-01 19:21:17:085
-0.003364,0.00814,9.741829,-5.46E-4,2.07E-4,9.806651,0.001786,0.00169,-7.21E-4,1.8,-15.9,-25.14,188.7418,0.1951,-1.0857,55.813835,37.50018,181.1761,NaN,0.0,12.0,,23 / 23,,4026,2021-05-01 19:21:17:095
-0.003015,0.00802,9.760979,-4.15E-4,-2.35E-4,9.806651,-6.58E-4,-0.001365,5.0E-4,2.04,-15.84,-25.32,188.7418,0.1951,-1.0857,55.813835,37.50018,181.1761,NaN,0.0,12.0,,23 / 23,,4035,2021-05-01 19:21:17:104
0.01295,6.97E-4,9.767827,-0.001089,-0.001122,9.80665,5.64E-4,-0.001365,0.004165,1.8,-15.96,-25.02,188.7418,0.1951,-1.0857,55.813835,37.50018,181.1761,NaN,0.0,12.0,,23 / 23,,4045,2021-05-01 19:21:17:114
0.01295,6.97E-4,9.767827,-0.001089,-0.001122,9.80665,5.64E-4,-0.001365,0.004165,1.8,-15.96,-25.02,188.7418,0.1951,-1.0857,55.813835,37.50018,181.1761,NaN,0.0,12.0,,23 / 23,,4056,2021-05-01 19:21:17:125
0.007431,-0.009183,9.760695,-2.17E-4,-4.91E-4,9.806651,-4.7E-5,0.00169,-1.11E-4,1.74,-16.62,-25.02,188.2465,0.1876,-1.091,55.813835,37.50018,181.1761,NaN,0.0,12.0,,23 / 23,,4065,2021-05-01 19:21:17:134
0.004622,-0.008697,9.736803,5.97E-4,-0.002231,9.80665,5.64E-4,-0.001976,0.001722,1.86,-16.38,-25.38,188.2465,0.1876,-1.091,55.813835,37.50018,181.1761,NaN,0.0,12.0,,23 / 23,,4075,2021-05-01 19:21:17:144
0.004622,-0.008697,9.736803,5.97E-4,-0.002231,9.80665,0.003007,-0.001365,0.001722,1.86,-16.38,-25.38,188.2465,0.1876,-1.091,55.813835,37.50018,181.1761,NaN,0.0,12.0,,23 / 23,,4085,2021-05-01 19:21:17:154
0.004771,-0.013708,9.78227,9.2E-4,-0.003051,9.80665,-0.001269,-0.001976,0.002333,2.22,-16.56,-25.86,188.2465,0.1876,-1.091,55.813835,37.50018,181.1761,NaN,0.0,12.0,,23 / 23,,4095,2021-05-01 19:21:17:164
0.014873,0.009101,9.758273,8.92E-4,-0.001222,9.80665,-0.003101,-0.002586,-1.11E-4,1.86,-16.74,-25.74,188.2994,0.1708,-1.0831,55.813835,37.50018,181.1761,NaN,0.0,12.0,,23 / 23,,4106,2021-05-01 19:21:17:175
-0.014639,-6.2E-4,9.751536,8.92E-4,-0.001222,9.80665,-4.7E-5,-0.003197,0.002333,1.86,-16.74,-25.74,188.2994,0.1708,-1.0831,55.813835,37.50018,181.1761,NaN,0.0,12.0,,23 / 23,,4116,2021-05-01 19:21:17:185
0.008793,0.012951,9.734422,0.001592,-0.002435,9.806649,0.001786,-7.54E-4,-0.001332,2.28,-16.38,-25.86,188.2994,0.1708,-1.0831,55.813835,37.50018,181.1761,NaN,0.0,12.0,,23 / 23,,4126,2021-05-01 19:21:17:195
0.008793,0.012951,9.734422,0.001592,-0.002435,9.806649,-0.001269,-7.54E-4,-1.11E-4,2.28,-16.38,-25.86,188.2994,0.1708,-1.0831,55.813835,37.50018,181.1761,NaN,0.0,12.0,,23 / 23,,4136,2021-05-01 19:21:17:205
0.012888,0.00503,9.755855,3.22E-4,-8.82E-4,9.806651,0.002396,0.001079,0.002944,2.52,-16.02,-25.38,192.176,0.158,-1.0719,55.813835,37.50018,181.1761,NaN,0.0,12.0,,23 / 23,,4146,2021-05-01 19:21:17:215
0.001848,0.018652,9.741744,3.22E-4,-8.82E-4,9.806651,-0.001269,4.68E-4,5.0E-4,2.52,-16.02,-25.38,192.176,0.158,-1.0719,55.813835,37.50018,181.1761,NaN,0.0,12.0,,23 / 23,,4155,2021-05-01 19:21:17:224
0.006975,0.007728,9.748765,5.46E-4,-9.29E-4,9.806651,0.001786,-7.54E-4,0.002333,1.92,-16.32,-25.44,192.176,0.158,-1.0719,55.813835,37.50018,181.1761,NaN,0.0,12.0,,23 / 23,,4165,2021-05-01 19:21:17:234
0.006975,0.007728,9.748765,5.46E-4,-9.29E-4,9.806651,-4.7E-5,4.68E-4,0.002944,1.92,-16.32,-25.44,192.176,0.158,-1.0719,55.813835,37.50018,181.1761,NaN,0.0,12.0,,23 / 23,,4175,2021-05-01 19:21:17:244
-0.011128,0.001789,9.765808,1.7E-5,4.34E-4,9.806651,-6.58E-4,-7.54E-4,-7.21E-4,1.68,-16.14,-25.26,188.724,0.1534,-1.0676,55.813835,37.50018,181.1761,NaN,0.0,12.0,,23 / 23,,4185,2021-05-01 19:21:17:254
-0.014519,-0.002481,9.787383,1.7E-5,4.34E-4,9.806651,-4.7E-5,-0.001365,-7.21E-4,1.68,-16.14,-25.26,188.724,0.1534,-1.0676,55.813835,37.50018,181.1761,NaN,0.0,12.0,,23 / 23,,4196,2021-05-01 19:21:17:265
-0.014519,-0.002481,9.787383,1.7E-5,4.34E-4,9.806651,-4.7E-5,-0.001365,-7.21E-4,1.68,-16.14,-25.26,188.724,0.1534,-1.0676,55.813835,37.50018,181.1761,NaN,0.0,12.0,,23 / 23,,4205,2021-05-01 19:21:17:274
-0.006298,-0.008509,9.758467,-7.0E-4,0.001772,9.806651,-6.58E-4,-1.43E-4,5.0E-4,1.8,-15.54,-24.54,188.724,0.1534,-1.0676,55.813835,37.50018,181.1761,NaN,0.0,12.0,,23 / 23,,4215,2021-05-01 19:21:17:284
0.00577,0.009063,9.741582,-7.0E-4,7.77E-4,9.806648,0.001786,0.00169,0.004776,1.92,-16.38,-24.72,188.7303,0.163,-1.0732,55.813835,37.50018,181.1761,NaN,0.0,12.0,,23 / 23,,4226,2021-05-01 19:21:17:295
-0.001316,0.003645,9.744097,-3.8E-4,7.77E-4,9.806648,5.64E-4,0.00169,0.001722,1.92,-16.38,-24.72,188.7303,0.163,-1.0732,55.813835,37.50018,181.1761,NaN,0.0,12.0,,23 / 23,,4235,2021-05-01 19:21:17:304
-0.001316,0.003645,9.744097,-1.79E-4,7.56E-4,9.806649,-4.7E-5,-7.54E-4,-0.001943,2.28,-16.8,-24.78,188.7303,0.163,-1.0732,55.813835,37.50018,181.1761,NaN,0.0,12.0,,23 / 23,,4245,2021-05-01 19:21:17:314
-0.00447,-0.003186,9.760878,-1.79E-4,7.56E-4,9.806649,-0.001269,0.001079,-7.21E-4,2.76,-16.14,-24.84,188.7303,0.163,-1.0732,55.813835,37.50018,181.1761,NaN,0.0,12.0,,23 / 23,,4255,2021-05-01 19:21:17:324
-0.013787,7.01E-4,9.749095,1.64E-4,0.001322,9.806649,0.002396,0.001079,0.001722,2.76,-16.14,-24.84,188.7303,0.163,-1.0732,55.813835,37.50018,181.1761,NaN,0.0,12.0,,23 / 23,,4266,2021-05-01 19:21:17:335
0.005255,-0.00472,9.775062,1.64E-4,0.001322,9.806649,0.001175,0.002911,0.001111,2.16,-15.78,-24.66,188.7288,0.1708,-1.0734,55.813835,37.50018,181.1761,NaN,0.0,12.0,,23 / 23,,4275,2021-05-01 19:21:17:344
-0.012778,-0.010526,9.763385,-2.64E-4,4.46E-4,9.80665,-0.00188,-1.43E-4,5.0E-4,2.16,-15.78,-24.66,188.7288,0.1708,-1.0734,55.813835,37.50018,181.1761,NaN,0.0,12.0,,23 / 23,,4286,2021-05-01 19:21:17:355
-0.012778,-0.010526,9.763385,-2.64E-4,4.46E-4,9.80665,5.64E-4,0.002911,5.0E-4,1.56,-16.68,-24.66,188.7288,0.1708,-1.0734,55.813835,37.50018,181.1761,NaN,0.0,12.0,,23 / 23,,4295,2021-05-01 19:21:17:364
-0.007492,-0.006463,9.753735,-2.64E-4,4.46E-4,9.80665,5.64E-4,0.002911,5.0E-4,1.56,-16.68,-24.66,188.7288,0.1708,-1.0734,55.813835,37.50018,181.1761,NaN,0.0,12.0,,23 / 23,,4305,2021-05-01 19:21:17:374
0.00212,-0.00548,9.741592,-4.05E-4,3.25E-4,9.80665,-4.7E-5,0.002301,0.002944,1.8,-16.62,-24.78,188.7288,0.1708,-1.0734,55.813835,37.50018,181.1761,NaN,0.0,12.0,,23 / 23,,4315,2021-05-01 19:21:17:384
-0.005399,0.007763,9.74899,1.62E-4,-4.36E-4,9.806651,5.64E-4,-0.002586,0.003555,2.34,-15.9,-24.9,188.7325,0.1723,-1.0761,55.813835,37.50018,181.1761,NaN,0.0,12.0,,23 / 23,,4326,2021-05-01 19:21:17:395
-0.005399,0.007763,9.74899,1.62E-4,-4.36E-4,9.806651,-4.7E-5,-0.003197,0.003555,2.34,-15.9,-24.9,188.7325,0.1723,-1.0761,55.813835,37.50018,181.1761,NaN,0.0,12.0,,23 / 23,,4335,2021-05-01 19:21:17:404
-6.05E-4,-0.015129,9.779911,3.33E-4,-7.43E-4,9.806651,0.004229,-0.001365,-1.11E-4,2.04,-16.44,-25.62,188.7325,0.1723,-1.0761,55.813835,37.50018,181.1761,NaN,0.0,12.0,,23 / 23,,4345,2021-05-01 19:21:17:414
0.008073,0.01516,9.736825,3.33E-4,-7.43E-4,9.806651,-6.58E-4,-1.43E-4,5.0E-4,2.04,-16.44,-25.62,188.7325,0.1723,-1.0761,55.813835,37.50018,181.1761,NaN,0.0,12.0,,23 / 23,,4355,2021-05-01 19:21:17:424
-0.003106,0.005074,9.780058,4.3E-4,-9.67E-4,9.806651,-6.58E-4,-0.001365,0.003555,1.08,-16.62,-25.26,184.915,0.1683,-1.0735,55.813835,37.50018,181.1761,NaN,0.0,12.0,,23 / 23,,4366,2021-05-01 19:21:17:435
-0.003106,0.005074,9.780058,4.3E-4,-9.67E-4,9.806651,0.001786,4.68E-4,0.001722,1.08,-16.62,-25.26,184.915,0.1683,-1.0735,55.813835,37.50018,181.1761,NaN,0.0,12.0,,23 / 23,,4376,2021-05-01 19:21:17:445
7.4E-4,-0.002416,9.76319,4.3E-4,-9.67E-4,9.806651,0.001786,0.002301,0.001722,1.26,-16.2,-25.02,184.915,0.1683,-1.0735,55.813835,37.50018,181.1761,NaN,0.0,12.0,,23 / 23,,4386,2021-05-01 19:21:17:455
-0.001425,-0.002265,9.775205,3.07E-4,-9.4E-4,9.806651,0.001175,0.002911,-0.001332,1.26,-16.2,-25.02,184.915,0.1683,-1.0735,55.813835,37.50018,181.1761,NaN,0.0,12.0,,23 / 23,,4396,2021-05-01 19:21:17:465
-0.003796,0.003998,9.75611,-4.39E-4,3.51E-4,9.80665,0.002396,0.00169,0.003555,1.86,-16.08,-25.98,188.7909,0.163,-1.0712,55.813835,37.50018,181.1761,NaN,0.0,12.0,,23 / 23,,4406,2021-05-01 19:21:17:475
-0.003796,0.003998,9.75611,-4.39E-4,3.51E-4,9.80665,-0.001269,0.005355,0.003555,1.86,-16.08,-25.98,188.7909,0.163,-1.0712,55.813835,37.50018,181.1761,NaN,0.0,12.0,,23 / 23,,4415,2021-05-01 19:21:17:484
4.4E-4,-0.01853,9.779854,-0.001134,5.59E-4,9.80665,-6.58E-4,0.003522,-1.11E-4,1.92,-15.9,-25.44,188.7909,0.163,-1.0712,55.813835,37.50018,181.1761,NaN,0.0,12.0,,23 / 23,,4425,2021-05-01 19:21:17:494
0.013839,-0.008446,9.765302,-0.001134,5.59E-4,9.80665,-6.58E-4,0.003522,-1.11E-4,1.92,-15.9,-25.44,188.7909,0.163,-1.0712,55.813835,37.50018,181.1761,NaN,0.0,12.0,,23 / 23,,4435,2021-05-01 19:21:17:504
-0.008893,0.002363,9.756193,-0.001134,5.59E-4,9.80665,0.001786,0.002911,-1.11E-4,1.68,-16.26,-24.36,188.6735,0.1652,-1.0783,55.813835,37.50018,181.1761,NaN,0.0,12.0,,23 / 23,,4445,2021-05-01 19:21:17:514
-0.008893,0.002363,9.756193,-1.6E-4,8.6E-5,9.806651,-4.7E-5,-0.002586,0.003555,1.68,-16.26,-24.36,188.6735,0.1652,-1.0783,55.813835,37.50018,181.1761,NaN,0.0,12.0,,23 / 23,,4456,2021-05-01 19:21:17:525
-0.006542,0.011327,9.744253,-6.62E-4,7.3E-5,9.80665,0.001786,-7.54E-4,0.001111,1.5,-16.92,-24.24,188.6735,0.1652,-1.0783,55.813835,37.50018,181.1761,NaN,0.0,12.0,,23 / 23,,4465,2021-05-01 19:21:17:534
-0.006772,0.008919,9.751429,-0.002135,3.62E-4,9.80665,-0.001269,-0.004419,0.001111,1.62,-16.92,-24.84,188.6735,0.1652,-1.0783,55.813835,37.50018,181.1761,NaN,0.0,12.0,,23 / 23,,4475,2021-05-01 19:21:17:544
-0.00943,-0.007608,9.744198,-0.002135,3.62E-4,9.80665,-4.7E-5,-0.001976,0.001111,1.62,-16.92,-24.84,188.6735,0.1652,-1.0783,55.813835,37.50018,181.1761,NaN,0.0,12.0,,23 / 23,,4485,2021-05-01 19:21:17:554
-0.00943,-0.007608,9.744198,-3.3E-4,4.0E-5,9.806651,5.64E-4,-0.001976,-0.003165,1.56,-16.2,-25.5,188.7566,0.1654,-1.0909,55.813835,37.50018,181.1761,NaN,0.0,12.0,,23 / 23,,4495,2021-05-01 19:21:17:564
0.024559,0.006423,9.774828,-3.3E-4,4.0E-5,9.806651,5.64E-4,-0.001976,-0.003165,1.56,-16.2,-25.5,188.7566,0.1654,-1.0909,55.813835,37.50018,181.1761,NaN,0.0,12.0,,23 / 23,,4506,2021-05-01 19:21:17:575
-0.00256,0.003331,9.775309,-5.27E-4,-1.0E-6,9.80665,-4.7E-5,0.002911,-0.001332,1.44,-16.32,-25.14,188.7566,0.1654,-1.0909,55.813835,37.50018,181.1761,NaN,0.0,12.0,,23 / 23,,4515,2021-05-01 19:21:17:584
0.028241,-0.001419,9.777109,-4.87E-4,4.17E-4,9.806651,0.001786,0.00169,0.001111,2.04,-16.38,-25.02,188.7566,0.1654,-1.0909,55.813835,37.50018,181.1761,NaN,0.0,12.0,,23 / 23,,4525,2021-05-01 19:21:17:594
0.01918,0.009834,9.719868,-4.87E-4,4.17E-4,9.806651,5.64E-4,0.002301,0.001722,2.04,-16.38,-25.02,188.7566,0.1654,-1.0909,55.813835,37.50018,181.1761,NaN,0.0,12.0,,23 / 23,,4535,2021-05-01 19:21:17:604
0.01918,0.009834,9.719868,8.9E-5,6.56E-4,9.806649,-4.7E-5,0.00169,0.001111,2.28,-16.62,-24.96,188.2551,0.1674,-1.0941,55.813835,37.50018,181.1761,NaN,0.0,12.0,,23 / 23,,4546,2021-05-01 19:21:17:615
0.001412,0.014576,9.744178,8.9E-5,6.56E-4,9.806649,0.003007,0.00169,0.005387,2.28,-16.62,-24.96,188.2551,0.1674,-1.0941,55.813835,37.50018,181.1761,NaN,0.0,12.0,,23 / 23,,4556,2021-05-01 19:21:17:625
0.00677,0.0137,9.777599,6.99E-4,0.001338,9.806649,5.64E-4,-0.001365,0.001111,1.98,-16.32,-24.78,188.2551,0.1674,-1.0941,55.813835,37.50018,181.1761,NaN,0.0,12.0,,23 / 23,,4565,2021-05-01 19:21:17:634
0.007982,-0.010654,9.772651,3.12E-4,0.001708,9.806649,5.64E-4,0.00169,0.002333,1.86,-16.32,-24.72,188.2551,0.1674,-1.0941,55.813835,37.50018,181.1761,NaN,0.0,12.0,,23 / 23,,4575,2021-05-01 19:21:17:644
0.007982,-0.010654,9.772651,3.12E-4,0.001708,9.806649,-6.58E-4,-0.002586,5.0E-4,1.86,-16.32,-24.72,188.2551,0.1674,-1.0941,55.813835,37.50018,181.1761,NaN,0.0,12.0,,23 / 23,,4585,2021-05-01 19:21:17:654
0.00112,-0.00475,9.748865,3.9E-4,3.2E-5,9.806651,-6.58E-4,-0.001365,0.002333,1.68,-16.44,-24.96,188.758,0.1775,-1.0937,55.813835,37.50018,181.1761,NaN,0.0,12.0,,23 / 23,,4595,2021-05-01 19:21:17:664
0.00112,-0.00475,9.748865,3.9E-4,3.2E-5,9.806651,-6.58E-4,-0.001365,0.002333,1.68,-16.44,-24.96,188.758,0.1775,-1.0937,55.813835,37.50018,181.1761,NaN,0.0,12.0,,23 / 23,,4606,2021-05-01 19:21:17:675
6.56E-4,-0.023412,9.753553,9.88E-4,-3.33E-4,9.80665,0.001786,4.68E-4,0.004165,1.92,-16.26,-24.72,188.758,0.1775,-1.0937,55.813835,37.50018,181.1761,NaN,0.0,12.0,,23 / 23,,4615,2021-05-01 19:21:17:684
-0.011355,0.007477,9.763537,9.88E-4,-3.33E-4,9.80665,-6.58E-4,-0.001365,0.001111,1.92,-16.26,-24.72,188.758,0.1775,-1.0937,55.813835,37.50018,181.1761,NaN,0.0,12.0,,23 / 23,,4626,2021-05-01 19:21:17:695
-0.002464,0.006206,9.732235,9.98E-4,-2.01E-4,9.806651,0.001786,0.001079,5.0E-4,1.98,-16.08,-24.84,188.758,0.1775,-1.0937,55.813835,37.50018,181.1761,NaN,0.0,12.0,,23 / 23,,4635,2021-05-01 19:21:17:704
0.014818,-0.003749,9.755786,3.9E-5,-5.16E-4,9.806649,-0.001269,-0.003197,-1.11E-4,1.68,-16.14,-24.84,188.7491,0.1773,-1.0878,55.813835,37.50018,181.1761,NaN,0.0,12.0,,23 / 23,,4645,2021-05-01 19:21:17:714
0.014818,-0.003749,9.755786,3.9E-5,-5.16E-4,9.806649,-0.003101,-0.001365,0.001722,1.68,-16.14,-24.84,188.7491,0.1773,-1.0878,55.813835,37.50018,181.1761,NaN,0.0,12.0,,23 / 23,,4655,2021-05-01 19:21:17:724
0.018452,0.00293,9.765339,4.5E-5,-3.22E-4,9.80665,-0.00188,0.001079,5.0E-4,1.68,-16.56,-24.84,188.7491,0.1773,-1.0878,55.813835,37.50018,181.1761,NaN,0.0,12.0,,23 / 23,,4666,2021-05-01 19:21:17:735
0.009891,0.009062,9.77511,2.71E-4,-8.21E-4,9.806649,-4.7E-5,0.001079,0.002333,1.26,-16.8,-24.54,188.7491,0.1773,-1.0878,55.813835,37.50018,181.1761,NaN,0.0,12.0,,23 / 23,,4675,2021-05-01 19:21:17:744
0.011348,0.018527,9.77514,2.71E-4,-8.21E-4,9.806649,-4.7E-5,0.001079,0.002333,1.26,-16.8,-24.54,188.7491,0.1773,-1.0878,55.813835,37.50018,181.1761,NaN,0.0,12.0,,23 / 23,,4685,2021-05-01 19:21:17:754
-0.014666,0.011237,9.761194,6.0E-5,-2.51E-4,9.80665,5.64E-4,0.002911,-0.002554,1.74,-16.38,-24.72,188.7467,0.1728,-1.0855,55.813835,37.50018,181.1761,NaN,0.0,12.0,,24 / 24,,4695,2021-05-01 19:21:17:764
-0.014666,0.011237,9.761194,6.0E-5,-2.51E-4,9.80665,0.001786,-0.002586,0.002333,1.74,-16.38,-24.72,188.7467,0.1728,-1.0855,55.813835,37.50018,181.1761,NaN,0.0,12.0,,24 / 24,,4705,2021-05-01 19:21:17:774
0.002229,-0.017943,9.739162,1.22E-4,2.18E-4,9.806651,-0.00249,-0.001976,-1.11E-4,1.92,-15.84,-25.08,188.7467,0.1728,-1.0855,55.813835,37.50018,181.1761,NaN,0.0,12.0,,24 / 24,,4715,2021-05-01 19:21:17:784
-0.003375,0.007107,9.751386,-3.97E-4,5.59E-4,9.80665,-0.00188,0.001079,0.001722,1.62,-16.38,-25.92,188.7467,0.1728,-1.0855,55.813835,37.50018,181.1761,NaN,0.0,12.0,,24 / 24,,4725,2021-05-01 19:21:17:794
0.014381,0.01411,9.736733,-3.97E-4,5.59E-4,9.80665,-0.00188,-0.001365,0.002333,1.62,-16.38,-25.92,188.7467,0.1728,-1.0855,55.813835,37.50018,181.1761,NaN,0.0,12.0,,24 / 24,,4736,2021-05-01 19:21:17:805
-0.002654,0.026346,9.761064,-5.92E-4,2.41E-4,9.80665,-4.7E-5,0.003522,-0.001332,1.2,-16.08,-25.44,185.2409,0.1756,-1.0883,55.813835,37.50018,181.1761,NaN,0.0,12.0,,24 / 24,,4745,2021-05-01 19:21:17:814
-0.002654,0.026346,9.761064,-5.92E-4,2.41E-4,9.80665,-4.7E-5,0.003522,-0.001332,1.2,-16.08,-25.44,185.2409,0.1756,-1.0883,55.813835,37.50018,181.1761,NaN,0.0,12.0,,24 / 24,,4755,2021-05-01 19:21:17:824
0.01049,2.77E-4,9.751097,-6.51E-4,9.11E-4,9.806649,-6.58E-4,-1.43E-4,0.002333,1.56,-15.78,-24.72,185.2409,0.1756,-1.0883,55.813835,37.50018,181.1761,NaN,0.0,12.0,,24 / 24,,4765,2021-05-01 19:21:17:834
0.019905,-0.007887,9.779619,-4.57E-4,0.001422,9.806649,0.003007,-1.43E-4,0.002944,1.8,-15.9,-24.06,185.2409,0.1756,-1.0883,55.813835,37.50018,181.1761,NaN,0.0,12.0,,24 / 24,,4776,2021-05-01 19:21:17:845
-0.004304,0.001714,9.725038,-4.57E-4,0.001422,9.806649,-4.7E-5,0.001079,0.002333,1.8,-15.9,-24.06,185.2409,0.1756,-1.0883,55.813835,37.50018,181.1761,NaN,0.0,12.0,,24 / 24,,4785,2021-05-01 19:21:17:854
-0.004304,0.001714,9.725038,6.49E-4,4.34E-4,9.806652,0.001175,0.002911,5.0E-4,1.8,-15.66,-24.54,188.7535,0.1837,-1.0917,55.813835,37.50018,181.1761,NaN,0.0,12.0,,24 / 24,,4796,2021-05-01 19:21:17:865
-9.67E-4,0.017002,9.741851,6.49E-4,4.34E-4,9.806652,0.003007,0.003522,0.001111,1.8,-15.66,-24.54,188.7535,0.1837,-1.0917,55.813835,37.50018,181.1761,NaN,0.0,12.0,,24 / 24,,4806,2021-05-01 19:21:17:875
-0.015861,0.011957,9.763645,5.71E-4,8.9E-4,9.806651,0.001175,0.005355,-0.001943,1.62,-16.02,-24.48,188.7535,0.1837,-1.0917,55.813835,37.50018,181.1761,NaN,0.0,12.0,,24 / 24,,4815,2021-05-01 19:21:17:884
-0.012055,-0.012916,9.782583,2.34E-4,8.41E-4,9.806651,0.003007,4.68E-4,0.001111,2.1,-16.26,-24.96,188.7535,0.1837,-1.0917,55.813835,37.50018,181.1761,NaN,0.0,12.0,,24 / 24,,4826,2021-05-01 19:21:17:895
-0.012055,-0.012916,9.782583,2.34E-4,8.41E-4,9.806651,5.64E-4,4.68E-4,-1.11E-4,2.1,-16.26,-24.96,188.7535,0.1837,-1.0917,55.813835,37.50018,181.1761,NaN,0.0,12.0,,24 / 24,,4835,2021-05-01 19:21:17:904
0.001698,-4.51E-4,9.768037,-4.2E-5,-1.01E-4,9.80665,5.64E-4,-0.001976,-0.001332,1.74,-17.04,-25.62,188.3074,0.1887,-1.0911,55.813835,37.50018,181.1761,NaN,0.0,12.0,,24 / 24,,4845,2021-05-01 19:21:17:914
0.001698,-4.51E-4,9.768037,-4.2E-5,-1.01E-4,9.80665,5.64E-4,-0.001976,-0.001332,1.74,-17.04,-25.62,188.3074,0.1887,-1.0911,55.813835,37.50018,181.1761,NaN,0.0,12.0,,24 / 24,,4855,2021-05-01 19:21:17:924
-0.001454,-0.005713,9.775248,-9.3E-5,-3.33E-4,9.80665,-0.001269,0.00169,5.0E-4,1.86,-16.86,-25.26,188.3074,0.1887,-1.0911,55.813835,37.50018,181.1761,NaN,0.0,12.0,,24 / 24,,4865,2021-05-01 19:21:17:934
-0.003136,0.001856,9.756166,-8.2E-5,-3.07E-4,9.80665,-0.003712,-0.002586,-7.21E-4,2.88,-16.56,-24.36,188.3074,0.1887,-1.0911,55.813835,37.50018,181.1761,NaN,0.0,12.0,,24 / 24,,4875,2021-05-01 19:21:17:944
0.013835,0.00179,9.758249,-8.2E-5,-3.07E-4,9.80665,-0.00188,-1.43E-4,0.001111,2.88,-16.56,-24.36,188.3074,0.1887,-1.0911,55.813835,37.50018,181.1761,NaN,0.0,12.0,,24 / 24,,4885,2021-05-01 19:21:17:954
-0.018167,-0.003249,9.768386,-7.3E-5,1.03E-4,9.806651,0.001786,-0.003808,0.001722,2.82,-16.26,-24.12,192.1332,0.1869,-1.0913,55.813835,37.50018,181.1761,NaN,0.0,12.0,,24 / 24,,4895,2021-05-01 19:21:17:964
-0.018167,-0.003249,9.768386,-7.3E-5,1.03E-4,9.806651,0.002396,0.003522,5.0E-4,2.82,-16.26,-24.12,192.1332,0.1869,-1.0913,55.813835,37.50018,181.1761,NaN,0.0,12.0,,24 / 24,,4905,2021-05-01 19:21:17:974
-0.007327,0.003263,9.770621,4.7E-4,-5.2E-4,9.806651,-4.7E-5,-7.54E-4,-0.001332,2.22,-15.72,-24.6,192.1332,0.1869,-1.0913,55.813835,37.50018,181.1761,NaN,0.0,12.0,,24 / 24,,4916,2021-05-01 19:21:17:985
0.011268,-7.09E-4,9.763074,7.66E-4,-0.001268,9.806651,-4.7E-5,0.002911,-1.11E-4,2.04,-16.02,-24.24,192.1332,0.1869,-1.0913,55.813835,37.50018,181.1761,NaN,0.0,12.0,,24 / 24,,4925,2021-05-01 19:21:17:994
0.011268,-7.09E-4,9.763074,7.66E-4,-0.001268,9.806651,0.001175,0.002911,0.001111,2.04,-16.02,-24.24,192.1332,0.1869,-1.0913,55.813835,37.50018,181.1761,NaN,0.0,12.0,,24 / 24,,4936,2021-05-01 19:21:18:005
-0.005864,-0.001973,9.77774,0.001581,-8.56E-4,9.80665,5.64E-4,0.001079,-7.21E-4,2.1,-16.02,-24.36,188.6804,0.1806,-1.0854,55.813835,37.50018,181.1761,NaN,0.0,12.0,,24 / 24,,4945,2021-05-01 19:21:18:014
0.015384,0.005368,9.734274,0.001581,-8.56E-4,9.80665,5.64E-4,0.001079,-7.21E-4,2.1,-16.02,-24.36,188.6804,0.1806,-1.0854,55.813835,37.50018,181.1761,NaN,0.0,12.0,,24 / 24,,4956,2021-05-01 19:21:18:025
0.006958,-0.00554,9.760704,0.002744,-0.001059,9.806651,-4.7E-5,4.68E-4,-0.004387,1.86,-15.6,-24.96,188.6804,0.1806,-1.0854,55.813835,37.50018,181.1761,NaN,0.0,12.0,,24 / 24,,4966,2021-05-01 19:21:18:035
0.006958,-0.00554,9.760704,0.002744,-0.001059,9.806651,-0.001269,0.001079,0.002333,1.86,-15.6,-24.96,188.6804,0.1806,-1.0854,55.813835,37.50018,181.1761,NaN,0.0,12.0,,24 / 24,,4976,2021-05-01 19:21:18:045
-0.007919,-0.008121,9.763356,0.001749,-3.86E-4,9.80665,0.001175,-7.54E-4,-0.003165,2.34,-15.72,-24.9,188.7201,0.1769,-1.0686,55.813835,37.50018,181.1761,NaN,0.0,12.0,,24 / 24,,4986,2021-05-01 19:21:18:055
-0.00245,0.001431,9.744098,0.001749,-3.86E-4,9.80665,5.64E-4,-0.002586,0.002333,2.34,-15.72,-24.9,188.7201,0.1769,-1.0686,55.813835,37.50018,181.1761,NaN,0.0,12.0,,24 / 24,,4995,2021-05-01 19:21:18:064
-0.00245,0.001431,9.744098,0.002382,-4.89E-4,9.80665,5.64E-4,0.00169,-0.003165,2.58,-16.26,-25.26,188.7201,0.1769,-1.0686,55.813835,37.50018,181.1761,NaN,0.0,12.0,,24 / 24,,5007,2021-05-01 19:21:18:076
-6.99E-4,-0.006187,9.770364,0.002382,-4.89E-4,9.80665,0.001786,0.002301,-0.001943,2.58,-16.26,-25.26,188.7201,0.1769,-1.0686,55.813835,37.50018,181.1761,NaN,0.0,12.0,,24 / 24,,5015,2021-05-01 19:21:18:084
-0.013047,-0.004204,9.741861,-1.46E-4,8.49E-4,9.80665,-4.7E-5,-0.003197,-7.21E-4,1.8,-16.62,-25.02,188.1965,0.1762,-1.0544,55.813835,37.50018,181.1761,NaN,0.0,12.0,,24 / 24,,5025,2021-05-01 19:21:18:094
-0.013047,-0.004204,9.741861,-1.46E-4,8.49E-4,9.80665,0.001175,0.003522,-0.001332,1.8,-16.62,-25.02,188.1965,0.1762,-1.0544,55.813835,37.50018,181.1761,NaN,0.0,12.0,,24 / 24,,5036,2021-05-01 19:21:18:105
0.018133,-0.011222,9.779535,-4.87E-4,0.001006,9.80665,0.001175,0.004744,-7.21E-4,1.32,-15.78,-24.6,188.1965,0.1762,-1.0544,55.813835,37.50018,181.1761,NaN,0.0,12.0,,24 / 24,,5046,2021-05-01 19:21:18:115
-0.003726,0.006477,9.76805,-4.87E-4,0.001006,9.80665,0.001175,0.004744,-7.21E-4,1.32,-15.78,-24.6,188.1965,0.1762,-1.0544,55.813835,37.50018,181.1761,NaN,0.0,12.0,,24 / 24,,5056,2021-05-01 19:21:18:125
0.00697,-0.002298,9.760627,6.0E-6,1.94E-4,9.80665,5.64E-4,0.002301,0.003555,1.92,-15.84,-24.66,188.703,0.1816,-1.0581,55.813835,37.50018,181.1761,NaN,0.0,12.0,,24 / 24,,5065,2021-05-01 19:21:18:134
0.00697,-0.002298,9.760627,6.0E-6,1.94E-4,9.80665,0.001786,0.003522,0.001111,1.92,-15.84,-24.66,188.703,0.1816,-1.0581,55.813835,37.50018,181.1761,NaN,0.0,12.0,,24 / 24,,5075,2021-05-01 19:21:18:144
-0.013084,0.007094,9.744288,-6.8E-4,0.001209,9.80665,0.001175,-1.43E-4,0.003555,1.98,-16.08,-25.08,188.703,0.1816,-1.0581,55.813835,37.50018,181.1761,NaN,0.0,12.0,,24 / 24,,5086,2021-05-01 19:21:18:155
-0.013084,0.007094,9.744288,-6.8E-4,0.001209,9.80665,-4.7E-5,0.002301,-1.11E-4,1.98,-16.08,-25.08,188.703,0.1816,-1.0581,55.813835,37.50018,181.1761,NaN,0.0,12.0,,24 / 24,,5095,2021-05-01 19:21:18:164
0.002734,-0.002655,9.763107,-6.8E-4,0.001209,9.80665,-4.7E-5,0.002301,-1.11E-4,1.98,-16.08,-25.08,188.703,0.1816,-1.0581,55.813835,37.50018,181.1761,NaN,0.0,12.0,,24 / 24,,5105,2021-05-01 19:21:18:174
-0.018589,-0.002849,9.744349,-8.74E-4,7.5E-4,9.80665,-0.001269,-0.001976,0.001111,1.92,-15.78,-25.32,188.7091,0.188,-1.0631,55.813835,37.50018,181.1761,NaN,0.0,12.0,,24 / 24,,5116,2021-05-01 19:21:18:185
-0.002046,-0.007867,9.76318,-8.49E-4,0.00106,9.80665,5.64E-4,0.00169,0.002944,2.4,-16.02,-24.72,188.7091,0.188,-1.0631,55.813835,37.50018,181.1761,NaN,0.0,12.0,,24 / 24,,5125,2021-05-01 19:21:18:194
-0.002046,-0.007867,9.76318,-8.49E-4,0.00106,9.80665,0.002396,4.68E-4,-0.001332,2.4,-16.02,-24.72,188.7091,0.188,-1.0631,55.813835,37.50018,181.1761,NaN,0.0,12.0,,24 / 24,,5136,2021-05-01 19:21:18:205
0.002644,0.008409,9.751221,4.9E-5,1.88E-4,9.80665,-4.7E-5,-7.54E-4,0.002333,2.46,-15.96,-25.08,188.7167,0.1933,-1.0689,55.813835,37.50018,181.1761,NaN,0.0,12.0,,24 / 24,,5146,2021-05-01 19:21:18:215
-0.009731,0.002171,9.734664,4.9E-5,1.88E-4,9.80665,0.001175,-1.43E-4,5.0E-4,2.46,-15.96,-25.08,188.7167,0.1933,-1.0689,55.813835,37.50018,181.1761,NaN,0.0,12.0,,24 / 24,,5155,2021-05-01 19:21:18:224
0.001486,0.010084,9.751275,-2.09E-4,-0.001675,9.80665,-6.58E-4,0.001079,-0.001943,2.28,-16.2,-25.56,188.7167,0.1933,-1.0689,55.813835,37.50018,181.1761,NaN,0.0,12.0,,24 / 24,,5166,2021-05-01 19:21:18:235
0.00155,-0.009418,9.784679,-2.09E-4,-0.001675,9.80665,-0.001269,-1.43E-4,5.0E-4,2.28,-16.2,-25.56,188.7167,0.1933,-1.0689,55.813835,37.50018,181.1761,NaN,0.0,12.0,,24 / 24,,5176,2021-05-01 19:21:18:245
0.00155,-0.009418,9.784679,-4.05E-4,-0.001141,9.80665,0.002396,-1.43E-4,0.003555,2.22,-16.32,-25.2,188.7186,0.1835,-1.0686,55.813835,37.50018,181.1761,NaN,0.0,12.0,,24 / 24,,5185,2021-05-01 19:21:18:254
-0.010486,-0.020294,9.7513,-4.05E-4,-0.001141,9.80665,0.001786,0.00169,0.002944,2.22,-16.32,-25.2,188.7186,0.1835,-1.0686,55.813835,37.50018,181.1761,NaN,0.0,12.0,,24 / 24,,5196,2021-05-01 19:21:18:265
-0.003509,-0.00933,9.775188,-8.78E-4,-0.001229,9.806651,0.001786,0.00169,0.002944,2.34,-16.08,-24.96,188.7186,0.1835,-1.0686,55.813835,37.50018,181.1761,NaN,0.0,12.0,,24 / 24,,5205,2021-05-01 19:21:18:274
-9.52E-4,-0.007269,9.765575,-8.78E-4,-0.001229,9.806651,-6.58E-4,0.00169,-0.001332,2.34,-16.08,-24.96,188.7186,0.1835,-1.0686,55.813835,37.50018,181.1761,NaN,0.0,12.0,,24 / 24,,5215,2021-05-01 19:21:18:284
-9.52E-4,-0.007269,9.765575,-4.0E-5,-8.8E-4,9.806649,-6.58E-4,-0.001976,0.001722,2.28,-16.32,-24.78,188.7265,0.1756,-1.0726,55.813835,37.50018,181.1761,NaN,0.0,12.0,,24 / 24,,5226,2021-05-01 19:21:18:295
-0.001981,-0.01785,9.76075,-4.0E-5,-8.8E-4,9.806649,-0.00188,-0.003197,5.0E-4,2.28,-16.32,-24.78,188.7265,0.1756,-1.0726,55.813835,37.50018,181.1761,NaN,0.0,12.0,,24 / 24,,5236,2021-05-01 19:21:18:305
-0.009612,-0.002086,9.741823,4.59E-4,-0.001018,9.806649,-0.001269,-0.005641,0.001111,2.04,-16.2,-24.6,188.7265,0.1756,-1.0726,55.813835,37.50018,181.1761,NaN,0.0,12.0,,24 / 24,,5246,2021-05-01 19:21:18:315
-0.012718,0.00805,9.751517,4.59E-4,-0.001018,9.806649,5.64E-4,-0.001365,5.0E-4,2.04,-16.2,-24.6,188.7265,0.1756,-1.0726,55.813835,37.50018,181.1761,NaN,0.0,12.0,,24 / 24,,5256,2021-05-01 19:21:18:325
-0.001089,-0.00982,9.775138,-6.0E-6,5.94E-4,9.80665,-6.58E-4,-0.002586,0.002333,2.04,-16.26,-24.66,188.7223,0.1701,-1.069,55.813835,37.50018,181.1761,NaN,0.0,12.0,,24 / 24,,5266,2021-05-01 19:21:18:335
-0.001089,-0.00982,9.775138,-6.0E-6,5.94E-4,9.80665,-4.7E-5,-0.004419,5.0E-4,2.04,-16.26,-24.66,188.7223,0.1701,-1.069,55.813835,37.50018,181.1761,NaN,0.0,12.0,,24 / 24,,5276,2021-05-01 19:21:18:345
-0.010597,-0.008354,9.772923,-4.87E-4,7.38E-4,9.80665,0.001175,0.003522,-0.001332,2.04,-16.74,-24.36,188.7223,0.1701,-1.069,55.813835,37.50018,181.1761,NaN,0.0,12.0,,24 / 24,,5286,2021-05-01 19:21:18:355
-0.001624,-0.012131,9.765555,-4.87E-4,7.38E-4,9.80665,0.001175,0.003522,-1.11E-4,2.04,-16.74,-24.36,188.7223,0.1701,-1.069,55.813835,37.50018,181.1761,NaN,0.0,12.0,,24 / 24,,5296,2021-05-01 19:21:18:365
-0.001624,-0.012131,9.765555,-7.55E-4,7.92E-4,9.80665,0.001175,0.003522,-1.11E-4,2.1,-16.62,-24.48,188.1628,0.174,-1.0725,55.813835,37.50018,181.1761,NaN,0.0,12.0,,24 / 24,,5305,2021-05-01 19:21:18:374
-0.011628,0.017751,9.739577,-7.55E-4,7.92E-4,9.80665,0.001786,0.003522,0.002944,2.1,-16.62,-24.48,188.1628,0.174,-1.0725,55.813835,37.50018,181.1761,NaN,0.0,12.0,,24 / 24,,5316,2021-05-01 19:21:18:385
0.010402,-0.01444,9.741391,-7.55E-4,7.92E-4,9.80665,0.001786,0.00169,0.001722,2.1,-16.62,-24.48,188.1628,0.174,-1.0725,55.813835,37.50018,181.1761,NaN,0.0,12.0,,24 / 24,,5325,2021-05-01 19:21:18:394
-0.007909,0.009962,9.739466,-0.0021,0.002484,9.806649,-0.00188,0.001079,0.001111,2.46,-16.38,-24.9,188.1628,0.174,-1.0725,55.813835,37.50018,181.1761,NaN,0.0,12.0,,24 / 24,,5335,2021-05-01 19:21:18:404
-0.00451,0.006746,9.749046,-0.003175,0.003227,9.806649,5.64E-4,0.002301,0.001722,2.22,-16.2,-24.54,188.7549,0.19,-1.0936,55.813835,37.50018,181.1761,NaN,0.0,12.0,,24 / 24,,5346,2021-05-01 19:21:18:415
-0.00451,0.006746,9.749046,-0.003175,0.003227,9.806649,5.64E-4,-0.002586,0.001111,2.22,-16.2,-24.54,188.7549,0.19,-1.0936,55.813835,37.50018,181.1761,NaN,0.0,12.0,,24 / 24,,5356,2021-05-01 19:21:18:425
0.026889,0.006774,9.74368,-4.64E-4,-1.0E-4,9.80665,-0.001269,0.001079,5.0E-4,1.8,-16.2,-24.42,188.7549,0.19,-1.0936,55.813835,37.50018,181.1761,NaN,0.0,12.0,,24 / 24,,5366,2021-05-01 19:21:18:435
-0.00785,-0.002518,9.775392,-4.64E-4,-1.0E-4,9.80665,-0.001269,-0.002586,-7.21E-4,2.1,-16.44,-24.78,188.7549,0.19,-1.0936,55.813835,37.50018,181.1761,NaN,0.0,12.0,,24 / 24,,5375,2021-05-01 19:21:18:444
0.001771,9.5E-4,9.744105,-9.34E-4,5.35E-4,9.806649,-6.58E-4,0.001079,5.0E-4,2.1,-16.44,-24.78,188.7549,0.19,-1.0936,55.813835,37.50018,181.1761,NaN,0.0,12.0,,24 / 24,,5386,2021-05-01 19:21:18:455
0.001771,9.5E-4,9.744105,-9.34E-4,5.35E-4,9.806649,-4.7E-5,-1.43E-4,-7.21E-4,1.98,-16.8,-24.6,188.2576,0.1923,-1.0994,55.813835,37.50018,181.1761,NaN,0.0,12.0,,24 / 24,,5395,2021-05-01 19:21:18:464
0.006269,-0.00731,9.736808,-9.34E-4,5.35E-4,9.806649,-4.7E-5,-1.43E-4,-7.21E-4,1.98,-16.8,-24.6,188.2576,0.1923,-1.0994,55.813835,37.50018,181.1761,NaN,0.0,12.0,,24 / 24,,5405,2021-05-01 19:21:18:474
0.015062,0.001035,9.753459,2.53E-4,6.16E-4,9.806649,5.64E-4,-0.002586,-0.002554,1.92,-17.16,-25.08,188.2576,0.1923,-1.0994,55.813835,37.50018,181.1761,NaN,0.0,12.0,,24 / 24,,5415,2021-05-01 19:21:18:484
0.006246,-0.012267,9.772699,-4.21E-4,0.00131,9.80665,0.001786,0.00169,5.0E-4,1.32,-16.86,-25.5,188.2576,0.1923,-1.0994,55.813835,37.50018,181.1761,NaN,0.0,12.0,,24 / 24,,5426,2021-05-01 19:21:18:495
0.006246,-0.012267,9.772699,-4.21E-4,0.00131,9.80665,0.001175,0.004744,0.001722,1.32,-16.86,-25.5,188.2576,0.1923,-1.0994,55.813835,37.50018,181.1761,NaN,0.0,12.0,,24 / 24,,5435,2021-05-01 19:21:18:504
0.007788,-3.62E-4,9.763164,-2.23E-4,-2.15E-4,9.806649,0.001786,0.005355,0.003555,1.44,-16.5,-24.72,185.2601,0.1995,-1.103,55.813835,37.50018,181.1761,NaN,0.0,12.0,,24 / 24,,5446,2021-05-01 19:21:18:515
-8.91E-4,-4.57E-4,9.782498,-2.23E-4,-2.15E-4,9.806649,0.001175,0.003522,0.001111,1.44,-16.5,-24.72,185.2601,0.1995,-1.103,55.813835,37.50018,181.1761,NaN,0.0,12.0,,24 / 24,,5455,2021-05-01 19:21:18:524
-8.91E-4,-4.57E-4,9.782498,0.001109,-8.6E-4,9.806649,-6.58E-4,4.68E-4,-0.003165,2.16,-16.08,-24.3,185.2601,0.1995,-1.103,55.813835,37.50018,181.1761,NaN,0.0,12.0,,24 / 24,,5466,2021-05-01 19:21:18:535
0.015662,-0.023519,9.753328,0.001109,-8.6E-4,9.806649,-6.58E-4,4.68E-4,-0.003165,2.16,-16.08,-24.3,185.2601,0.1995,-1.103,55.813835,37.50018,181.1761,NaN,0.0,12.0,,24 / 24,,5475,2021-05-01 19:21:18:544
0.026068,-0.012413,9.741217,0.001678,-0.001456,9.80665,0.001175,0.002911,0.001111,1.98,-16.08,-24.9,185.2601,0.1995,-1.103,55.813835,37.50018,181.1761,NaN,0.0,12.0,,24 / 24,,5485,2021-05-01 19:21:18:554
0.018599,0.009897,9.746264,0.001678,-0.001456,9.80665,-4.7E-5,0.00169,0.001722,1.74,-15.78,-25.38,188.7527,0.1919,-1.0924,55.813835,37.50018,181.1761,NaN,0.0,12.0,,24 / 24,,5496,2021-05-01 19:21:18:565
-0.011789,-0.004485,9.722767,0.001441,-8.3E-4,9.806652,5.64E-4,-1.43E-4,0.002944,1.74,-15.78,-25.38,188.7527,0.1919,-1.0924,55.813835,37.50018,181.1761,NaN,0.0,12.0,,24 / 24,,5505,2021-05-01 19:21:18:574
-0.011789,-0.004485,9.722767,0.001441,-8.3E-4,9.806652,5.64E-4,0.001079,0.002333,2.1,-16.14,-25.08,188.7527,0.1919,-1.0924,55.813835,37.50018,181.1761,NaN,0.0,12.0,,24 / 24,,5516,2021-05-01 19:21:18:585
0.010339,-0.008045,9.767839,0.001441,-8.3E-4,9.806652,5.64E-4,0.001079,0.002333,2.1,-16.14,-25.08,188.7527,0.1919,-1.0924,55.813835,37.50018,181.1761,NaN,0.0,12.0,,24 / 24,,5525,2021-05-01 19:21:18:594
-0.007649,-0.017462,9.789663,0.001871,-0.001986,9.806651,-6.58E-4,-7.54E-4,0.001722,1.98,-16.14,-24.6,188.7527,0.1919,-1.0924,55.813835,37.50018,181.1761,NaN,0.0,12.0,,24 / 24,,5535,2021-05-01 19:21:18:604
0.005256,-0.007198,9.74878,-9.0E-5,-3.4E-5,9.806649,0.002396,-7.54E-4,-1.11E-4,1.62,-16.08,-24.54,188.7359,0.1821,-1.0798,55.813835,37.50018,181.1761,NaN,0.0,12.0,,24 / 24,,5546,2021-05-01 19:21:18:615
0.005256,-0.007198,9.74878,-9.0E-5,-3.4E-5,9.806649,5.64E-4,-1.43E-4,-1.11E-4,1.62,-16.08,-24.54,188.7359,0.1821,-1.0798,55.813835,37.50018,181.1761,NaN,0.0,12.0,,24 / 24,,5555,2021-05-01 19:21:18:624
0.020769,-0.020049,9.762745,-2.13E-4,6.7E-5,9.806649,0.001786,0.001079,0.001722,1.86,-16.44,-25.2,188.7359,0.1821,-1.0798,55.813835,37.50018,181.1761,NaN,0.0,12.0,,24 / 24,,5565,2021-05-01 19:21:18:634
0.020769,0.002398,9.753374,-2.13E-4,6.7E-5,9.806649,-4.7E-5,0.00169,0.001722,1.86,-16.44,-25.2,188.7359,0.1821,-1.0798,55.813835,37.50018,181.1761,NaN,0.0,12.0,,24 / 24,,5575,2021-05-01 19:21:18:644
0.016769,0.002398,9.753374,-2.13E-4,6.7E-5,9.806649,-0.00249,-7.54E-4,-0.001332,1.86,-16.44,-25.2,188.7359,0.1821,-1.0798,55.813835,37.50018,181.1761,NaN,0.0,12.0,,24 / 24,,5585,2021-05-01 19:21:18:654
0.010339,-0.011108,9.762994,-8.0E-5,2.44E-4,9.806652,5.64E-4,-1.43E-4,0.001722,1.98,-16.56,-24.78,188.2335,0.1823,-1.0811,55.813835,37.50018,181.1761,NaN,0.0,12.0,,24 / 24,,5595,2021-05-01 19:21:18:664
-0.010896,-0.008052,9.768188,7.25E-4,3.05E-4,9.806651,0.001175,-7.54E-4,0.001111,2.04,-16.26,-24.24,188.2335,0.1823,-1.0811,55.813835,37.50018,181.1761,NaN,0.0,12.0,,24 / 24,,5605,2021-05-01 19:21:18:674
0.0035,-0.024626,9.760643,7.25E-4,3.05E-4,9.806651,0.002396,-0.001976,-1.11E-4,2.04,-16.26,-24.24,188.2335,0.1823,-1.0811,55.813835,37.50018,181.1761,NaN,0.0,12.0,,24 / 24,,5615,2021-05-01 19:21:18:684
-0.007944,0.00335,9.744242,4.8E-4,-2.89E-4,9.806652,-0.001269,-0.001365,5.0E-4,1.8,-16.44,-24.36,188.6676,0.1847,-1.0772,55.813835,37.50018,181.1761,NaN,0.0,12.0,,24 / 24,,5625,2021-05-01 19:21:18:694
-0.007944,0.00335,9.744242,4.8E-4,-2.89E-4,9.806652,-4.7E-5,-0.002586,5.0E-4,1.8,-16.44,-24.36,188.6676,0.1847,-1.0772,55.813835,37.50018,181.1761,NaN,0.0,12.0,,24 / 24,,5635,2021-05-01 19:21:18:704
-0.001999,0.009687,9.751357,4.8E-4,-2.89E-4,9.806652,-4.7E-5,-0.002586,5.0E-4,1.8,-16.44,-24.36,188.6676,0.1847,-1.0772,55.813835,37.50018,181.1761,NaN,0.0,12.0,,24 / 24,,5645,2021-05-01 19:21:18:714
0.01122,-0.004585,9.796531,5.89E-4,-7.09E-4,9.806652,-0.00188,-0.001976,-0.001332,1.98,-16.44,-25.14,188.6676,0.1847,-1.0772,55.813835,37.50018,181.1761,NaN,0.0,12.0,,24 / 24,,5656,2021-05-01 19:21:18:725
0.01122,-0.004585,9.796531,5.89E-4,-7.09E-4,9.806652,0.001786,4.68E-4,0.002333,1.98,-16.44,-25.14,188.6676,0.1847,-1.0772,55.813835,37.50018,181.1761,NaN,0.0,12.0,,24 / 24,,5665,2021-05-01 19:21:18:734
0.006657,0.006533,9.75835,-1.73E-4,2.68E-4,9.806652,5.64E-4,0.001079,-0.001943,2.04,-16.2,-25.08,188.726,0.1811,-1.0732,55.813835,37.50018,181.1761,NaN,0.0,12.0,,24 / 24,,5676,2021-05-01 19:21:18:745
0.004823,-0.00778,9.777455,4.04E-4,-3.62E-4,9.806652,0.001175,0.003522,5.0E-4,2.22,-16.26,-24.9,188.726,0.1811,-1.0732,55.813835,37.50018,181.1761,NaN,0.0,12.0,,24 / 24,,5686,2021-05-01 19:21:18:755
-0.003145,0.003124,9.78006,4.04E-4,-3.62E-4,9.806652,-4.7E-5,0.003522,-7.21E-4,2.22,-16.26,-24.9,188.726,0.1811,-1.0732,55.813835,37.50018,181.1761,NaN,0.0,12.0,,25 / 25,,5695,2021-05-01 19:21:18:764
0.012346,-0.010365,9.77727,0.001586,-0.001235,9.806651,0.001175,-0.003197,-7.21E-4,2.4,-16.44,-25.14,188.7118,0.1754,-1.0629,55.813835,37.50018,181.1761,NaN,0.0,12.0,,25 / 25,,5705,2021-05-01 19:21:18:774
0.012346,-0.010365,9.77727,0.001586,-0.001235,9.806651,0.001175,-0.003197,-7.21E-4,2.4,-16.44,-25.14,188.7118,0.1754,-1.0629,55.813835,37.50018,181.1761,NaN,0.0,12.0,,25 / 25,,5715,2021-05-01 19:21:18:784
-0.015944,-0.003565,9.763448,0.001586,-0.001235,9.806651,-6.58E-4,-0.002586,0.001111,2.4,-16.44,-25.14,188.7118,0.1754,-1.0629,55.813835,37.50018,181.1761,NaN,0.0,12.0,,25 / 25,,5725,2021-05-01 19:21:18:794
-0.004794,0.006861,9.756125,1.46E-4,-6.17E-4,9.806649,-0.00188,-0.003808,-0.001332,1.86,-15.9,-24.24,188.7118,0.1754,-1.0629,55.813835,37.50018,181.1761,NaN,0.0,12.0,,25 / 25,,5735,2021-05-01 19:21:18:804
0.022431,0.007453,9.781984,3.08E-4,-5.11E-4,9.80665,-0.00249,4.68E-4,-1.11E-4,1.8,-15.48,-24.66,189.2786,0.1719,-1.0615,55.813835,37.50018,181.1761,NaN,0.0,12.0,,25 / 25,,5745,2021-05-01 19:21:18:814
0.002047,0.00144,9.789491,3.08E-4,-5.11E-4,9.80665,5.64E-4,-7.54E-4,-0.001332,1.8,-15.48,-24.66,189.2786,0.1719,-1.0615,55.813835,37.50018,181.1761,NaN,0.0,12.0,,25 / 25,,5755,2021-05-01 19:21:18:824
0.002047,0.00144,9.789491,0.001304,-0.001211,9.806649,-0.00249,-0.003808,0.001111,1.98,-16.08,-25.8,189.2786,0.1719,-1.0615,55.813835,37.50018,181.1761,NaN,0.0,12.0,,25 / 25,,5765,2021-05-01 19:21:18:834
-0.008258,7.77E-4,9.76333,0.001304,-0.001211,9.806649,5.64E-4,-0.001976,-1.11E-4,1.98,-16.08,-25.8,189.2786,0.1719,-1.0615,55.813835,37.50018,181.1761,NaN,0.0,12.0,,25 / 25,,5776,2021-05-01 19:21:18:845
-0.010271,-0.008518,9.736969,7.27E-4,-7.38E-4,9.806649,-6.58E-4,-0.001365,0.002944,1.86,-16.2,-25.32,188.6987,0.1662,-1.0529,55.813835,37.50018,181.1761,NaN,0.0,12.0,,25 / 25,,5785,2021-05-01 19:21:18:854
-0.006999,0.01844,9.765771,7.27E-4,-7.38E-4,9.806649,5.64E-4,-0.002586,0.002944,1.86,-16.2,-25.32,188.6987,0.1662,-1.0529,55.813835,37.50018,181.1761,NaN,0.0,12.0,,25 / 25,,5795,2021-05-01 19:21:18:864
-0.001835,-0.028405,9.777388,0.001696,-0.002333,9.806649,5.64E-4,0.003522,0.002333,1.74,-15.66,-24.9,188.6987,0.1662,-1.0529,55.813835,37.50018,181.1761,NaN,0.0,12.0,,25 / 25,,5805,2021-05-01 19:21:18:874
-0.001835,-0.028405,9.777388,0.002185,-0.002957,9.806649,0.001786,-1.43E-4,5.0E-4,1.56,-15.78,-25.02,188.6987,0.1662,-1.0529,55.813835,37.50018,181.1761,NaN,0.0,12.0,,25 / 25,,5816,2021-05-01 19:21:18:885
0.010208,-0.013299,9.779655,0.002185,-0.002957,9.806649,0.001786,0.001079,0.003555,1.56,-15.78,-25.02,188.6987,0.1662,-1.0529,55.813835,37.50018,181.1761,NaN,0.0,12.0,,25 / 25,,5826,2021-05-01 19:21:18:895
0.003252,0.007368,9.767865,3.66E-4,-1.67E-4,9.806651,-0.001269,-7.54E-4,0.001722,1.74,-15.84,-25.32,188.6791,0.151,-1.0376,55.813835,37.50018,181.1761,NaN,0.0,12.0,,25 / 25,,5836,2021-05-01 19:21:18:905
-0.01947,0.0206,9.739597,6.53E-4,-5.58E-4,9.80665,5.64E-4,-0.002586,0.004165,1.98,-16.32,-25.32,188.6791,0.151,-1.0376,55.813835,37.50018,181.1761,NaN,0.0,12.0,,25 / 25,,5845,2021-05-01 19:21:18:914
0.012147,0.003621,9.755716,6.53E-4,-5.58E-4,9.80665,0.001175,-7.54E-4,0.002944,1.98,-16.32,-25.32,188.6791,0.151,-1.0376,55.813835,37.50018,181.1761,NaN,0.0,12.0,,25 / 25,,5855,2021-05-01 19:21:18:924
0.012147,0.003621,9.755716,-1.63E-4,0.001079,9.80665,5.64E-4,0.00169,0.001111,2.28,-16.26,-24.66,188.6732,0.1484,-1.0334,55.813835,37.50018,181.1761,NaN,0.0,12.0,,25 / 25,,5865,2021-05-01 19:21:18:934
0.006168,1.27E-4,9.762973,-1.63E-4,0.001079,9.80665,5.64E-4,0.00169,0.001111,2.28,-16.26,-24.66,188.6732,0.1484,-1.0334,55.813835,37.50018,181.1761,NaN,0.0,12.0,,25 / 25,,5876,2021-05-01 19:21:18:945
-0.013042,6.22E-4,9.7681,-1.33E-4,0.001473,9.80665,0.001175,-0.002586,0.001722,2.04,-16.32,-24.6,188.6732,0.1484,-1.0334,55.813835,37.50018,181.1761,NaN,0.0,12.0,,25 / 25,,5886,2021-05-01 19:21:18:955
-0.009225,-0.007251,9.77757,-8.45E-4,0.0025,9.806651,-4.7E-5,4.68E-4,-1.11E-4,2.04,-16.68,-25.02,188.6732,0.1484,-1.0334,55.813835,37.50018,181.1761,NaN,0.0,12.0,,25 / 25,,5895,2021-05-01 19:21:18:964
-0.009225,-0.007251,9.77757,-8.45E-4,0.0025,9.806651,-4.7E-5,4.68E-4,5.0E-4,2.04,-16.68,-25.02,188.6732,0.1484,-1.0334,55.813835,37.50018,181.1761,NaN,0.0,12.0,,25 / 25,,5905,2021-05-01 19:21:18:974
-0.019032,0.011273,9.749104,-0.001022,0.001384,9.806649,-4.7E-5,0.002301,0.001111,2.34,-16.62,-25.02,188.1794,0.1621,-1.0404,55.813835,37.50018,181.1761,NaN,0.0,12.0,,25 / 25,,5915,2021-05-01 19:21:18:984
-0.013121,-0.009109,9.772866,-0.001022,0.001384,9.806649,5.64E-4,0.002911,0.001722,2.34,-16.62,-25.02,188.1794,0.1621,-1.0404,55.813835,37.50018,181.1761,NaN,0.0,12.0,,25 / 25,,5926,2021-05-01 19:21:18:995
