ACCELEROMETER X (m/s²),ACCELEROMETER Y (m/s²),ACCELEROMETER Z (m/s²),GRAVITY X (m/s²),GRAVITY Y (m/s²),GRAVITY Z (m/s²),GYROSCOPE X (rad/s),GYROSCOPE Y (rad/s),GYROSCOPE Z (rad/s),MAGNETIC FIELD X (μT),MAGNETIC FIELD Y (μT),MAGNETIC FIELD Z (μT),ORIENTATION Z (azimuth °),ORIENTATION X (pitch °),ORIENTATION Y (roll °),LOCATION Latitude : ,LOCATION Longitude : ,LOCATION Altitude ( m),LOCATION Altitude-google ( m),LOCATION Speed ( m/s),LOCATION Accuracy ( m),LOCATION ORIENTATION (°),Satellites in range,GPS NMEA,Time since start in ms ,YYYY-MO-DD HH-MI-SS_SSS
0.088588,-0.028731,9.761458,0.07833,-0.022882,9.806311,-0.001829,-0.001863,-9.84E-4,3.78,-16.5,-24.78,191.2876,0.127,-0.4691,55.813915,37.500175,190.8462,NaN,0.0,16.0,,20 / 23,,20,2021-05-01 19:30:08:954
0.088588,-0.028731,9.761458,0.07833,-0.022882,9.806311,-0.001829,-0.001863,-9.84E-4,3.78,-16.5,-24.78,191.2876,0.127,-0.4691,55.813915,37.500175,190.8462,NaN,0.0,16.0,,20 / 23,,30,2021-05-01 19:30:08:964
0.074223,-0.03352,9.759064,0.077754,-0.023836,9.806313,6.15E-4,5.81E-4,2.38E-4,4.02,-16.74,-24.84,193.8306,0.1337,-0.4577,55.813915,37.500175,190.8462,NaN,0.0,16.0,,20 / 23,,40,2021-05-01 19:30:08:974
0.074223,-0.03352,9.759064,0.077754,-0.023836,9.806313,0.001225,-0.001863,-3.73E-4,4.02,-16.74,-24.84,193.8306,0.1337,-0.4577,55.813915,37.500175,190.8462,NaN,0.0,16.0,,20 / 23,,52,2021-05-01 19:30:08:986
0.069434,-0.035914,9.754275,0.076551,-0.024883,9.80632,-6.07E-4,0.001192,-3.73E-4,3.78,-16.5,-25.08,193.8306,0.1337,-0.4577,55.813915,37.500175,190.8462,NaN,0.0,16.0,,20 / 23,,61,2021-05-01 19:30:08:995
0.064645,-0.014366,9.747093,0.076551,-0.024883,9.80632,-6.07E-4,0.001192,-3.73E-4,3.78,-16.5,-25.08,193.8306,0.1337,-0.4577,55.813915,37.500175,190.8462,NaN,0.0,16.0,,20 / 23,,70,2021-05-01 19:30:09:004
0.06704,-0.028731,9.747093,0.07645,-0.024993,9.80632,-0.001829,5.81E-4,-3.73E-4,3.0,-16.86,-25.5,190.6057,0.1454,-0.4473,55.813915,37.500175,190.8462,NaN,0.0,16.0,,20 / 23,,80,2021-05-01 19:30:09:014
0.086194,-0.019154,9.727939,0.076688,-0.024993,9.806318,-0.001829,5.81E-4,0.001459,2.7,-17.04,-25.86,190.6057,0.1454,-0.4473,55.813915,37.500175,190.8462,NaN,0.0,16.0,,20 / 23,,90,2021-05-01 19:30:09:024
0.086194,-0.019154,9.727939,0.076688,-0.024993,9.806318,-0.00244,-0.001252,-0.003428,2.7,-17.04,-25.86,190.6057,0.1454,-0.4473,55.813915,37.500175,190.8462,NaN,0.0,16.0,,20 / 23,,100,2021-05-01 19:30:09:034
0.06704,-0.023943,9.768641,0.07799,-0.024633,9.806309,-0.001218,-3.0E-5,2.38E-4,3.3,-17.22,-25.62,190.6057,0.1454,-0.4473,55.813915,37.500175,190.8462,NaN,0.0,16.0,,20 / 23,,110,2021-05-01 19:30:09:044
0.06704,-0.023943,9.768641,0.07799,-0.024633,9.806309,-0.001218,-3.0E-5,2.38E-4,3.3,-17.22,-25.62,190.6057,0.1454,-0.4473,55.813915,37.500175,190.8462,NaN,0.0,16.0,,20 / 23,,120,2021-05-01 19:30:09:054
0.090982,-0.031126,9.771035,0.07782,-0.024452,9.806312,-0.001829,0.001192,-9.84E-4,3.78,-17.76,-25.5,193.0861,0.1439,-0.4557,55.813915,37.500175,190.8462,NaN,0.0,16.0,,20 / 23,,131,2021-05-01 19:30:09:065
0.064645,-0.03352,9.768641,0.077237,-0.02431,9.806315,4.0E-6,-0.001252,8.48E-4,3.9,-17.7,-25.44,193.0861,0.1439,-0.4557,55.813915,37.500175,190.8462,NaN,0.0,16.0,,20 / 23,,141,2021-05-01 19:30:09:075
0.074223,-0.035914,9.75667,0.077237,-0.02431,9.806315,0.001836,-0.001863,2.38E-4,3.9,-17.7,-25.44,193.0861,0.1439,-0.4557,55.813915,37.500175,190.8462,NaN,0.0,16.0,,20 / 23,,150,2021-05-01 19:30:09:084
0.074223,-0.035914,9.75667,0.076969,-0.024475,9.806317,0.001225,5.81E-4,-3.73E-4,3.54,-17.76,-25.74,193.0861,0.1439,-0.4557,55.813915,37.500175,190.8462,NaN,0.0,16.0,,20 / 23,,161,2021-05-01 19:30:09:095
0.088588,-0.028731,9.725544,0.076969,-0.024475,9.806317,-0.00244,-6.41E-4,-0.002817,3.54,-17.76,-25.74,193.0861,0.1439,-0.4557,55.813915,37.500175,190.8462,NaN,0.0,16.0,,20 / 23,,171,2021-05-01 19:30:09:105
0.074223,-0.038308,9.713573,0.07694,-0.026342,9.806313,6.15E-4,-0.001863,-3.73E-4,3.24,-16.8,-25.2,190.6098,0.143,-0.4497,55.813915,37.500175,190.8462,NaN,0.0,16.0,,20 / 23,,181,2021-05-01 19:30:09:115
0.081405,-0.028731,9.715967,0.077035,-0.027161,9.80631,0.001225,-0.001252,-9.84E-4,3.0,-16.86,-25.2,190.6098,0.143,-0.4497,55.813915,37.500175,190.8462,NaN,0.0,16.0,,20 / 23,,190,2021-05-01 19:30:09:124
0.064645,-0.021548,9.775824,0.077035,-0.027161,9.80631,6.15E-4,-6.41E-4,2.38E-4,3.0,-16.86,-25.2,190.6098,0.143,-0.4497,55.813915,37.500175,190.8462,NaN,0.0,16.0,,20 / 23,,201,2021-05-01 19:30:09:135
0.064645,-0.021548,9.775824,0.07713,-0.027744,9.806308,-0.001218,5.81E-4,2.38E-4,2.88,-16.68,-25.2,190.6098,0.143,-0.4497,55.813915,37.500175,190.8462,NaN,0.0,16.0,,20 / 23,,211,2021-05-01 19:30:09:145
0.076617,-0.028731,9.77343,0.07713,-0.027744,9.806308,-0.001218,5.81E-4,2.38E-4,2.88,-16.68,-25.2,190.6098,0.143,-0.4497,55.813915,37.500175,190.8462,NaN,0.0,16.0,,20 / 23,,221,2021-05-01 19:30:09:155
0.062251,-0.031126,9.763853,0.077199,-0.027756,9.806307,0.001225,-0.003695,0.00207,2.82,-16.62,-25.5,190.6061,0.1621,-0.4506,55.813915,37.500175,190.8462,NaN,0.0,16.0,,20 / 23,,231,2021-05-01 19:30:09:165
0.079011,-0.035914,9.775824,0.076736,-0.028206,9.80631,-6.07E-4,-0.001863,0.004514,3.18,-16.44,-25.68,190.6061,0.1621,-0.4506,55.813915,37.500175,190.8462,NaN,0.0,16.0,,20 / 23,,240,2021-05-01 19:30:09:174
0.079011,-0.021548,9.761458,0.076736,-0.028206,9.80631,-6.07E-4,5.81E-4,2.38E-4,3.18,-16.44,-25.68,190.6061,0.1621,-0.4506,55.813915,37.500175,190.8462,NaN,0.0,16.0,,20 / 23,,251,2021-05-01 19:30:09:185
0.079011,-0.021548,9.761458,0.076798,-0.028675,9.806308,0.001225,-6.41E-4,2.38E-4,2.64,-16.98,-25.38,190.6061,0.1621,-0.4506,55.813915,37.500175,190.8462,NaN,0.0,16.0,,20 / 23,,261,2021-05-01 19:30:09:195
0.076617,-0.01676,9.785401,0.076798,-0.028675,9.806308,4.0E-6,-0.001863,2.38E-4,2.64,-16.98,-25.38,190.6061,0.1621,-0.4506,55.813915,37.500175,190.8462,NaN,0.0,16.0,,20 / 23,,271,2021-05-01 19:30:09:205
0.086194,-0.019154,9.749487,0.076431,-0.02839,9.806312,4.0E-6,-0.001863,2.38E-4,2.82,-17.04,-25.2,190.6019,0.1675,-0.4487,55.813915,37.500175,190.8462,NaN,0.0,16.0,,20 / 23,,280,2021-05-01 19:30:09:214
0.055068,0.002394,9.754275,0.076539,-0.02806,9.806312,-6.07E-4,5.81E-4,2.38E-4,3.42,-17.22,-25.68,190.6019,0.1675,-0.4487,55.813915,37.500175,190.8462,NaN,0.0,16.0,,20 / 23,,290,2021-05-01 19:30:09:224
0.079011,-0.021548,9.715967,0.076539,-0.02806,9.806312,4.0E-6,-0.001252,-9.84E-4,3.42,-17.22,-25.68,190.6019,0.1675,-0.4487,55.813915,37.500175,190.8462,NaN,0.0,16.0,,20 / 23,,301,2021-05-01 19:30:09:235
0.079011,-0.021548,9.715967,0.075987,-0.026759,9.806319,4.0E-6,5.81E-4,2.38E-4,3.3,-17.22,-26.34,190.6019,0.1675,-0.4487,55.813915,37.500175,190.8462,NaN,0.0,16.0,,20 / 23,,310,2021-05-01 19:30:09:244
0.071828,-0.026337,9.708784,0.075987,-0.026759,9.806319,4.0E-6,-6.41E-4,-0.002817,3.3,-17.22,-26.34,190.6019,0.1675,-0.4487,55.813915,37.500175,190.8462,NaN,0.0,16.0,,20 / 23,,321,2021-05-01 19:30:09:255
0.088588,-0.019154,9.744699,0.075935,-0.025704,9.806322,4.0E-6,-6.41E-4,-3.73E-4,2.7,-17.1,-25.98,190.6216,0.1563,-0.444,55.813915,37.500175,190.8462,NaN,0.0,16.0,,20 / 23,,331,2021-05-01 19:30:09:265
0.086194,-0.040703,9.737515,0.075829,-0.025472,9.806324,-0.001218,-6.41E-4,8.48E-4,3.18,-16.68,-25.86,190.6216,0.1563,-0.444,55.813915,37.500175,190.8462,NaN,0.0,16.0,,20 / 23,,341,2021-05-01 19:30:09:275
0.086194,-0.040703,9.737515,0.075829,-0.025472,9.806324,-0.001829,-0.004917,0.00207,3.18,-16.68,-25.86,190.6216,0.1563,-0.444,55.813915,37.500175,190.8462,NaN,0.0,16.0,,20 / 23,,350,2021-05-01 19:30:09:284
0.081405,-0.021548,9.771035,0.075829,-0.025473,9.806324,6.15E-4,-0.002473,0.001459,2.88,-17.22,-25.98,190.6216,0.1563,-0.444,55.813915,37.500175,190.8462,NaN,0.0,16.0,,20 / 23,,363,2021-05-01 19:30:09:297
0.081405,-0.021548,9.771035,0.075829,-0.025473,9.806324,6.15E-4,-0.002473,0.001459,2.88,-17.22,-25.98,190.6216,0.1563,-0.444,55.813915,37.500175,190.8462,NaN,0.0,16.0,,20 / 23,,370,2021-05-01 19:30:09:304
0.059857,-0.023943,9.751882,0.075237,-0.025074,9.80633,-0.003051,-0.001252,2.38E-4,3.0,-17.4,-25.62,190.6223,0.1488,-0.443,55.813915,37.500175,190.8462,NaN,0.0,16.0,,20 / 23,,380,2021-05-01 19:30:09:314
0.069434,-0.028731,9.742304,0.074723,-0.024944,9.806334,4.0E-6,-0.001863,2.38E-4,3.42,-17.82,-25.62,190.6223,0.1488,-0.443,55.813915,37.500175,190.8462,NaN,0.0,16.0,,20 / 23,,391,2021-05-01 19:30:09:325
0.086194,-0.028731,9.768641,0.073352,-0.02501,9.806344,-6.07E-4,-0.002473,0.001459,3.0,-17.22,-25.14,190.6223,0.1488,-0.443,55.813915,37.500175,190.8462,NaN,0.0,16.0,,20 / 23,,416,2021-05-01 19:30:09:350
0.086194,-0.028731,9.768641,0.073352,-0.02501,9.806344,-6.07E-4,-0.002473,0.001459,3.0,-17.22,-25.14,190.6223,0.1488,-0.443,55.813915,37.500175,190.8462,NaN,0.0,16.0,,20 / 23,,419,2021-05-01 19:30:09:353
0.086194,-0.028731,9.768641,0.073352,-0.02501,9.806344,-6.07E-4,-0.002473,0.001459,3.0,-17.22,-25.14,190.6223,0.1488,-0.443,55.813915,37.500175,190.8462,NaN,0.0,16.0,,20 / 23,,420,2021-05-01 19:30:09:354
0.081405,-0.031126,9.730332,0.073901,-0.025125,9.806339,-6.07E-4,-0.001252,8.48E-4,2.4,-16.98,-24.6,187.3034,0.1461,-0.4286,55.813915,37.500175,190.8462,NaN,0.0,16.0,,20 / 23,,431,2021-05-01 19:30:09:365
0.069434,-0.014366,9.766247,0.073782,-0.025007,9.806341,-6.07E-4,-0.001252,8.48E-4,2.4,-16.98,-24.6,187.3034,0.1461,-0.4286,55.813915,37.500175,190.8462,NaN,0.0,16.0,,20 / 23,,441,2021-05-01 19:30:09:375
0.071828,-0.028731,9.766247,0.073782,-0.025007,9.806341,6.15E-4,-6.41E-4,-0.002206,2.58,-17.16,-24.9,187.3034,0.1461,-0.4286,55.813915,37.500175,190.8462,NaN,0.0,16.0,,20 / 23,,450,2021-05-01 19:30:09:384
0.071828,-0.028731,9.766247,0.073977,-0.025199,9.806338,-6.07E-4,-0.003084,-0.001595,2.46,-17.52,-24.96,187.3034,0.1461,-0.4286,55.813915,37.500175,190.8462,NaN,0.0,16.0,,20 / 23,,460,2021-05-01 19:30:09:394
0.081405,-0.023943,9.732727,0.073977,-0.025199,9.806338,6.15E-4,-6.41E-4,-9.84E-4,2.46,-17.52,-24.96,187.3034,0.1461,-0.4286,55.813915,37.500175,190.8462,NaN,0.0,16.0,,20 / 23,,471,2021-05-01 19:30:09:405
0.071828,-0.021548,9.730332,0.073683,-0.025074,9.806341,-0.003051,-6.41E-4,-3.73E-4,3.06,-16.74,-25.38,190.5839,0.1472,-0.4322,55.813915,37.500175,190.8462,NaN,0.0,16.0,,20 / 23,,481,2021-05-01 19:30:09:415
0.069434,-0.01676,9.751882,0.073683,-0.025074,9.806341,-6.07E-4,-0.001252,-0.001595,3.06,-16.74,-25.38,190.5839,0.1472,-0.4322,55.813915,37.500175,190.8462,NaN,0.0,16.0,,20 / 23,,491,2021-05-01 19:30:09:425
0.069434,-0.01676,9.751882,0.073749,-0.024698,9.806341,0.001836,0.003635,-9.84E-4,3.36,-16.56,-25.38,190.5839,0.1472,-0.4322,55.813915,37.500175,190.8462,NaN,0.0,16.0,,20 / 23,,500,2021-05-01 19:30:09:434
0.086194,-0.038308,9.711179,0.073749,-0.024698,9.806341,-0.001829,0.001803,-9.84E-4,3.6,-16.56,-25.92,190.5839,0.1472,-0.4322,55.813915,37.500175,190.8462,NaN,0.0,16.0,,20 / 23,,511,2021-05-01 19:30:09:445
0.086194,-0.038308,9.711179,0.073744,-0.024593,9.806342,-0.001829,0.001803,-9.84E-4,3.6,-16.56,-25.92,190.5839,0.1472,-0.4322,55.813915,37.500175,190.8462,NaN,0.0,16.0,,20 / 23,,520,2021-05-01 19:30:09:454
0.064645,-0.023943,9.759064,0.073744,-0.024593,9.806342,4.0E-6,0.001803,0.001459,3.12,-16.74,-25.38,190.5829,0.1437,-0.4309,55.813915,37.500175,190.8462,NaN,0.0,16.0,,20 / 23,,530,2021-05-01 19:30:09:464
0.064645,-0.03352,9.742304,0.074118,-0.024939,9.806338,6.15E-4,-0.001252,8.48E-4,2.94,-16.68,-25.56,190.5829,0.1437,-0.4309,55.813915,37.500175,190.8462,NaN,0.0,16.0,,20 / 23,,541,2021-05-01 19:30:09:475
0.064645,-0.03352,9.742304,0.074118,-0.024939,9.806338,4.0E-6,-6.41E-4,2.38E-4,2.94,-16.68,-25.56,190.5829,0.1437,-0.4309,55.813915,37.500175,190.8462,NaN,0.0,16.0,,20 / 23,,550,2021-05-01 19:30:09:484
0.081405,-0.023943,9.77343,0.074294,-0.024945,9.806336,-0.00244,0.001192,-9.84E-4,3.0,-16.68,-24.96,190.5829,0.1437,-0.4309,55.813915,37.500175,190.8462,NaN,0.0,16.0,,20 / 23,,561,2021-05-01 19:30:09:495
0.081405,-0.01676,9.768641,0.07394,-0.0253,9.806339,0.001225,-0.001252,-0.001595,3.18,-16.32,-25.14,191.2297,0.1457,-0.4341,55.813915,37.500175,190.8462,NaN,0.0,16.0,,20 / 23,,574,2021-05-01 19:30:09:508
0.081405,-0.01676,9.768641,0.07394,-0.0253,9.806339,0.001225,-0.001252,-0.001595,3.18,-16.32,-25.14,191.2297,0.1457,-0.4341,55.813915,37.500175,190.8462,NaN,0.0,16.0,,20 / 23,,580,2021-05-01 19:30:09:514
0.093377,-0.021548,9.70639,0.07394,-0.0253,9.806339,6.15E-4,-6.41E-4,-9.84E-4,3.18,-16.32,-25.14,191.2297,0.1457,-0.4341,55.813915,37.500175,190.8462,NaN,0.0,16.0,,20 / 23,,591,2021-05-01 19:30:09:525
0.093377,-0.021548,9.70639,0.074704,-0.025273,9.806334,4.0E-6,-6.41E-4,8.48E-4,3.36,-16.26,-25.5,191.2297,0.1457,-0.4341,55.813915,37.500175,190.8462,NaN,0.0,16.0,,20 / 23,,601,2021-05-01 19:30:09:535
0.076617,-0.01676,9.783007,0.074766,-0.025267,9.806333,0.001225,0.001803,0.002681,2.82,-16.5,-25.86,191.2297,0.1457,-0.4341,55.813915,37.500175,190.8462,NaN,0.0,16.0,,20 / 23,,611,2021-05-01 19:30:09:545
0.076617,-0.01676,9.783007,0.074766,-0.025267,9.806333,-0.001218,-0.001863,-0.004038,2.82,-16.5,-25.86,191.2297,0.1457,-0.4341,55.813915,37.500175,190.8462,NaN,0.0,16.0,,20 / 23,,621,2021-05-01 19:30:09:555
0.062251,-0.028731,9.742304,0.074959,-0.025266,9.806331,0.002447,0.001192,-9.84E-4,2.82,-16.74,-25.38,190.5903,0.1476,-0.4368,55.813915,37.500175,190.8462,NaN,0.0,16.0,,20 / 23,,630,2021-05-01 19:30:09:564
0.086194,-0.019154,9.775824,0.074959,-0.025266,9.806331,4.0E-6,0.001192,-9.84E-4,2.82,-16.74,-25.38,190.5903,0.1476,-0.4368,55.813915,37.500175,190.8462,NaN,0.0,16.0,,20 / 23,,640,2021-05-01 19:30:09:574
0.086194,-0.019154,9.775824,0.074947,-0.025097,9.806332,4.0E-6,0.001192,-9.84E-4,3.18,-16.44,-25.02,190.5903,0.1476,-0.4368,55.813915,37.500175,190.8462,NaN,0.0,16.0,,20 / 23,,651,2021-05-01 19:30:09:585
0.071828,-0.03352,9.720756,0.074908,-0.024684,9.806333,4.0E-6,-0.001252,2.38E-4,3.24,-16.92,-24.66,190.5903,0.1476,-0.4368,55.813915,37.500175,190.8462,NaN,0.0,16.0,,20 / 23,,660,2021-05-01 19:30:09:594
0.071828,-0.03352,9.720756,0.074908,-0.024684,9.806333,4.0E-6,-6.41E-4,-0.001595,3.24,-16.92,-24.66,190.5903,0.1476,-0.4368,55.813915,37.500175,190.8462,NaN,0.0,16.0,,20 / 23,,671,2021-05-01 19:30:09:605
0.086194,-0.028731,9.735122,0.074383,-0.02335,9.80634,-0.00244,-0.001863,0.002681,3.12,-17.34,-24.18,190.5691,0.1442,-0.4377,55.813915,37.500175,190.8462,NaN,0.0,16.0,,20 / 23,,681,2021-05-01 19:30:09:615
0.079011,-0.038308,9.75667,0.074383,-0.02335,9.80634,-0.001829,0.001803,-3.73E-4,3.12,-17.34,-24.18,190.5691,0.1442,-0.4377,55.813915,37.500175,190.8462,NaN,0.0,16.0,,20 / 23,,691,2021-05-01 19:30:09:625
0.074223,-0.009577,9.768641,0.07422,-0.023233,9.806342,-0.001829,-6.41E-4,-9.84E-4,2.52,-16.86,-24.72,190.5691,0.1442,-0.4377,55.813915,37.500175,190.8462,NaN,0.0,16.0,,20 / 23,,701,2021-05-01 19:30:09:635
0.076617,-0.035914,9.747093,0.074218,-0.023039,9.806342,-0.001829,-0.001863,-0.002817,2.34,-17.22,-24.9,190.5691,0.1442,-0.4377,55.813915,37.500175,190.8462,NaN,0.0,16.0,,20 / 23,,711,2021-05-01 19:30:09:645
0.076617,-0.035914,9.747093,0.074218,-0.023039,9.806342,-0.001829,-0.001863,-0.002817,2.34,-17.22,-24.9,190.5691,0.1442,-0.4377,55.813915,37.500175,190.8462,NaN,0.0,16.0,,20 / 23,,720,2021-05-01 19:30:09:654
0.057463,-0.009577,9.761458,0.074822,-0.023601,9.806336,-0.001218,0.001803,-0.004038,2.64,-17.46,-25.2,190.5892,0.1346,-0.4336,55.813915,37.500175,190.8462,NaN,0.0,16.0,,20 / 23,,730,2021-05-01 19:30:09:664
0.071828,-0.021548,9.747093,0.074822,-0.023601,9.806336,-6.07E-4,0.003635,0.001459,2.64,-17.46,-25.2,190.5892,0.1346,-0.4336,55.813915,37.500175,190.8462,NaN,0.0,16.0,,20 / 23,,741,2021-05-01 19:30:09:675
0.086194,-0.038308,9.749487,0.074529,-0.023714,9.806338,4.0E-6,0.001192,0.00207,2.52,-16.92,-24.54,190.5892,0.1346,-0.4336,55.813915,37.500175,190.8462,NaN,0.0,16.0,,20 / 23,,750,2021-05-01 19:30:09:684
0.064645,-0.040703,9.732727,0.074405,-0.023729,9.806339,-6.07E-4,0.003024,2.38E-4,2.16,-17.28,-24.24,190.5892,0.1346,-0.4336,55.813915,37.500175,190.8462,NaN,0.0,16.0,,20 / 23,,761,2021-05-01 19:30:09:695
0.064645,-0.040703,9.732727,0.074405,-0.023729,9.806339,-6.07E-4,0.003024,2.38E-4,2.16,-17.28,-24.24,190.5892,0.1346,-0.4336,55.813915,37.500175,190.8462,NaN,0.0,16.0,,20 / 23,,771,2021-05-01 19:30:09:705
0.0838,-0.023943,9.763853,0.073842,-0.024568,9.806341,-6.07E-4,5.81E-4,-3.73E-4,2.4,-17.46,-24.06,187.2896,0.1386,-0.4347,55.813915,37.500175,190.8462,NaN,0.0,16.0,,20 / 23,,781,2021-05-01 19:30:09:715
0.088588,-0.023943,9.768641,0.073842,-0.024568,9.806341,6.15E-4,0.002414,0.001459,2.4,-17.46,-24.06,187.2896,0.1386,-0.4347,55.813915,37.500175,190.8462,NaN,0.0,16.0,,20 / 23,,790,2021-05-01 19:30:09:724
0.081405,-0.014366,9.759064,0.073496,-0.025698,9.806341,-0.001829,-0.001252,8.48E-4,2.76,-17.28,-24.6,187.2896,0.1386,-0.4347,55.813915,37.500175,190.8462,NaN,0.0,16.0,,20 / 23,,800,2021-05-01 19:30:09:734
0.081405,-0.014366,9.759064,0.073496,-0.025698,9.806341,4.0E-6,-3.0E-5,2.38E-4,2.76,-17.28,-24.6,187.2896,0.1386,-0.4347,55.813915,37.500175,190.8462,NaN,0.0,16.0,,20 / 23,,811,2021-05-01 19:30:09:745
0.062251,-0.014366,9.761458,0.073613,-0.02586,9.80634,-6.07E-4,-0.002473,-0.001595,2.58,-17.22,-24.84,190.5792,0.1501,-0.4294,55.813915,37.500175,190.8462,NaN,0.0,16.0,,20 / 23,,822,2021-05-01 19:30:09:756
0.069434,-0.026337,9.742304,0.073497,-0.025935,9.80634,0.001225,0.001192,0.001459,2.52,-17.4,-25.2,190.5792,0.1501,-0.4294,55.813915,37.500175,190.8462,NaN,0.0,16.0,,20 / 23,,831,2021-05-01 19:30:09:765
0.059857,-0.031126,9.768641,0.073497,-0.025935,9.80634,-6.07E-4,-0.001863,-3.73E-4,2.52,-17.4,-25.2,190.5792,0.1501,-0.4294,55.813915,37.500175,190.8462,NaN,0.0,16.0,,20 / 23,,841,2021-05-01 19:30:09:775
0.059857,-0.031126,9.768641,0.072927,-0.025635,9.806346,0.001225,0.001192,-3.73E-4,3.72,-17.34,-25.38,190.5792,0.1501,-0.4294,55.813915,37.500175,190.8462,NaN,0.0,16.0,,20 / 23,,850,2021-05-01 19:30:09:784
0.06704,-0.031126,9.730332,0.072927,-0.025635,9.806346,4.0E-6,0.001192,2.38E-4,3.72,-17.34,-25.38,190.5792,0.1501,-0.4294,55.813915,37.500175,190.8462,NaN,0.0,16.0,,20 / 23,,861,2021-05-01 19:30:09:795
0.059857,-0.040703,9.732727,0.072635,-0.025467,9.806348,4.0E-6,0.001192,2.38E-4,4.14,-17.28,-24.78,193.7816,0.1498,-0.4261,55.813915,37.500175,190.8462,NaN,0.0,16.0,,20 / 23,,871,2021-05-01 19:30:09:805
0.086194,-0.026337,9.75667,0.072635,-0.025467,9.806348,6.15E-4,-3.0E-5,-9.84E-4,4.14,-17.28,-24.78,193.7816,0.1498,-0.4261,55.813915,37.500175,190.8462,NaN,0.0,16.0,,20 / 23,,880,2021-05-01 19:30:09:814
0.086194,-0.026337,9.75667,0.072592,-0.025702,9.806348,6.15E-4,0.003024,0.00207,3.24,-17.76,-24.54,193.7816,0.1498,-0.4261,55.813915,37.500175,190.8462,NaN,0.0,16.0,,19 / 23,,890,2021-05-01 19:30:09:824
0.074223,-0.028731,9.787795,0.072592,-0.025702,9.806348,6.15E-4,-0.001252,-3.73E-4,3.24,-17.76,-24.54,193.7816,0.1498,-0.4261,55.813915,37.500175,190.8462,NaN,0.0,16.0,,19 / 23,,901,2021-05-01 19:30:09:835
0.074223,-0.01676,9.72315,0.072947,-0.025582,9.806346,4.0E-6,-3.0E-5,0.001459,2.76,-17.1,-24.48,190.5493,0.1502,-0.4241,55.813915,37.500175,190.8462,NaN,0.0,16.0,,19 / 23,,910,2021-05-01 19:30:09:844
0.074223,-0.01676,9.72315,0.072947,-0.025582,9.806346,0.001225,-3.0E-5,0.002681,2.76,-17.1,-24.48,190.5493,0.1502,-0.4241,55.813915,37.500175,190.8462,NaN,0.0,16.0,,19 / 23,,921,2021-05-01 19:30:09:855
0.088588,-0.004789,9.766247,0.072785,-0.025462,9.806348,6.15E-4,0.002414,-0.002206,2.94,-16.74,-24.36,190.5493,0.1502,-0.4241,55.813915,37.500175,190.8462,NaN,0.0,16.0,,19 / 23,,930,2021-05-01 19:30:09:864
0.079011,-0.035914,9.75667,0.072785,-0.025462,9.806348,-0.001829,-0.001252,0.002681,2.94,-16.74,-24.36,190.5493,0.1502,-0.4241,55.813915,37.500175,190.8462,NaN,0.0,16.0,,19 / 23,,941,2021-05-01 19:30:09:875
0.086194,-0.03352,9.744699,0.072072,-0.02527,9.806353,-0.001218,0.001192,8.48E-4,3.18,-17.28,-24.54,190.5736,0.1488,-0.4253,55.813915,37.500175,190.8462,NaN,0.0,16.0,,19 / 23,,951,2021-05-01 19:30:09:885
0.064645,-0.01676,9.771035,0.072072,-0.02527,9.806353,-0.001218,-0.001863,2.38E-4,3.18,-17.28,-24.54,190.5736,0.1488,-0.4253,55.813915,37.500175,190.8462,NaN,0.0,16.0,,19 / 23,,960,2021-05-01 19:30:09:894
0.064645,-0.01676,9.771035,0.071847,-0.025438,9.806354,-0.001218,-0.001863,2.38E-4,2.64,-17.1,-24.66,190.5736,0.1488,-0.4253,55.813915,37.500175,190.8462,NaN,0.0,16.0,,19 / 23,,971,2021-05-01 19:30:09:905
0.0838,-0.023943,9.785401,0.071847,-0.025438,9.806354,0.001225,-0.001863,-3.73E-4,2.64,-17.1,-24.66,190.5736,0.1488,-0.4253,55.813915,37.500175,190.8462,NaN,0.0,16.0,,19 / 23,,980,2021-05-01 19:30:09:914
0.0838,-0.023943,9.785401,0.072205,-0.02551,9.806351,-6.07E-4,-3.0E-5,-0.002817,2.76,-17.46,-24.6,190.5659,0.1486,-0.4198,55.813915,37.500175,190.8462,NaN,0.0,16.0,,19 / 23,,990,2021-05-01 19:30:09:924
0.086194,-0.03352,9.780613,0.072205,-0.02551,9.806351,-0.001218,-3.0E-5,-0.001595,2.76,-17.46,-24.6,190.5659,0.1486,-0.4198,55.813915,37.500175,190.8462,NaN,0.0,16.0,,19 / 23,,1001,2021-05-01 19:30:09:935
0.071828,-0.035914,9.775824,0.072217,-0.025676,9.806351,6.15E-4,-0.001252,0.00207,2.76,-17.34,-24.96,190.5659,0.1486,-0.4198,55.813915,37.500175,190.8462,NaN,0.0,16.0,,19 / 23,,1011,2021-05-01 19:30:09:945
0.071828,-0.03352,9.742304,0.072561,-0.025388,9.806349,0.001836,-0.001252,-0.001595,2.76,-17.04,-25.08,190.5686,0.15,-0.4219,55.813915,37.500175,190.8462,NaN,0.0,16.0,,19 / 23,,1029,2021-05-01 19:30:09:963
0.071828,-0.03352,9.742304,0.072561,-0.025388,9.806349,0.001836,-0.001252,-0.001595,2.76,-17.04,-25.08,190.5686,0.15,-0.4219,55.813915,37.500175,190.8462,NaN,0.0,16.0,,19 / 23,,1030,2021-05-01 19:30:09:964
0.0838,-0.021548,9.766247,0.072561,-0.025388,9.806349,4.0E-6,-0.001863,-0.001595,2.76,-17.04,-25.08,190.5686,0.15,-0.4219,55.813915,37.500175,190.8462,NaN,0.0,16.0,,19 / 23,,1041,2021-05-01 19:30:09:975
0.090982,-0.035914,9.778218,0.073907,-0.025546,9.806338,4.0E-6,-0.001863,-0.001595,3.0,-16.98,-24.36,190.5686,0.15,-0.4219,55.813915,37.500175,190.8462,NaN,0.0,16.0,,19 / 23,,1050,2021-05-01 19:30:09:984
0.090982,-0.035914,9.778218,0.074031,-0.025252,9.806338,0.001225,-3.0E-5,2.38E-4,3.0,-16.8,-24.78,190.5686,0.15,-0.4219,55.813915,37.500175,190.8462,NaN,0.0,16.0,,19 / 23,,1060,2021-05-01 19:30:09:994
0.086194,-0.011971,9.787795,0.074031,-0.025252,9.806338,-0.003662,-0.001252,-0.002206,3.0,-16.8,-24.78,190.5686,0.15,-0.4219,55.813915,37.500175,190.8462,NaN,0.0,16.0,,19 / 23,,1070,2021-05-01 19:30:10:004
0.069434,-0.019154,9.759064,0.074392,-0.025236,9.806335,-6.07E-4,-0.002473,-0.002206,3.0,-16.44,-25.2,191.2269,0.1475,-0.4325,55.813915,37.500175,190.8462,NaN,0.0,16.0,,19 / 23,,1081,2021-05-01 19:30:10:015
0.062251,-0.028731,9.75667,0.074392,-0.025236,9.806335,-0.00244,-3.0E-5,0.001459,3.0,-16.44,-25.2,191.2269,0.1475,-0.4325,55.813915,37.500175,190.8462,NaN,0.0,16.0,,19 / 23,,1093,2021-05-01 19:30:10:027
0.062251,-0.028731,9.75667,0.074795,-0.025267,9.806333,6.15E-4,-0.001252,-0.001595,3.42,-16.8,-25.32,191.2269,0.1475,-0.4325,55.813915,37.500175,190.8462,NaN,0.0,16.0,,19 / 23,,1100,2021-05-01 19:30:10:034
0.076617,-0.01676,9.735122,0.074687,-0.02508,9.806334,0.002447,0.001192,-3.73E-4,3.6,-16.86,-25.32,191.2269,0.1475,-0.4325,55.813915,37.500175,190.8462,NaN,0.0,16.0,,19 / 23,,1111,2021-05-01 19:30:10:045
0.076617,-0.01676,9.735122,0.074687,-0.02508,9.806334,0.002447,0.001192,-3.73E-4,3.6,-16.86,-25.32,191.2269,0.1475,-0.4325,55.813915,37.500175,190.8462,NaN,0.0,16.0,,19 / 23,,1121,2021-05-01 19:30:10:055
0.076617,-0.014366,9.785401,0.07421,-0.024651,9.806338,4.0E-6,5.81E-4,-9.84E-4,3.66,-16.98,-25.2,193.7969,0.1465,-0.4364,55.813915,37.500175,190.8462,NaN,0.0,16.0,,19 / 23,,1130,2021-05-01 19:30:10:064
0.086194,-0.007183,9.780613,0.07421,-0.024651,9.806338,4.0E-6,-3.0E-5,8.48E-4,3.66,-16.98,-25.2,193.7969,0.1465,-0.4364,55.813915,37.500175,190.8462,NaN,0.0,16.0,,19 / 23,,1140,2021-05-01 19:30:10:074
0.076617,-0.028731,9.778218,0.074284,-0.024292,9.806339,0.001836,-6.41E-4,-9.84E-4,3.18,-17.64,-24.66,193.7969,0.1465,-0.4364,55.813915,37.500175,190.8462,NaN,0.0,16.0,,19 / 23,,1150,2021-05-01 19:30:10:084
0.076617,-0.03352,9.749487,0.074352,-0.02411,9.806338,-6.07E-4,-0.001252,8.48E-4,3.54,-17.52,-24.12,193.7969,0.1465,-0.4364,55.813915,37.500175,190.8462,NaN,0.0,16.0,,19 / 23,,1160,2021-05-01 19:30:10:094
0.076617,-0.03352,9.749487,0.074352,-0.02411,9.806338,4.0E-6,-3.0E-5,-0.004038,3.54,-17.52,-24.12,193.7969,0.1465,-0.4364,55.813915,37.500175,190.8462,NaN,0.0,16.0,,19 / 23,,1171,2021-05-01 19:30:10:105
0.059857,-0.03352,9.73991,0.074754,-0.023624,9.806336,-0.001829,0.003024,-9.84E-4,4.08,-17.34,-24.54,193.7961,0.1409,-0.4344,55.813915,37.500175,190.8462,NaN,0.0,16.0,,19 / 23,,1181,2021-05-01 19:30:10:115
0.06704,-0.03352,9.778218,0.074754,-0.023624,9.806336,-0.001218,-0.001252,-0.001595,4.08,-17.34,-24.54,193.7961,0.1409,-0.4344,55.813915,37.500175,190.8462,NaN,0.0,16.0,,19 / 23,,1191,2021-05-01 19:30:10:125
0.074223,-0.01676,9.768641,0.074734,-0.02344,9.806337,-0.001218,-0.001252,-0.001595,4.08,-16.8,-25.08,193.7961,0.1409,-0.4344,55.813915,37.500175,190.8462,NaN,0.0,16.0,,19 / 23,,1200,2021-05-01 19:30:10:134
0.086194,-0.019154,9.771035,0.074734,-0.023439,9.806337,-6.07E-4,-0.003084,-3.73E-4,3.66,-16.86,-24.6,193.7961,0.1409,-0.4344,55.813915,37.500175,190.8462,NaN,0.0,16.0,,19 / 23,,1210,2021-05-01 19:30:10:144
0.086194,-0.019154,9.771035,0.074734,-0.023439,9.806337,-6.07E-4,-3.0E-5,-0.001595,3.66,-16.86,-24.6,193.7961,0.1409,-0.4344,55.813915,37.500175,190.8462,NaN,0.0,16.0,,19 / 23,,1221,2021-05-01 19:30:10:155
0.074223,-0.028731,9.768641,0.075233,-0.022693,9.806335,-0.001829,5.81E-4,-0.002206,3.36,-16.26,-24.6,191.2362,0.1369,-0.4366,55.813915,37.500175,190.8462,NaN,0.0,16.0,,19 / 23,,1230,2021-05-01 19:30:10:164
0.086194,-0.01676,9.792584,0.075233,-0.022693,9.806335,-6.07E-4,0.001192,2.38E-4,3.36,-16.26,-24.6,191.2362,0.1369,-0.4366,55.813915,37.500175,190.8462,NaN,0.0,16.0,,19 / 23,,1241,2021-05-01 19:30:10:175
0.086194,-0.01676,9.792584,0.075594,-0.02216,9.806334,0.002447,-0.002473,-3.73E-4,3.42,-16.98,-24.96,191.2362,0.1369,-0.4366,55.813915,37.500175,190.8462,NaN,0.0,16.0,,19 / 23,,1250,2021-05-01 19:30:10:184
0.076617,-0.031126,9.754275,0.075594,-0.02216,9.806334,4.0E-6,-0.002473,-0.001595,3.42,-16.98,-24.96,191.2362,0.1369,-0.4366,55.813915,37.500175,190.8462,NaN,0.0,16.0,,19 / 23,,1260,2021-05-01 19:30:10:194
0.081405,-0.009577,9.79019,0.076093,-0.02193,9.806331,0.001836,5.81E-4,8.48E-4,2.88,-17.64,-24.78,190.0271,0.1295,-0.4417,55.813915,37.500175,190.8462,NaN,0.0,16.0,,19 / 23,,1271,2021-05-01 19:30:10:205
0.074223,-0.011971,9.787795,0.076093,-0.02193,9.806331,4.0E-6,5.81E-4,0.00207,2.88,-17.64,-24.78,190.0271,0.1295,-0.4417,55.813915,37.500175,190.8462,NaN,0.0,16.0,,19 / 23,,1281,2021-05-01 19:30:10:215
0.071828,-0.023943,9.785401,0.076092,-0.021973,9.806331,6.15E-4,-6.41E-4,-3.73E-4,2.7,-17.88,-24.9,190.0271,0.1295,-0.4417,55.813915,37.500175,190.8462,NaN,0.0,16.0,,19 / 23,,1297,2021-05-01 19:30:10:231
0.071828,-0.023943,9.785401,0.076092,-0.021973,9.806331,6.15E-4,-6.41E-4,-3.73E-4,2.7,-17.88,-24.9,190.0271,0.1295,-0.4417,55.813915,37.500175,190.8462,NaN,0.0,16.0,,19 / 23,,1301,2021-05-01 19:30:10:235
0.071828,-0.040703,9.785401,0.075806,-0.022385,9.806332,-0.00244,-3.0E-5,0.00207,3.36,-17.76,-25.14,190.0312,0.1284,-0.4446,55.813915,37.500175,190.8462,NaN,0.0,16.0,,19 / 23,,1311,2021-05-01 19:30:10:245
0.071828,-0.040703,9.785401,0.075806,-0.022385,9.806332,-0.00244,-3.0E-5,0.00207,3.36,-17.76,-25.14,190.0312,0.1284,-0.4446,55.813915,37.500175,190.8462,NaN,0.0,16.0,,19 / 23,,1321,2021-05-01 19:30:10:255
0.074223,-0.019154,9.787795,0.07536,-0.023624,9.806333,6.15E-4,5.81E-4,-9.84E-4,3.84,-17.04,-25.32,190.0312,0.1284,-0.4446,55.813915,37.500175,190.8462,NaN,0.0,16.0,,19 / 23,,1330,2021-05-01 19:30:10:264
0.074223,-0.019154,9.787795,0.07536,-0.023624,9.806333,-0.001218,-6.41E-4,-9.84E-4,3.84,-17.04,-25.32,190.0312,0.1284,-0.4446,55.813915,37.500175,190.8462,NaN,0.0,16.0,,19 / 23,,1340,2021-05-01 19:30:10:274
0.074223,-0.031126,9.759064,0.074826,-0.024387,9.806334,-6.07E-4,-0.001252,2.38E-4,3.72,-16.8,-24.96,190.0312,0.1284,-0.4446,55.813915,37.500175,190.8462,NaN,0.0,16.0,,19 / 23,,1351,2021-05-01 19:30:10:285
0.069434,-0.019154,9.794978,0.074769,-0.025297,9.806333,-0.003051,-0.002473,8.48E-4,3.48,-16.98,-24.9,190.5922,0.1425,-0.4372,55.813915,37.500175,190.8462,NaN,0.0,16.0,,19 / 23,,1361,2021-05-01 19:30:10:295
0.069434,-0.019154,9.794978,0.074769,-0.025297,9.806333,0.001225,-0.001863,2.38E-4,3.48,-16.98,-24.9,190.5922,0.1425,-0.4372,55.813915,37.500175,190.8462,NaN,0.0,16.0,,19 / 23,,1373,2021-05-01 19:30:10:307
0.093377,-0.014366,9.77343,0.075201,-0.025487,9.806329,-0.001218,-3.0E-5,-0.004038,3.0,-16.98,-24.24,190.5922,0.1425,-0.4372,55.813915,37.500175,190.8462,NaN,0.0,16.0,,19 / 23,,1380,2021-05-01 19:30:10:314
0.093377,-0.014366,9.77343,0.075201,-0.025487,9.806329,-0.001218,-3.0E-5,-0.004038,3.0,-16.98,-24.24,190.5922,0.1425,-0.4372,55.813915,37.500175,190.8462,NaN,0.0,16.0,,19 / 23,,1390,2021-05-01 19:30:10:324
0.071828,-0.021548,9.799767,0.074905,-0.025169,9.806333,-0.001218,0.002414,-9.84E-4,2.88,-17.1,-24.84,190.5936,0.1489,-0.4394,55.813915,37.500175,190.8462,NaN,0.0,16.0,,19 / 23,,1400,2021-05-01 19:30:10:334
0.086194,-0.023943,9.804555,0.074905,-0.025169,9.806333,6.15E-4,0.001803,0.00207,2.88,-17.1,-24.84,190.5936,0.1489,-0.4394,55.813915,37.500175,190.8462,NaN,0.0,16.0,,19 / 23,,1410,2021-05-01 19:30:10:344
0.081405,-0.011971,9.768641,0.075143,-0.025125,9.80633,4.0E-6,5.81E-4,-0.001595,3.24,-17.22,-24.96,190.5936,0.1489,-0.4394,55.813915,37.500175,190.8462,NaN,0.0,16.0,,19 / 23,,1420,2021-05-01 19:30:10:354
0.086194,-0.043097,9.787795,0.075143,-0.025125,9.80633,-6.07E-4,-0.001252,2.38E-4,3.24,-17.22,-24.96,190.5936,0.1489,-0.4394,55.813915,37.500175,190.8462,NaN,0.0,16.0,,19 / 23,,1430,2021-05-01 19:30:10:364
0.086194,-0.043097,9.787795,0.075343,-0.025184,9.806329,-6.07E-4,-0.001252,2.38E-4,3.42,-17.4,-24.66,190.5937,0.1468,-0.439,55.813915,37.500175,190.8462,NaN,0.0,16.0,,19 / 23,,1440,2021-05-01 19:30:10:374
0.079011,-0.031126,9.768641,0.075343,-0.025184,9.806329,-0.001829,-3.0E-5,0.001459,3.42,-17.4,-24.66,190.5937,0.1468,-0.439,55.813915,37.500175,190.8462,NaN,0.0,16.0,,19 / 23,,1450,2021-05-01 19:30:10:384
0.071828,-0.021548,9.73991,0.075661,-0.025405,9.806326,4.0E-6,0.001803,-0.001595,2.7,-17.28,-24.72,190.5937,0.1468,-0.439,55.813915,37.500175,190.8462,NaN,0.0,16.0,,19 / 23,,1460,2021-05-01 19:30:10:394
0.071828,-0.021548,9.73991,0.075661,-0.025405,9.806326,-0.001218,5.81E-4,2.38E-4,2.7,-17.28,-24.72,190.5937,0.1468,-0.439,55.813915,37.500175,190.8462,NaN,0.0,16.0,,19 / 23,,1470,2021-05-01 19:30:10:404
0.079011,-0.019154,9.785401,0.075604,-0.025517,9.806326,-0.001218,-0.001863,-3.73E-4,2.94,-16.8,-25.02,190.5975,0.1484,-0.4421,55.813915,37.500175,190.8462,NaN,0.0,16.0,,19 / 23,,1481,2021-05-01 19:30:10:415
0.098165,-0.011971,9.763853,0.075604,-0.025517,9.806326,-6.07E-4,-3.0E-5,8.48E-4,2.94,-16.8,-25.02,190.5975,0.1484,-0.4421,55.813915,37.500175,190.8462,NaN,0.0,16.0,,19 / 23,,1491,2021-05-01 19:30:10:425
0.098165,-0.011971,9.763853,0.075255,-0.025461,9.806329,6.15E-4,-0.002473,8.48E-4,3.24,-16.98,-24.9,190.5975,0.1484,-0.4421,55.813915,37.500175,190.8462,NaN,0.0,16.0,,19 / 23,,1500,2021-05-01 19:30:10:434
0.079011,-0.014366,9.787795,0.075086,-0.02528,9.80633,-6.07E-4,-0.003084,-0.002206,2.94,-16.68,-24.84,190.5975,0.1484,-0.4421,55.813915,37.500175,190.8462,NaN,0.0,16.0,,19 / 23,,1511,2021-05-01 19:30:10:445
0.081405,-0.031126,9.771035,0.075086,-0.02528,9.80633,-6.07E-4,-6.41E-4,0.003292,2.94,-16.68,-24.84,190.5975,0.1484,-0.4421,55.813915,37.500175,190.8462,NaN,0.0,16.0,,19 / 23,,1521,2021-05-01 19:30:10:455
0.081405,-0.031126,9.771035,0.075568,-0.025576,9.806326,-0.001218,0.001192,2.38E-4,3.12,-16.86,-24.72,190.593,0.1477,-0.4387,55.813915,37.500175,190.8462,NaN,0.0,16.0,,19 / 23,,1531,2021-05-01 19:30:10:465
0.06704,-0.023943,9.785401,0.075568,-0.025576,9.806326,-0.001218,0.001192,2.38E-4,3.12,-16.86,-24.72,190.593,0.1477,-0.4387,55.813915,37.500175,190.8462,NaN,0.0,16.0,,19 / 23,,1541,2021-05-01 19:30:10:475
0.06704,-0.026337,9.77343,0.075515,-0.02532,9.806327,-0.001829,5.81E-4,-9.84E-4,3.36,-17.46,-24.54,190.593,0.1477,-0.4387,55.813915,37.500175,190.8462,NaN,0.0,16.0,,19 / 23,,1551,2021-05-01 19:30:10:485
0.090982,-0.011971,9.775824,0.075447,-0.025263,9.806328,6.15E-4,-3.0E-5,2.38E-4,3.36,-17.46,-24.48,190.593,0.1477,-0.4387,55.813915,37.500175,190.8462,NaN,0.0,16.0,,19 / 23,,1560,2021-05-01 19:30:10:494
0.074223,-0.021548,9.742304,0.075447,-0.025263,9.806328,-6.07E-4,0.001192,-9.84E-4,3.36,-17.46,-24.48,190.593,0.1477,-0.4387,55.813915,37.500175,190.8462,NaN,0.0,16.0,,19 / 23,,1571,2021-05-01 19:30:10:505
0.074223,-0.021548,9.742304,0.075307,-0.024723,9.80633,-0.001829,-0.004306,-3.73E-4,3.06,-17.7,-25.32,190.0216,0.1476,-0.4408,55.813915,37.500175,190.8462,NaN,0.0,16.0,,19 / 23,,1580,2021-05-01 19:30:10:514
0.0838,-0.023943,9.754275,0.075307,-0.024723,9.80633,-0.001829,-0.004306,-3.73E-4,3.06,-17.7,-25.32,190.0216,0.1476,-0.4408,55.813915,37.500175,190.8462,NaN,0.0,16.0,,19 / 23,,1590,2021-05-01 19:30:10:524
0.076617,-0.038308,9.775824,0.075553,-0.024977,9.806328,-0.003051,-0.002473,-3.73E-4,3.0,-17.34,-25.32,190.0216,0.1476,-0.4408,55.813915,37.500175,190.8462,NaN,0.0,16.0,,19 / 23,,1600,2021-05-01 19:30:10:534
0.074223,-0.023943,9.771035,0.075677,-0.024963,9.806326,4.0E-6,-3.0E-5,-3.73E-4,2.88,-17.58,-25.32,190.0216,0.1476,-0.4408,55.813915,37.500175,190.8462,NaN,0.0,16.0,,19 / 23,,1610,2021-05-01 19:30:10:544
0.074223,-0.023943,9.771035,0.075677,-0.024963,9.806326,6.15E-4,5.81E-4,0.00207,2.88,-17.58,-25.32,190.0216,0.1476,-0.4408,55.813915,37.500175,190.8462,NaN,0.0,16.0,,19 / 23,,1621,2021-05-01 19:30:10:555
0.086194,-0.028731,9.792584,0.074606,-0.025217,9.806334,0.001836,0.003024,-0.001595,2.76,-17.1,-25.44,190.5983,0.1458,-0.4421,55.813915,37.500175,190.8462,NaN,0.0,16.0,,19 / 23,,1630,2021-05-01 19:30:10:564
0.086194,-0.028731,9.792584,0.074606,-0.025217,9.806334,0.001836,0.003024,-0.001595,2.76,-17.1,-25.44,190.5983,0.1458,-0.4421,55.813915,37.500175,190.8462,NaN,0.0,16.0,,19 / 23,,1641,2021-05-01 19:30:10:575
0.081405,-0.026337,9.785401,0.073824,-0.025252,9.80634,-6.07E-4,-0.001863,-3.73E-4,3.06,-17.34,-25.14,190.5983,0.1458,-0.4421,55.813915,37.500175,190.8462,NaN,0.0,16.0,,19 / 23,,1651,2021-05-01 19:30:10:585
0.090982,-0.03352,9.766247,0.073448,-0.025187,9.806343,4.0E-6,0.004246,-0.002206,2.94,-17.4,-25.2,190.5983,0.1458,-0.4421,55.813915,37.500175,190.8462,NaN,0.0,16.0,,19 / 23,,1660,2021-05-01 19:30:10:594
0.090982,-0.03352,9.766247,0.073448,-0.025187,9.806343,0.002447,5.81E-4,0.002681,2.94,-17.4,-25.2,190.5983,0.1458,-0.4421,55.813915,37.500175,190.8462,NaN,0.0,16.0,,19 / 23,,1671,2021-05-01 19:30:10:605
0.064645,-0.019154,9.77343,0.072988,-0.025311,9.806346,6.15E-4,-0.002473,0.00207,3.6,-17.1,-24.96,193.7867,0.1472,-0.4291,55.813915,37.500175,190.8462,NaN,0.0,16.0,,19 / 23,,1681,2021-05-01 19:30:10:615
0.076617,-0.035914,9.75667,0.072988,-0.025311,9.806346,-0.001218,-3.0E-5,0.001459,3.6,-17.1,-24.96,193.7867,0.1472,-0.4291,55.813915,37.500175,190.8462,NaN,0.0,16.0,,19 / 23,,1692,2021-05-01 19:30:10:626
0.076617,-0.035914,9.75667,0.0733,-0.025189,9.806344,-0.001218,-3.0E-5,0.001459,3.42,-16.98,-25.08,193.7867,0.1472,-0.4291,55.813915,37.500175,190.8462,NaN,0.0,16.0,,19 / 23,,1701,2021-05-01 19:30:10:635
0.074223,-0.004789,9.771035,0.073286,-0.025066,9.806344,4.0E-6,-3.0E-5,0.001459,2.88,-17.04,-25.5,193.7867,0.1472,-0.4291,55.813915,37.500175,190.8462,NaN,0.0,16.0,,19 / 23,,1711,2021-05-01 19:30:10:645
0.0838,-0.023943,9.75667,0.073286,-0.025066,9.806344,-0.00244,5.81E-4,-0.002817,2.88,-17.04,-25.5,193.7867,0.1472,-0.4291,55.813915,37.500175,190.8462,NaN,0.0,16.0,,19 / 23,,1722,2021-05-01 19:30:10:656
0.076617,-0.021548,9.775824,0.072711,-0.024424,9.806351,4.0E-6,0.001192,-0.001595,2.94,-17.22,-24.66,190.5784,0.1465,-0.4282,55.813915,37.500175,190.8462,NaN,0.0,16.0,,19 / 23,,1747,2021-05-01 19:30:10:681
0.076617,-0.021548,9.775824,0.072711,-0.024424,9.806351,4.0E-6,0.001192,-0.001595,2.94,-17.22,-24.66,190.5784,0.1465,-0.4282,55.813915,37.500175,190.8462,NaN,0.0,16.0,,19 / 23,,1748,2021-05-01 19:30:10:682
0.076617,-0.021548,9.775824,0.072711,-0.024424,9.806351,4.0E-6,0.001192,-0.001595,2.94,-17.22,-24.66,190.5784,0.1465,-0.4282,55.813915,37.500175,190.8462,NaN,0.0,16.0,,19 / 23,,1750,2021-05-01 19:30:10:684
0.076617,-0.021548,9.775824,0.072711,-0.024424,9.806351,4.0E-6,0.001192,-0.001595,2.94,-17.22,-24.66,190.5784,0.1465,-0.4282,55.813915,37.500175,190.8462,NaN,0.0,16.0,,19 / 23,,1760,2021-05-01 19:30:10:694
0.076617,-0.021548,9.766247,0.072768,-0.02455,9.806349,6.15E-4,-0.001252,8.48E-4,2.94,-17.34,-24.6,190.5747,0.1427,-0.4248,55.813915,37.500175,190.8462,NaN,0.0,16.0,,19 / 23,,1770,2021-05-01 19:30:10:704
0.064645,-0.01676,9.771035,0.072768,-0.02455,9.806349,-0.001218,-0.001252,-9.84E-4,2.94,-17.34,-24.6,190.5747,0.1427,-0.4248,55.813915,37.500175,190.8462,NaN,0.0,16.0,,19 / 23,,1780,2021-05-01 19:30:10:714
0.057463,-0.014366,9.792584,0.072952,-0.024293,9.806349,6.15E-4,-0.002473,2.38E-4,3.06,-17.1,-24.6,190.5747,0.1427,-0.4248,55.813915,37.500175,190.8462,NaN,0.0,16.0,,19 / 23,,1791,2021-05-01 19:30:10:725
0.057463,-0.014366,9.792584,0.072773,-0.024417,9.80635,4.0E-6,-0.003084,-0.001595,3.0,-17.04,-24.78,190.5747,0.1427,-0.4248,55.813915,37.500175,190.8462,NaN,0.0,16.0,,19 / 23,,1801,2021-05-01 19:30:10:735
0.057463,-0.014366,9.792584,0.072773,-0.024417,9.80635,4.0E-6,-0.003084,-0.001595,3.0,-17.04,-24.78,190.5747,0.1427,-0.4248,55.813915,37.500175,190.8462,NaN,0.0,16.0,,19 / 23,,1811,2021-05-01 19:30:10:745
0.086194,-0.035914,9.751882,0.072647,-0.024237,9.806351,0.002447,0.001192,2.38E-4,2.76,-17.22,-24.42,190.5526,0.1427,-0.4252,55.813915,37.500175,190.8462,NaN,0.0,16.0,,19 / 23,,1821,2021-05-01 19:30:10:755
0.059857,-0.045491,9.749487,0.072647,-0.024237,9.806351,4.0E-6,-0.002473,-0.002817,2.76,-17.22,-24.42,190.5526,0.1427,-0.4252,55.813915,37.500175,190.8462,NaN,0.0,16.0,,19 / 23,,1830,2021-05-01 19:30:10:764
0.093377,-0.028731,9.749487,0.072465,-0.023932,9.806354,-0.001218,5.81E-4,-3.73E-4,3.0,-16.8,-24.66,190.5526,0.1427,-0.4252,55.813915,37.500175,190.8462,NaN,0.0,16.0,,19 / 23,,1840,2021-05-01 19:30:10:774
0.093377,-0.028731,9.749487,0.072465,-0.023932,9.806354,-0.001218,0.001192,-0.001595,3.0,-16.8,-24.66,190.5526,0.1427,-0.4252,55.813915,37.500175,190.8462,NaN,0.0,16.0,,19 / 23,,1851,2021-05-01 19:30:10:785
0.093377,-0.026337,9.778218,0.07289,-0.025138,9.806348,-6.07E-4,5.81E-4,-3.73E-4,3.18,-16.74,-24.3,190.5509,0.1398,-0.4234,55.813915,37.500175,190.8462,NaN,0.0,16.0,,19 / 23,,1861,2021-05-01 19:30:10:795
0.093377,-0.026337,9.778218,0.07289,-0.025138,9.806348,-0.001218,-0.003695,0.002681,3.18,-16.74,-24.3,190.5509,0.1398,-0.4234,55.813915,37.500175,190.8462,NaN,0.0,16.0,,19 / 23,,1872,2021-05-01 19:30:10:806
0.074223,-0.026337,9.780613,0.073252,-0.025597,9.806343,-0.001218,-3.0E-5,-0.002206,2.88,-16.62,-24.78,190.5509,0.1398,-0.4234,55.813915,37.500175,190.8462,NaN,0.0,16.0,,18 / 23,,1880,2021-05-01 19:30:10:814
0.074223,-0.026337,9.780613,0.073252,-0.025597,9.806343,-0.001218,-3.0E-5,-0.002206,2.88,-16.62,-24.78,190.5509,0.1398,-0.4234,55.813915,37.500175,190.8462,NaN,0.0,16.0,,18 / 23,,1890,2021-05-01 19:30:10:824
0.088588,-0.035914,9.775824,0.073743,-0.025868,9.806338,-0.001218,5.81E-4,-3.73E-4,3.18,-16.5,-25.2,190.5509,0.1398,-0.4234,55.813915,37.500175,190.8462,NaN,0.0,16.0,,18 / 23,,1900,2021-05-01 19:30:10:834
0.069434,-0.021548,9.763853,0.073743,-0.025868,9.806338,-6.07E-4,-0.005528,0.001459,3.18,-16.5,-25.2,190.5509,0.1398,-0.4234,55.813915,37.500175,190.8462,NaN,0.0,16.0,,18 / 23,,1911,2021-05-01 19:30:10:845
0.081405,-0.023943,9.768641,0.07315,-0.025752,9.806344,-0.001829,0.001192,-3.73E-4,3.54,-16.98,-25.2,193.7877,0.1511,-0.4309,55.813915,37.500175,190.8462,NaN,0.0,16.0,,18 / 23,,1920,2021-05-01 19:30:10:854
0.069434,-0.028731,9.794978,0.07315,-0.025752,9.806344,-0.001218,-3.0E-5,0.002681,3.54,-16.98,-25.2,193.7877,0.1511,-0.4309,55.813915,37.500175,190.8462,NaN,0.0,16.0,,18 / 23,,1930,2021-05-01 19:30:10:864
0.081405,-0.026337,9.775824,0.07336,-0.025505,9.806343,0.001225,-0.003695,-0.001595,2.76,-17.22,-24.78,193.7877,0.1511,-0.4309,55.813915,37.500175,190.8462,NaN,0.0,16.0,,18 / 23,,1941,2021-05-01 19:30:10:875
0.081405,-0.026337,9.775824,0.07336,-0.025505,9.806343,6.15E-4,5.81E-4,8.48E-4,2.76,-17.22,-24.78,193.7877,0.1511,-0.4309,55.813915,37.500175,190.8462,NaN,0.0,16.0,,18 / 23,,1950,2021-05-01 19:30:10:884
0.071828,-0.011971,9.761458,0.074254,-0.025289,9.806336,6.15E-4,-0.002473,0.002681,2.4,-17.22,-24.54,187.303,0.149,-0.4286,55.813915,37.500175,190.8462,NaN,0.0,16.0,,18 / 23,,1961,2021-05-01 19:30:10:895
0.093377,-0.011971,9.783007,0.074254,-0.025289,9.806336,-0.001218,-0.002473,-9.84E-4,2.4,-17.22,-24.54,187.303,0.149,-0.4286,55.813915,37.500175,190.8462,NaN,0.0,16.0,,18 / 23,,1971,2021-05-01 19:30:10:905
0.06704,-0.026337,9.768641,0.075294,-0.025158,9.806329,0.001225,0.001803,8.48E-4,2.88,-17.34,-24.9,187.303,0.149,-0.4286,55.813915,37.500175,190.8462,NaN,0.0,16.0,,18 / 23,,1980,2021-05-01 19:30:10:914
0.06704,-0.026337,9.768641,0.075294,-0.025158,9.806329,-6.07E-4,5.81E-4,8.48E-4,2.88,-17.34,-24.9,187.303,0.149,-0.4286,55.813915,37.500175,190.8462,NaN,0.0,16.0,,18 / 23,,1990,2021-05-01 19:30:10:924
0.069434,-0.045491,9.77343,0.075226,-0.025339,9.806329,4.0E-6,-0.003084,8.48E-4,3.24,-17.1,-24.84,190.5949,0.147,-0.4399,55.813915,37.500175,190.8462,NaN,0.0,16.0,,18 / 23,,2000,2021-05-01 19:30:10:934
0.057463,-0.021548,9.725544,0.075226,-0.025339,9.806329,0.001225,5.81E-4,2.38E-4,3.24,-17.1,-24.84,190.5949,0.147,-0.4399,55.813915,37.500175,190.8462,NaN,0.0,16.0,,18 / 23,,2010,2021-05-01 19:30:10:944
0.076617,-0.03352,9.778218,0.07551,-0.02577,9.806326,-0.001218,0.001192,8.48E-4,3.3,-16.92,-23.94,190.5949,0.147,-0.4399,55.813915,37.500175,190.8462,NaN,0.0,16.0,,18 / 23,,2020,2021-05-01 19:30:10:954
0.076617,-0.03352,9.778218,0.07551,-0.02577,9.806326,4.0E-6,-6.41E-4,2.38E-4,3.3,-16.92,-23.94,190.5949,0.147,-0.4399,55.813915,37.500175,190.8462,NaN,0.0,16.0,,18 / 23,,2030,2021-05-01 19:30:10:964
0.074223,-0.011971,9.792584,0.075378,-0.026564,9.806325,4.0E-6,-3.0E-5,-0.001595,3.54,-17.22,-24.06,193.7798,0.1506,-0.4412,55.813915,37.500175,190.8462,NaN,0.0,16.0,,18 / 23,,2040,2021-05-01 19:30:10:974
0.079011,-0.01676,9.809344,0.075378,-0.026564,9.806325,6.15E-4,0.001803,0.00207,3.54,-17.22,-24.06,193.7798,0.1506,-0.4412,55.813915,37.500175,190.8462,NaN,0.0,16.0,,18 / 23,,2051,2021-05-01 19:30:10:985
0.074223,-0.019154,9.763853,0.075666,-0.026864,9.806322,-6.07E-4,0.002414,-9.84E-4,4.02,-17.1,-25.2,193.7798,0.1506,-0.4412,55.813915,37.500175,190.8462,NaN,0.0,16.0,,18 / 23,,2060,2021-05-01 19:30:10:994
0.074223,-0.019154,9.763853,0.075666,-0.026864,9.806322,0.001836,-6.41E-4,0.001459,4.02,-17.1,-25.2,193.7798,0.1506,-0.4412,55.813915,37.500175,190.8462,NaN,0.0,16.0,,18 / 23,,2070,2021-05-01 19:30:11:004
0.079011,-0.038308,9.766247,0.075747,-0.026807,9.806321,-6.07E-4,-6.41E-4,-3.73E-4,3.3,-17.58,-25.02,190.0211,0.157,-0.4421,55.813915,37.500175,190.8462,NaN,0.0,16.0,,18 / 23,,2080,2021-05-01 19:30:11:014
0.074223,-0.019154,9.775824,0.075747,-0.026807,9.806321,-6.07E-4,-6.41E-4,-3.73E-4,3.3,-17.58,-25.02,190.0211,0.157,-0.4421,55.813915,37.500175,190.8462,NaN,0.0,16.0,,18 / 23,,2090,2021-05-01 19:30:11:024
0.062251,-0.01676,9.77343,0.075616,-0.027039,9.806322,0.001836,5.81E-4,-3.73E-4,2.64,-17.64,-25.02,190.0211,0.157,-0.4421,55.813915,37.500175,190.8462,NaN,0.0,16.0,,18 / 23,,2100,2021-05-01 19:30:11:034
0.074223,-0.021548,9.77343,0.075616,-0.027039,9.806322,0.001836,0.002414,-0.001595,2.64,-17.64,-25.02,190.0211,0.157,-0.4421,55.813915,37.500175,190.8462,NaN,0.0,16.0,,18 / 23,,2110,2021-05-01 19:30:11:044
0.074223,-0.021548,9.77343,0.075629,-0.026924,9.806321,-0.001218,-3.0E-5,8.48E-4,2.76,-17.82,-25.38,190.0205,0.158,-0.4418,55.813915,37.500175,190.8462,NaN,0.0,16.0,,18 / 23,,2121,2021-05-01 19:30:11:055
0.064645,-0.03352,9.787795,0.075629,-0.026924,9.806321,0.001836,0.001192,8.48E-4,2.76,-17.82,-25.38,190.0205,0.158,-0.4418,55.813915,37.500175,190.8462,NaN,0.0,16.0,,18 / 23,,2130,2021-05-01 19:30:11:064
0.064645,-0.03352,9.787795,0.075517,-0.026868,9.806322,6.15E-4,5.81E-4,-3.73E-4,3.06,-18.06,-25.68,190.0205,0.158,-0.4418,55.813915,37.500175,190.8462,NaN,0.0,16.0,,18 / 23,,2140,2021-05-01 19:30:11:074
0.071828,-0.023943,9.787795,0.075253,-0.026623,9.806326,0.003669,5.81E-4,8.48E-4,3.42,-18.0,-25.68,190.0205,0.158,-0.4418,55.813915,37.500175,190.8462,NaN,0.0,16.0,,18 / 23,,2150,2021-05-01 19:30:11:084
0.074223,-0.03352,9.749487,0.075253,-0.026623,9.806326,0.001225,5.81E-4,2.38E-4,3.42,-18.0,-25.68,190.0205,0.158,-0.4418,55.813915,37.500175,190.8462,NaN,0.0,16.0,,18 / 23,,2160,2021-05-01 19:30:11:094
0.095771,-0.021548,9.768641,0.074991,-0.026571,9.806328,0.001225,5.81E-4,2.38E-4,3.36,-17.76,-24.48,189.9961,0.1555,-0.4397,55.813915,37.500175,190.8462,NaN,0.0,16.0,,18 / 23,,2170,2021-05-01 19:30:11:104
0.074223,-0.011971,9.759064,0.074747,-0.02651,9.80633,-6.07E-4,-0.001252,2.38E-4,3.6,-18.12,-24.24,189.9961,0.1555,-0.4397,55.813915,37.500175,190.8462,NaN,0.0,16.0,,18 / 23,,2180,2021-05-01 19:30:11:114
0.074223,-0.011971,9.759064,0.074747,-0.02651,9.80633,4.0E-6,-6.41E-4,-9.84E-4,3.6,-18.12,-24.24,189.9961,0.1555,-0.4397,55.813915,37.500175,190.8462,NaN,0.0,16.0,,18 / 23,,2191,2021-05-01 19:30:11:125
0.076617,-0.019154,9.75667,0.074699,-0.026641,9.80633,-0.001829,-3.0E-5,0.003292,3.06,-17.7,-24.96,189.9961,0.1555,-0.4397,55.813915,37.500175,190.8462,NaN,0.0,16.0,,18 / 23,,2200,2021-05-01 19:30:11:134
0.074223,-0.023943,9.75667,0.074699,-0.026641,9.80633,-0.001218,0.001803,-0.002206,3.06,-17.7,-24.96,189.9961,0.1555,-0.4397,55.813915,37.500175,190.8462,NaN,0.0,16.0,,18 / 23,,2211,2021-05-01 19:30:11:145
0.069434,-0.035914,9.761458,0.074403,-0.025805,9.806334,0.003058,0.001803,0.001459,2.46,-17.88,-24.9,186.9123,0.1556,-0.4364,55.813915,37.500175,190.8462,NaN,0.0,16.0,,18 / 23,,2221,2021-05-01 19:30:11:155
0.069434,-0.035914,9.761458,0.07422,-0.025501,9.806336,0.001225,5.81E-4,0.005735,3.0,-18.12,-24.78,186.9123,0.1556,-0.4364,55.813915,37.500175,190.8462,NaN,0.0,16.0,,18 / 23,,2230,2021-05-01 19:30:11:164
0.079011,-0.023943,9.77343,0.07422,-0.025501,9.806336,0.001225,-6.41E-4,0.001459,3.0,-18.12,-24.78,186.9123,0.1556,-0.4364,55.813915,37.500175,190.8462,NaN,0.0,16.0,,18 / 23,,2241,2021-05-01 19:30:11:175
0.06704,-0.03352,9.730332,0.074045,-0.025453,9.806338,0.001836,-6.41E-4,0.003292,2.88,-17.76,-24.54,186.9123,0.1556,-0.4364,55.813915,37.500175,190.8462,NaN,0.0,16.0,,18 / 23,,2251,2021-05-01 19:30:11:185
0.062251,-0.004789,9.768641,0.074045,-0.025453,9.806338,6.15E-4,-3.0E-5,2.38E-4,2.88,-17.76,-24.54,186.9123,0.1556,-0.4364,55.813915,37.500175,190.8462,NaN,0.0,16.0,,18 / 23,,2261,2021-05-01 19:30:11:195
0.062251,-0.004789,9.768641,0.074016,-0.024734,9.80634,6.15E-4,-0.001252,-9.84E-4,3.0,-18.0,-24.06,189.9885,0.1487,-0.4326,55.813915,37.500175,190.8462,NaN,0.0,16.0,,18 / 23,,2270,2021-05-01 19:30:11:204
0.074223,-0.031126,9.742304,0.074016,-0.024734,9.80634,6.15E-4,-3.0E-5,-9.84E-4,3.0,-18.0,-24.06,189.9885,0.1487,-0.4326,55.813915,37.500175,190.8462,NaN,0.0,16.0,,18 / 23,,2280,2021-05-01 19:30:11:214
0.071828,-0.019154,9.759064,0.074438,-0.023677,9.806339,6.15E-4,-3.0E-5,-9.84E-4,3.42,-18.54,-24.42,189.9885,0.1487,-0.4326,55.813915,37.500175,190.8462,NaN,0.0,16.0,,18 / 23,,2291,2021-05-01 19:30:11:225
0.064645,-0.021548,9.766247,0.074438,-0.023677,9.806339,0.001836,-0.001252,8.48E-4,3.42,-18.54,-24.42,189.9885,0.1487,-0.4326,55.813915,37.500175,190.8462,NaN,0.0,16.0,,18 / 23,,2300,2021-05-01 19:30:11:234
0.074223,-0.021548,9.766247,0.075242,-0.023265,9.806334,-0.001218,-0.003695,0.001459,3.72,-18.18,-24.9,193.0606,0.1383,-0.4349,55.813915,37.500175,190.8462,NaN,0.0,16.0,,18 / 23,,2310,2021-05-01 19:30:11:244
0.074223,-0.021548,9.766247,0.075242,-0.023265,9.806334,4.0E-6,-0.001252,-3.73E-4,3.72,-18.18,-24.9,193.0606,0.1383,-0.4349,55.813915,37.500175,190.8462,NaN,0.0,16.0,,18 / 23,,2320,2021-05-01 19:30:11:254
0.064645,-0.031126,9.73991,0.074799,-0.023382,9.806336,-0.001218,0.001803,0.003292,3.66,-18.48,-24.42,193.0606,0.1383,-0.4349,55.813915,37.500175,190.8462,NaN,0.0,16.0,,18 / 23,,2330,2021-05-01 19:30:11:264
0.069434,-0.023943,9.759064,0.074799,-0.023382,9.806336,0.001225,0.001192,-0.001595,3.66,-18.48,-24.42,193.0606,0.1383,-0.4349,55.813915,37.500175,190.8462,NaN,0.0,16.0,,18 / 23,,2341,2021-05-01 19:30:11:275
0.069434,-0.023943,9.759064,0.075067,-0.023778,9.806334,-0.001829,-3.0E-5,-3.73E-4,3.0,-18.66,-24.36,189.4822,0.1366,-0.437,55.813915,37.500175,190.8462,NaN,0.0,16.0,,18 / 23,,2350,2021-05-01 19:30:11:284
0.079011,-0.009577,9.744699,0.075067,-0.023778,9.806334,-0.001218,-0.003084,2.38E-4,3.0,-18.66,-24.36,189.4822,0.1366,-0.437,55.813915,37.500175,190.8462,NaN,0.0,16.0,,18 / 23,,2360,2021-05-01 19:30:11:294
0.062251,-0.019154,9.747093,0.074731,-0.023845,9.806336,0.001225,0.001192,0.001459,2.52,-17.76,-25.74,189.4822,0.1366,-0.437,55.813915,37.500175,190.8462,NaN,0.0,16.0,,18 / 23,,2370,2021-05-01 19:30:11:304
0.074223,-0.023943,9.766247,0.074613,-0.023963,9.806336,0.002447,0.002414,0.001459,3.06,-17.64,-25.44,190.018,0.1393,-0.4366,55.813915,37.500175,190.8462,NaN,0.0,16.0,,18 / 23,,2380,2021-05-01 19:30:11:314
0.074223,-0.023943,9.766247,0.074613,-0.023963,9.806336,0.002447,0.002414,0.001459,3.06,-17.64,-25.44,190.018,0.1393,-0.4366,55.813915,37.500175,190.8462,NaN,0.0,16.0,,18 / 23,,2390,2021-05-01 19:30:11:324
0.081405,-0.03352,9.749487,0.074327,-0.024137,9.806339,-0.001829,-3.0E-5,-0.002817,3.36,-17.52,-25.2,190.018,0.1393,-0.4366,55.813915,37.500175,190.8462,NaN,0.0,16.0,,18 / 23,,2400,2021-05-01 19:30:11:334
0.076617,-0.01676,9.768641,0.074327,-0.024137,9.806339,-0.00244,-0.001863,2.38E-4,3.36,-17.52,-25.2,190.018,0.1393,-0.4366,55.813915,37.500175,190.8462,NaN,0.0,16.0,,18 / 23,,2410,2021-05-01 19:30:11:344
0.081405,-0.028731,9.747093,0.074668,-0.023894,9.806336,-6.07E-4,0.001192,-9.84E-4,2.76,-17.94,-24.78,190.0144,0.141,-0.4343,55.813915,37.500175,190.8462,NaN,0.0,16.0,,18 / 23,,2420,2021-05-01 19:30:11:354
0.081405,-0.028731,9.747093,0.074524,-0.023485,9.806338,-6.07E-4,-0.001863,2.38E-4,2.7,-18.0,-24.72,190.0144,0.141,-0.4343,55.813915,37.500175,190.8462,NaN,0.0,16.0,,18 / 23,,2430,2021-05-01 19:30:11:364
0.062251,-0.043097,9.754275,0.074524,-0.023485,9.806338,4.0E-6,-6.41E-4,2.38E-4,2.7,-18.0,-24.72,190.0144,0.141,-0.4343,55.813915,37.500175,190.8462,NaN,0.0,16.0,,18 / 23,,2441,2021-05-01 19:30:11:375
0.079011,-0.019154,9.744699,0.074848,-0.022731,9.806338,-0.001218,-3.0E-5,2.38E-4,3.24,-18.06,-24.9,190.0144,0.141,-0.4343,55.813915,37.500175,190.8462,NaN,0.0,16.0,,18 / 23,,2450,2021-05-01 19:30:11:384
0.081405,-0.038308,9.754275,0.074848,-0.022731,9.806338,-0.001829,-0.002473,-3.73E-4,3.24,-18.06,-24.9,190.0144,0.141,-0.4343,55.813915,37.500175,190.8462,NaN,0.0,16.0,,18 / 23,,2460,2021-05-01 19:30:11:394
0.081405,-0.038308,9.754275,0.075284,-0.021279,9.806338,-0.001218,0.001192,-0.002206,3.18,-17.82,-24.66,190.0204,0.1328,-0.4373,55.813915,37.500175,190.8462,NaN,0.0,16.0,,18 / 23,,2470,2021-05-01 19:30:11:404
0.064645,-0.023943,9.749487,0.075284,-0.021279,9.806338,-0.001218,-3.0E-5,-9.84E-4,3.18,-17.82,-24.66,190.0204,0.1328,-0.4373,55.813915,37.500175,190.8462,NaN,0.0,16.0,,18 / 23,,2480,2021-05-01 19:30:11:414
0.074223,-0.023943,9.751882,0.075591,-0.021569,9.806335,-0.001218,-3.0E-5,-9.84E-4,3.24,-17.46,-24.6,190.0204,0.1328,-0.4373,55.813915,37.500175,190.8462,NaN,0.0,16.0,,18 / 23,,2490,2021-05-01 19:30:11:424
0.071828,-0.007183,9.768641,0.075591,-0.021569,9.806335,-6.07E-4,-6.41E-4,-3.73E-4,3.24,-17.46,-24.6,190.0204,0.1328,-0.4373,55.813915,37.500175,190.8462,NaN,0.0,16.0,,18 / 23,,2500,2021-05-01 19:30:11:434
0.079011,-0.026337,9.759064,0.076131,-0.021429,9.806331,-6.07E-4,5.81E-4,-3.73E-4,3.0,-17.4,-24.48,190.5792,0.126,-0.4416,55.813915,37.500175,190.8462,NaN,0.0,16.0,,18 / 23,,2510,2021-05-01 19:30:11:444
0.079011,-0.026337,9.759064,0.076131,-0.021429,9.806331,0.001225,-0.001252,-3.73E-4,3.0,-17.4,-24.48,190.5792,0.126,-0.4416,55.813915,37.500175,190.8462,NaN,0.0,16.0,,18 / 23,,2520,2021-05-01 19:30:11:454
0.0838,-0.021548,9.727939,0.076766,-0.02159,9.806326,6.15E-4,-3.0E-5,8.48E-4,2.76,-17.58,-23.46,190.5792,0.126,-0.4416,55.813915,37.500175,190.8462,NaN,0.0,16.0,,18 / 23,,2531,2021-05-01 19:30:11:465
0.088588,-0.021548,9.751882,0.076766,-0.02159,9.806326,-6.07E-4,0.001192,2.38E-4,2.76,-17.58,-23.46,190.5792,0.126,-0.4416,55.813915,37.500175,190.8462,NaN,0.0,16.0,,18 / 23,,2540,2021-05-01 19:30:11:474
0.06704,-0.01676,9.768641,0.076711,-0.021659,9.806326,0.001225,0.001192,-9.84E-4,2.7,-18.0,-24.24,190.0142,0.1261,-0.4485,55.813915,37.500175,190.8462,NaN,0.0,16.0,,18 / 23,,2550,2021-05-01 19:30:11:484
0.06704,-0.01676,9.768641,0.076711,-0.021659,9.806326,0.001225,-0.002473,-0.001595,2.7,-18.0,-24.24,190.0142,0.1261,-0.4485,55.813915,37.500175,190.8462,NaN,0.0,16.0,,18 / 23,,2560,2021-05-01 19:30:11:494
0.057463,-0.011971,9.75667,0.07678,-0.02195,9.806325,6.15E-4,0.001192,-3.73E-4,3.12,-18.12,-24.6,190.0142,0.1261,-0.4485,55.813915,37.500175,190.8462,NaN,0.0,16.0,,18 / 23,,2570,2021-05-01 19:30:11:504
0.0838,-0.023943,9.768641,0.076675,-0.021954,9.806326,0.001225,-6.41E-4,0.00207,2.94,-17.88,-24.66,190.0142,0.1261,-0.4485,55.813915,37.500175,190.8462,NaN,0.0,16.0,,18 / 23,,2580,2021-05-01 19:30:11:514
0.0838,-0.023943,9.768641,0.076675,-0.021954,9.806326,0.001225,-6.41E-4,0.00207,2.94,-17.88,-24.66,190.0142,0.1261,-0.4485,55.813915,37.500175,190.8462,NaN,0.0,16.0,,18 / 23,,2590,2021-05-01 19:30:11:524
0.06704,-0.021548,9.759064,0.07691,-0.021998,9.806324,4.0E-6,-0.001252,-3.73E-4,3.3,-17.58,-24.96,190.0358,0.1283,-0.448,55.813915,37.500175,190.8462,NaN,0.0,16.0,,18 / 23,,2601,2021-05-01 19:30:11:535
0.057463,-0.019154,9.754275,0.07691,-0.021998,9.806324,6.15E-4,-3.0E-5,-0.002206,3.3,-17.58,-24.96,190.0358,0.1283,-0.448,55.813915,37.500175,190.8462,NaN,0.0,16.0,,18 / 23,,2611,2021-05-01 19:30:11:545
0.079011,-0.040703,9.75667,0.07668,-0.022059,9.806326,-6.07E-4,5.81E-4,8.48E-4,3.42,-17.64,-24.9,190.0358,0.1283,-0.448,55.813915,37.500175,190.8462,NaN,0.0,16.0,,18 / 23,,2621,2021-05-01 19:30:11:555
0.090982,-0.031126,9.732727,0.076099,-0.022391,9.80633,-0.001218,-0.001252,-9.84E-4,3.18,-17.46,-24.72,190.0358,0.1283,-0.448,55.813915,37.500175,190.8462,NaN,0.0,16.0,,18 / 23,,2631,2021-05-01 19:30:11:565
0.090982,-0.031126,9.732727,0.076099,-0.022391,9.80633,-6.07E-4,0.001803,-9.84E-4,3.18,-17.46,-24.72,190.0358,0.1283,-0.448,55.813915,37.500175,190.8462,NaN,0.0,16.0,,18 / 23,,2641,2021-05-01 19:30:11:575
0.079011,-0.031126,9.735122,0.075592,-0.023358,9.806331,-0.001829,5.81E-4,-0.003428,2.88,-17.46,-24.96,190.6058,0.1308,-0.4446,55.813915,37.500175,190.8462,NaN,0.0,16.0,,18 / 23,,2651,2021-05-01 19:30:11:585
0.079011,-0.031126,9.735122,0.075592,-0.023358,9.806331,-0.001829,5.81E-4,-0.003428,2.88,-17.46,-24.96,190.6058,0.1308,-0.4446,55.813915,37.500175,190.8462,NaN,0.0,16.0,,18 / 23,,2661,2021-05-01 19:30:11:595
0.079011,-0.019154,9.75667,0.076124,-0.023997,9.806325,-0.001218,-3.0E-5,-9.84E-4,2.64,-17.58,-25.5,190.6058,0.1308,-0.4446,55.813915,37.500175,190.8462,NaN,0.0,16.0,,18 / 23,,2672,2021-05-01 19:30:11:606
0.047885,-0.035914,9.747093,0.076237,-0.02401,9.806324,6.15E-4,-0.001252,0.00207,2.82,-17.52,-24.84,190.6058,0.1308,-0.4446,55.813915,37.500175,190.8462,NaN,0.0,16.0,,18 / 23,,2681,2021-05-01 19:30:11:615
0.047885,-0.035914,9.747093,0.076237,-0.02401,9.806324,-0.00244,-0.001863,-9.84E-4,2.82,-17.52,-24.84,190.6058,0.1308,-0.4446,55.813915,37.500175,190.8462,NaN,0.0,16.0,,18 / 23,,2691,2021-05-01 19:30:11:625
0.079011,-0.038308,9.761458,0.076133,-0.023971,9.806325,-6.07E-4,5.81E-4,-3.73E-4,3.12,-16.92,-24.42,190.5807,0.1403,-0.4454,55.813915,37.500175,190.8462,NaN,0.0,16.0,,18 / 23,,2700,2021-05-01 19:30:11:634
0.064645,-0.014366,9.768641,0.076133,-0.023971,9.806325,6.15E-4,5.81E-4,8.48E-4,3.12,-16.92,-24.42,190.5807,0.1403,-0.4454,55.813915,37.500175,190.8462,NaN,0.0,16.0,,18 / 23,,2710,2021-05-01 19:30:11:644
0.076617,-0.01676,9.775824,0.075256,-0.02474,9.806331,6.15E-4,-6.41E-4,-0.002206,3.06,-17.04,-24.6,190.5807,0.1403,-0.4454,55.813915,37.500175,190.8462,NaN,0.0,16.0,,18 / 23,,2721,2021-05-01 19:30:11:655
0.076617,-0.01676,9.775824,0.075074,-0.024672,9.806332,6.15E-4,-6.41E-4,-0.002206,2.64,-17.1,-24.48,190.5807,0.1403,-0.4454,55.813915,37.500175,190.8462,NaN,0.0,16.0,,18 / 23,,2730,2021-05-01 19:30:11:664
0.081405,-0.026337,9.787795,0.075074,-0.024672,9.806332,6.15E-4,-3.0E-5,-3.73E-4,2.64,-17.1,-24.48,190.5807,0.1403,-0.4454,55.813915,37.500175,190.8462,NaN,0.0,16.0,,18 / 23,,2740,2021-05-01 19:30:11:674
0.0838,-0.007183,9.763853,0.075074,-0.02543,9.80633,0.002447,5.81E-4,2.38E-4,3.0,-17.64,-24.6,190.0195,0.1441,-0.4386,55.813915,37.500175,190.8462,NaN,0.0,16.0,,18 / 23,,2750,2021-05-01 19:30:11:684
0.0838,-0.007183,9.763853,0.075074,-0.02543,9.80633,0.002447,5.81E-4,2.38E-4,3.0,-17.64,-24.6,190.0195,0.1441,-0.4386,55.813915,37.500175,190.8462,NaN,0.0,16.0,,18 / 23,,2761,2021-05-01 19:30:11:695
0.069434,-0.03352,9.735122,0.075556,-0.025726,9.806325,-6.07E-4,-6.41E-4,-9.84E-4,3.18,-18.48,-24.9,190.0195,0.1441,-0.4386,55.813915,37.500175,190.8462,NaN,0.0,16.0,,18 / 23,,2771,2021-05-01 19:30:11:705
0.074223,-0.014366,9.747093,0.075555,-0.025769,9.806325,-6.07E-4,-3.0E-5,8.48E-4,2.94,-18.48,-24.9,190.0195,0.1441,-0.4386,55.813915,37.500175,190.8462,NaN,0.0,16.0,,18 / 23,,2780,2021-05-01 19:30:11:714
0.071828,-0.028731,9.744699,0.075555,-0.025769,9.806325,6.15E-4,5.81E-4,8.48E-4,2.94,-18.48,-24.9,190.0195,0.1441,-0.4386,55.813915,37.500175,190.8462,NaN,0.0,16.0,,18 / 23,,2790,2021-05-01 19:30:11:724
0.071828,-0.028731,9.744699,0.075357,-0.025385,9.806328,-0.001829,0.001192,8.48E-4,2.64,-17.64,-25.08,190.0218,0.1506,-0.4414,55.813915,37.500175,190.8462,NaN,0.0,16.0,,18 / 23,,2800,2021-05-01 19:30:11:734
0.074223,-0.03352,9.759064,0.075357,-0.025385,9.806328,0.001225,5.81E-4,-9.84E-4,2.64,-17.64,-25.08,190.0218,0.1506,-0.4414,55.813915,37.500175,190.8462,NaN,0.0,16.0,,18 / 23,,2811,2021-05-01 19:30:11:745
0.06704,-0.031126,9.759064,0.075123,-0.025578,9.806329,6.15E-4,-0.001252,8.48E-4,3.18,-17.1,-25.08,190.0218,0.1506,-0.4414,55.813915,37.500175,190.8462,NaN,0.0,16.0,,18 / 23,,2821,2021-05-01 19:30:11:755
0.062251,-0.01676,9.763853,0.075123,-0.025578,9.806329,-6.07E-4,-0.001863,0.002681,3.18,-17.1,-25.08,190.0218,0.1506,-0.4414,55.813915,37.500175,190.8462,NaN,0.0,16.0,,18 / 23,,2831,2021-05-01 19:30:11:765
0.076617,-0.014366,9.778218,0.074493,-0.024724,9.806336,0.001836,0.003024,2.38E-4,3.18,-17.46,-24.9,190.5928,0.1494,-0.4389,55.813915,37.500175,190.8462,NaN,0.0,16.0,,18 / 23,,2840,2021-05-01 19:30:11:774
0.076617,-0.014366,9.778218,0.074493,-0.024724,9.806336,0.001836,0.003024,2.38E-4,3.18,-17.46,-24.9,190.5928,0.1494,-0.4389,55.813915,37.500175,190.8462,NaN,0.0,16.0,,18 / 23,,2850,2021-05-01 19:30:11:784
0.076617,-0.026337,9.75667,0.074674,-0.024555,9.806335,0.002447,-0.001252,-9.84E-4,3.18,-17.4,-24.66,190.5928,0.1494,-0.4389,55.813915,37.500175,190.8462,NaN,0.0,16.0,,18 / 23,,2860,2021-05-01 19:30:11:794
0.074223,-0.011971,9.75667,0.074674,-0.024555,9.806335,0.001225,-3.0E-5,-9.84E-4,3.18,-17.4,-24.66,190.5928,0.1494,-0.4389,55.813915,37.500175,190.8462,NaN,0.0,16.0,,20 / 23,,2870,2021-05-01 19:30:11:804
0.062251,-0.023943,9.732727,0.074692,-0.024546,9.806335,6.15E-4,-6.41E-4,-0.001595,2.58,-17.52,-24.36,189.9945,0.1435,-0.4363,55.813915,37.500175,190.8462,NaN,0.0,16.0,,20 / 23,,2880,2021-05-01 19:30:11:814
0.0838,-0.014366,9.771035,0.074692,-0.024546,9.806335,-0.001829,0.002414,-3.73E-4,2.58,-17.52,-24.36,189.9945,0.1435,-0.4363,55.813915,37.500175,190.8462,NaN,0.0,16.0,,20 / 23,,2890,2021-05-01 19:30:11:824
0.071828,-0.019154,9.768641,0.07498,-0.024608,9.806333,-0.001218,-0.001252,0.001459,2.64,-17.64,-24.6,189.9945,0.1435,-0.4363,55.813915,37.500175,190.8462,NaN,0.0,16.0,,20 / 23,,2901,2021-05-01 19:30:11:835
0.071828,-0.019154,9.768641,0.07498,-0.024608,9.806333,0.001836,-0.002473,-9.84E-4,2.64,-17.64,-24.6,189.9945,0.1435,-0.4363,55.813915,37.500175,190.8462,NaN,0.0,16.0,,20 / 23,,2910,2021-05-01 19:30:11:844
0.069434,-0.026337,9.742304,0.074811,-0.024664,9.806334,0.001225,5.81E-4,0.002681,3.66,-16.98,-24.24,193.7779,0.1438,-0.4381,55.813915,37.500175,190.8462,NaN,0.0,16.0,,20 / 23,,2920,2021-05-01 19:30:11:854
0.069434,-0.031126,9.75667,0.074755,-0.024775,9.806334,0.001225,-3.0E-5,8.48E-4,3.6,-16.74,-24.36,193.7779,0.1438,-0.4381,55.813915,37.500175,190.8462,NaN,0.0,16.0,,20 / 23,,2931,2021-05-01 19:30:11:865
0.086194,-0.023943,9.747093,0.074755,-0.024775,9.806334,6.15E-4,-0.001863,-3.73E-4,3.6,-16.74,-24.36,193.7779,0.1438,-0.4381,55.813915,37.500175,190.8462,NaN,0.0,16.0,,20 / 23,,2941,2021-05-01 19:30:11:875
0.088588,-0.026337,9.79019,0.074464,-0.025081,9.806335,6.15E-4,-0.003695,8.48E-4,3.48,-16.74,-24.84,193.7779,0.1438,-0.4381,55.813915,37.500175,190.8462,NaN,0.0,16.0,,20 / 23,,2951,2021-05-01 19:30:11:885
0.088588,-0.026337,9.79019,0.074464,-0.025081,9.806335,0.001225,5.81E-4,0.001459,3.48,-16.74,-24.84,193.7779,0.1438,-0.4381,55.813915,37.500175,190.8462,NaN,0.0,16.0,,20 / 23,,2960,2021-05-01 19:30:11:894
0.074223,-0.023943,9.77343,0.074776,-0.025197,9.806333,-0.001218,-0.002473,-9.84E-4,3.42,-17.4,-25.5,190.5881,0.1465,-0.4351,55.813915,37.500175,190.8462,NaN,0.0,16.0,,20 / 23,,2971,2021-05-01 19:30:11:905
0.059857,-0.019154,9.77343,0.074776,-0.025197,9.806333,-0.001218,-0.002473,-9.84E-4,3.24,-17.4,-25.38,190.5881,0.1465,-0.4351,55.813915,37.500175,190.8462,NaN,0.0,16.0,,20 / 23,,2981,2021-05-01 19:30:11:915
0.059857,-0.019154,9.77343,0.074776,-0.025197,9.806333,-0.001218,-0.001252,-0.001595,3.24,-17.4,-25.38,190.5881,0.1465,-0.4351,55.813915,37.500175,190.8462,NaN,0.0,16.0,,20 / 23,,2991,2021-05-01 19:30:11:925
0.062251,-0.035914,9.759064,0.074414,-0.024736,9.806336,0.001836,-6.41E-4,-0.003428,2.76,-17.22,-25.68,190.5881,0.1465,-0.4351,55.813915,37.500175,190.8462,NaN,0.0,16.0,,20 / 23,,3000,2021-05-01 19:30:11:934
0.062251,-0.035914,9.759064,0.074414,-0.024736,9.806336,0.001836,-6.41E-4,-0.003428,2.76,-17.22,-25.68,190.5881,0.1465,-0.4351,55.813915,37.500175,190.8462,NaN,0.0,16.0,,20 / 23,,3010,2021-05-01 19:30:11:944
0.076617,-0.023943,9.763853,0.074395,-0.024271,9.806338,-0.001218,-0.001863,-0.001595,3.36,-16.98,-25.56,190.6113,0.1445,-0.4348,55.813915,37.500175,190.8462,NaN,0.0,16.0,,20 / 23,,3020,2021-05-01 19:30:11:954
0.088588,-0.021548,9.761458,0.074577,-0.024338,9.806336,-0.001218,-0.001863,-0.001595,3.0,-16.92,-25.32,190.6113,0.1445,-0.4348,55.813915,37.500175,190.8462,NaN,0.0,16.0,,20 / 23,,3030,2021-05-01 19:30:11:964
0.088588,-0.021548,9.761458,0.074577,-0.024338,9.806336,-0.001218,-0.001863,-0.001595,3.0,-16.92,-25.32,190.6113,0.1445,-0.4348,55.813915,37.500175,190.8462,NaN,0.0,16.0,,20 / 23,,3040,2021-05-01 19:30:11:974
0.081405,-0.035914,9.751882,0.075049,-0.024143,9.806334,6.15E-4,0.002414,-0.001595,3.12,-17.04,-25.56,190.6113,0.1445,-0.4348,55.813915,37.500175,190.8462,NaN,0.0,16.0,,20 / 23,,3050,2021-05-01 19:30:11:984
0.076617,-0.03352,9.763853,0.075049,-0.024143,9.806334,-0.00244,-0.001863,-9.84E-4,3.12,-17.04,-25.56,190.6113,0.1445,-0.4348,55.813915,37.500175,190.8462,NaN,0.0,16.0,,20 / 23,,3061,2021-05-01 19:30:11:995
0.074223,-0.01676,9.783007,0.075414,-0.024515,9.80633,-6.07E-4,5.81E-4,2.38E-4,2.94,-18.12,-25.02,190.0201,0.1411,-0.4385,55.813915,37.500175,190.8462,NaN,0.0,16.0,,20 / 23,,3071,2021-05-01 19:30:12:005
0.074223,-0.002394,9.754275,0.07535,-0.024566,9.80633,-0.001218,5.81E-4,-0.002817,3.06,-17.82,-24.6,190.0201,0.1411,-0.4385,55.813915,37.500175,190.8462,NaN,0.0,16.0,,20 / 23,,3080,2021-05-01 19:30:12:014
0.074223,-0.002394,9.754275,0.07535,-0.024566,9.80633,4.0E-6,0.001803,8.48E-4,3.06,-17.82,-24.6,190.0201,0.1411,-0.4385,55.813915,37.500175,190.8462,NaN,0.0,16.0,,20 / 23,,3090,2021-05-01 19:30:12:024
0.071828,-0.01676,9.785401,0.075178,-0.024751,9.806331,-0.001829,-0.001252,-0.002206,3.24,-17.58,-24.18,190.0201,0.1411,-0.4385,55.813915,37.500175,190.8462,NaN,0.0,16.0,,20 / 23,,3100,2021-05-01 19:30:12:034
0.071828,-0.023943,9.727939,0.075178,-0.024751,9.806331,6.15E-4,-3.0E-5,-3.73E-4,3.24,-17.58,-24.18,190.0201,0.1411,-0.4385,55.813915,37.500175,190.8462,NaN,0.0,16.0,,20 / 23,,3110,2021-05-01 19:30:12:044
0.06704,-0.031126,9.759064,0.075115,-0.024521,9.806332,6.15E-4,-3.0E-5,-3.73E-4,3.06,-18.0,-24.6,190.0202,0.1446,-0.4392,55.813915,37.500175,190.8462,NaN,0.0,16.0,,20 / 23,,3120,2021-05-01 19:30:12:054
0.06704,-0.031126,9.759064,0.075254,-0.024306,9.806332,-6.07E-4,5.81E-4,0.001459,3.24,-17.76,-25.14,190.0202,0.1446,-0.4392,55.813915,37.500175,190.8462,NaN,0.0,16.0,,20 / 23,,3130,2021-05-01 19:30:12:064
0.079011,-0.019154,9.749487,0.075254,-0.024306,9.806332,0.001836,-3.0E-5,2.38E-4,3.24,-17.76,-25.14,190.0202,0.1446,-0.4392,55.813915,37.500175,190.8462,NaN,0.0,16.0,,20 / 23,,3140,2021-05-01 19:30:12:074
0.079011,-0.002394,9.73991,0.0751,-0.023925,9.806334,-0.003051,5.81E-4,-0.002206,2.4,-17.22,-25.32,190.0202,0.1446,-0.4392,55.813915,37.500175,190.8462,NaN,0.0,16.0,,20 / 23,,3150,2021-05-01 19:30:12:084
0.079011,-0.002394,9.73991,0.0751,-0.023925,9.806334,-0.003051,5.81E-4,-0.002206,2.4,-17.22,-25.32,190.0202,0.1446,-0.4392,55.813915,37.500175,190.8462,NaN,0.0,16.0,,20 / 23,,3160,2021-05-01 19:30:12:094
0.081405,-0.035914,9.730332,0.074578,-0.023021,9.80634,-0.001218,-3.0E-5,-9.84E-4,2.4,-16.5,-25.02,187.7696,0.1398,-0.4388,55.813915,37.500175,190.8462,NaN,0.0,16.0,,20 / 23,,3170,2021-05-01 19:30:12:104
0.055068,-0.021548,9.77343,0.074394,-0.023277,9.80634,-0.001218,0.001192,2.38E-4,2.46,-16.38,-24.6,187.7696,0.1398,-0.4388,55.813915,37.500175,190.8462,NaN,0.0,16.0,,20 / 23,,3181,2021-05-01 19:30:12:115
0.055068,-0.021548,9.77343,0.074394,-0.023277,9.80634,-0.001218,0.001192,2.38E-4,2.46,-16.38,-24.6,187.7696,0.1398,-0.4388,55.813915,37.500175,190.8462,NaN,0.0,16.0,,20 / 23,,3191,2021-05-01 19:30:12:125
0.062251,-0.035914,9.737515,0.073393,-0.023023,9.806348,-6.07E-4,0.001192,-0.002206,3.0,-16.32,-24.72,187.7696,0.1398,-0.4388,55.813915,37.500175,190.8462,NaN,0.0,16.0,,20 / 23,,3200,2021-05-01 19:30:12:134
0.06704,-0.019154,9.783007,0.073393,-0.023023,9.806348,4.0E-6,-0.001252,0.00207,3.0,-16.32,-24.72,187.7696,0.1398,-0.4388,55.813915,37.500175,190.8462,NaN,0.0,16.0,,20 / 23,,3210,2021-05-01 19:30:12:144
0.071828,-0.023943,9.763853,0.073461,-0.023079,9.806348,0.001836,5.81E-4,-0.001595,3.06,-17.16,-25.14,190.5824,0.1345,-0.4288,55.813915,37.500175,190.8462,NaN,0.0,16.0,,20 / 23,,3220,2021-05-01 19:30:12:154
0.071828,-0.023943,9.763853,0.073461,-0.023079,9.806348,4.0E-6,-0.001863,-0.002817,3.06,-17.16,-25.14,190.5824,0.1345,-0.4288,55.813915,37.500175,190.8462,NaN,0.0,16.0,,20 / 23,,3230,2021-05-01 19:30:12:164
0.081405,-0.01676,9.768641,0.072877,-0.023497,9.806351,-6.07E-4,5.81E-4,0.00207,3.06,-17.58,-24.78,190.5824,0.1345,-0.4288,55.813915,37.500175,190.8462,NaN,0.0,16.0,,20 / 23,,3241,2021-05-01 19:30:12:175
0.079011,-0.045491,9.75667,0.072877,-0.023497,9.806351,0.001225,-3.0E-5,8.48E-4,3.06,-17.58,-24.78,190.5824,0.1345,-0.4288,55.813915,37.500175,190.8462,NaN,0.0,16.0,,20 / 23,,3250,2021-05-01 19:30:12:184
0.074223,-0.01676,9.749487,0.072695,-0.023431,9.806353,-0.001829,0.001192,-0.001595,2.88,-17.22,-24.36,190.5548,0.1373,-0.4258,55.813915,37.500175,190.8462,NaN,0.0,16.0,,20 / 23,,3261,2021-05-01 19:30:12:195
0.086194,-0.021548,9.759064,0.072695,-0.023431,9.806353,6.15E-4,-3.0E-5,-0.003428,2.88,-17.22,-24.36,190.5548,0.1373,-0.4258,55.813915,37.500175,190.8462,NaN,0.0,16.0,,20 / 23,,3271,2021-05-01 19:30:12:205
0.086194,-0.021548,9.759064,0.072408,-0.023367,9.806355,0.001836,0.001192,0.00207,2.94,-16.98,-24.48,190.5548,0.1373,-0.4258,55.813915,37.500175,190.8462,NaN,0.0,16.0,,20 / 23,,3280,2021-05-01 19:30:12:214
0.095771,0.0,9.794978,0.072408,-0.023367,9.806355,0.001836,0.001192,0.00207,2.94,-16.98,-24.48,190.5548,0.1373,-0.4258,55.813915,37.500175,190.8462,NaN,0.0,16.0,,20 / 23,,3291,2021-05-01 19:30:12:225
0.076617,-0.023943,9.771035,0.072743,-0.023579,9.806352,-0.001218,0.001803,-9.84E-4,3.48,-17.16,-24.3,190.5512,0.1365,-0.423,55.813915,37.500175,190.8462,NaN,0.0,16.0,,20 / 23,,3301,2021-05-01 19:30:12:235
0.079011,-0.040703,9.735122,0.072743,-0.023579,9.806352,4.0E-6,5.81E-4,-0.002206,3.48,-17.16,-24.3,190.5512,0.1365,-0.423,55.813915,37.500175,190.8462,NaN,0.0,16.0,,20 / 23,,3311,2021-05-01 19:30:12:245
0.086194,-0.011971,9.718362,0.073227,-0.023552,9.806349,6.15E-4,-6.41E-4,-9.84E-4,3.72,-17.52,-24.66,190.5512,0.1365,-0.423,55.813915,37.500175,190.8462,NaN,0.0,16.0,,20 / 23,,3321,2021-05-01 19:30:12:255
0.086194,-0.011971,9.718362,0.073759,-0.023394,9.806345,0.001836,-3.0E-5,-0.002206,3.78,-17.22,-24.84,190.5512,0.1365,-0.423,55.813915,37.500175,190.8462,NaN,0.0,16.0,,20 / 23,,3331,2021-05-01 19:30:12:265
0.0838,-0.014366,9.75667,0.073759,-0.023394,9.806345,0.001225,-6.41E-4,-3.73E-4,3.78,-17.22,-24.84,190.5512,0.1365,-0.423,55.813915,37.500175,190.8462,NaN,0.0,16.0,,20 / 23,,3340,2021-05-01 19:30:12:274
0.071828,-0.035914,9.783007,0.074766,-0.022672,9.806338,6.15E-4,-0.001252,8.48E-4,3.36,-17.82,-24.66,190.011,0.1367,-0.4309,55.813915,37.500175,190.8462,NaN,0.0,16.0,,20 / 23,,3351,2021-05-01 19:30:12:285
0.071828,-0.035914,9.783007,0.074766,-0.022672,9.806338,6.15E-4,-0.001252,8.48E-4,3.36,-17.82,-24.66,190.011,0.1367,-0.4309,55.813915,37.500175,190.8462,NaN,0.0,16.0,,20 / 23,,3361,2021-05-01 19:30:12:295
0.079011,-0.040703,9.759064,0.075124,-0.021948,9.806338,4.0E-6,0.001803,8.48E-4,3.18,-17.64,-24.9,190.011,0.1367,-0.4309,55.813915,37.500175,190.8462,NaN,0.0,16.0,,20 / 23,,3371,2021-05-01 19:30:12:305
0.074223,-0.01676,9.768641,0.075124,-0.021948,9.806338,0.001836,-0.001863,8.48E-4,3.18,-17.64,-24.9,190.011,0.1367,-0.4309,55.813915,37.500175,190.8462,NaN,0.0,16.0,,20 / 23,,3380,2021-05-01 19:30:12:314
0.074223,-0.01676,9.768641,0.07531,-0.021883,9.806336,0.001836,-3.0E-5,-9.84E-4,3.3,-16.14,-25.26,191.2422,0.1282,-0.4389,55.813915,37.500175,190.8462,NaN,0.0,16.0,,20 / 23,,3391,2021-05-01 19:30:12:325
0.071828,-0.035914,9.735122,0.07531,-0.021883,9.806336,-0.003051,-0.001863,2.38E-4,3.3,-16.14,-25.26,191.2422,0.1282,-0.4389,55.813915,37.500175,190.8462,NaN,0.0,16.0,,20 / 23,,3400,2021-05-01 19:30:12:334
0.071828,-0.035914,9.735122,0.075371,-0.021402,9.806336,0.001225,-3.0E-5,2.38E-4,2.88,-16.14,-25.02,191.2422,0.1282,-0.4389,55.813915,37.500175,190.8462,NaN,0.0,16.0,,20 / 23,,3410,2021-05-01 19:30:12:344
0.069434,-0.028731,9.768641,0.075612,-0.021269,9.806335,-0.003051,-3.0E-5,8.48E-4,2.64,-16.74,-24.78,191.2422,0.1282,-0.4389,55.813915,37.500175,190.8462,NaN,0.0,16.0,,20 / 23,,3420,2021-05-01 19:30:12:354
0.076617,-0.035914,9.749487,0.075612,-0.021269,9.806335,0.001836,-0.001252,2.38E-4,2.64,-16.74,-24.78,191.2422,0.1282,-0.4389,55.813915,37.500175,190.8462,NaN,0.0,16.0,,20 / 23,,3430,2021-05-01 19:30:12:364
0.076617,-0.035914,9.749487,0.076065,-0.022162,9.80633,6.15E-4,0.001192,2.38E-4,2.22,-16.32,-23.82,187.7514,0.1243,-0.4418,55.813915,37.500175,190.8462,NaN,0.0,16.0,,20 / 23,,3441,2021-05-01 19:30:12:375
0.071828,-0.021548,9.785401,0.076065,-0.022162,9.80633,-0.001829,-3.0E-5,0.002681,2.22,-16.32,-23.82,187.7514,0.1243,-0.4418,55.813915,37.500175,190.8462,NaN,0.0,16.0,,20 / 23,,3450,2021-05-01 19:30:12:384
0.081405,-0.028731,9.742304,0.076319,-0.02319,9.806326,-0.001829,-3.0E-5,0.002681,2.46,-16.32,-23.28,187.7514,0.1243,-0.4418,55.813915,37.500175,190.8462,NaN,0.0,16.0,,20 / 23,,3460,2021-05-01 19:30:12:394
0.081405,-0.028731,9.742304,0.076319,-0.02319,9.806326,6.15E-4,-6.41E-4,-0.002817,2.46,-16.32,-23.28,187.7514,0.1243,-0.4418,55.813915,37.500175,190.8462,NaN,0.0,16.0,,20 / 23,,3470,2021-05-01 19:30:12:404
0.0838,-0.019154,9.778218,0.076214,-0.023473,9.806326,-6.07E-4,-0.001252,-3.73E-4,2.64,-16.62,-24.18,190.5826,0.1355,-0.4459,55.813915,37.500175,190.8462,NaN,0.0,16.0,,20 / 23,,3482,2021-05-01 19:30:12:416
0.076617,-0.026337,9.737515,0.076214,-0.023473,9.806326,-6.07E-4,-3.0E-5,-0.001595,2.64,-16.62,-24.18,190.5826,0.1355,-0.4459,55.813915,37.500175,190.8462,NaN,0.0,16.0,,20 / 23,,3491,2021-05-01 19:30:12:425
0.079011,-0.009577,9.751882,0.076333,-0.023591,9.806325,-6.07E-4,0.003024,8.48E-4,3.12,-16.32,-24.96,190.5826,0.1355,-0.4459,55.813915,37.500175,190.8462,NaN,0.0,16.0,,20 / 23,,3501,2021-05-01 19:30:12:435
0.079011,-0.009577,9.751882,0.076333,-0.023591,9.806325,4.0E-6,0.001192,-3.73E-4,3.12,-16.32,-24.96,190.5826,0.1355,-0.4459,55.813915,37.500175,190.8462,NaN,0.0,16.0,,20 / 23,,3510,2021-05-01 19:30:12:444
0.086194,-0.045491,9.751882,0.076109,-0.023478,9.806326,-6.07E-4,-6.41E-4,-3.73E-4,4.02,-15.9,-24.96,194.6373,0.1378,-0.446,55.813915,37.500175,190.8462,NaN,0.0,16.0,,20 / 23,,3520,2021-05-01 19:30:12:454
0.059857,-0.01676,9.780613,0.076109,-0.023478,9.806326,-0.003051,-0.001863,-0.001595,4.02,-15.9,-24.96,194.6373,0.1378,-0.446,55.813915,37.500175,190.8462,NaN,0.0,16.0,,20 / 23,,3530,2021-05-01 19:30:12:464
0.059857,-0.01676,9.780613,0.075595,-0.023108,9.806332,-0.003051,-0.001863,-0.001595,3.78,-16.38,-24.96,194.6373,0.1378,-0.446,55.813915,37.500175,190.8462,NaN,0.0,16.0,,20 / 23,,3540,2021-05-01 19:30:12:474
0.081405,-0.026337,9.778218,0.07572,-0.02305,9.806331,4.0E-6,-0.002473,-0.001595,3.72,-16.62,-25.2,194.6373,0.1378,-0.446,55.813915,37.500175,190.8462,NaN,0.0,16.0,,20 / 23,,3550,2021-05-01 19:30:12:484
0.081405,-0.026337,9.778218,0.07572,-0.02305,9.806331,6.15E-4,-6.41E-4,8.48E-4,3.72,-16.62,-25.2,194.6373,0.1378,-0.446,55.813915,37.500175,190.8462,NaN,0.0,16.0,,20 / 23,,3560,2021-05-01 19:30:12:494
0.074223,-0.028731,9.771035,0.075524,-0.022901,9.806333,4.0E-6,-3.0E-5,-3.73E-4,3.54,-16.68,-24.96,193.8092,0.1347,-0.4424,55.813915,37.500175,190.8462,NaN,0.0,16.0,,20 / 23,,3573,2021-05-01 19:30:12:507
0.06704,-0.007183,9.771035,0.075524,-0.022901,9.806333,4.0E-6,-3.0E-5,-3.73E-4,3.54,-16.68,-24.96,193.8092,0.1347,-0.4424,55.813915,37.500175,190.8462,NaN,0.0,16.0,,20 / 23,,3581,2021-05-01 19:30:12:515
0.06704,-0.007183,9.771035,0.075699,-0.022907,9.806332,-0.001829,-0.001252,-0.004038,3.36,-16.62,-24.54,193.8092,0.1347,-0.4424,55.813915,37.500175,190.8462,NaN,0.0,16.0,,20 / 23,,3590,2021-05-01 19:30:12:524
0.0838,-0.035914,9.761458,0.075699,-0.022907,9.806332,6.15E-4,0.001192,-0.002206,3.36,-16.62,-24.54,193.8092,0.1347,-0.4424,55.813915,37.500175,190.8462,NaN,0.0,16.0,,20 / 23,,3601,2021-05-01 19:30:12:535
0.074223,-0.011971,9.749487,0.075705,-0.02301,9.806331,0.001225,-3.0E-5,2.38E-4,3.18,-16.68,-24.96,190.6017,0.1338,-0.4423,55.813915,37.500175,190.8462,NaN,0.0,16.0,,20 / 23,,3611,2021-05-01 19:30:12:545
0.079011,-0.01676,9.747093,0.075705,-0.02301,9.806331,-6.07E-4,-0.001252,-9.84E-4,3.18,-16.68,-24.96,190.6017,0.1338,-0.4423,55.813915,37.500175,190.8462,NaN,0.0,16.0,,20 / 23,,3621,2021-05-01 19:30:12:555
0.071828,-0.011971,9.73991,0.075823,-0.022893,9.806331,6.15E-4,-0.003695,8.48E-4,3.18,-16.74,-24.9,190.6017,0.1338,-0.4423,55.813915,37.500175,190.8462,NaN,0.0,16.0,,20 / 23,,3631,2021-05-01 19:30:12:565
0.071828,-0.011971,9.73991,0.075823,-0.022893,9.806331,6.15E-4,-0.003695,8.48E-4,3.18,-16.74,-24.9,190.6017,0.1338,-0.4423,55.813915,37.500175,190.8462,NaN,0.0,16.0,,20 / 23,,3641,2021-05-01 19:30:12:575
0.071828,-0.021548,9.75667,0.075844,-0.023313,9.80633,0.001225,5.81E-4,8.48E-4,3.0,-16.92,-24.48,190.579,0.1338,-0.443,55.813915,37.500175,190.8462,NaN,0.0,16.0,,20 / 23,,3651,2021-05-01 19:30:12:585
0.071828,-0.021548,9.75667,0.075844,-0.023313,9.80633,-6.07E-4,-3.0E-5,2.38E-4,3.0,-16.92,-24.48,190.579,0.1338,-0.443,55.813915,37.500175,190.8462,NaN,0.0,16.0,,20 / 23,,3662,2021-05-01 19:30:12:596
0.076617,-0.014366,9.73991,0.076017,-0.023125,9.806329,-0.001218,0.001803,-0.001595,2.58,-16.62,-24.3,190.579,0.1338,-0.443,55.813915,37.500175,190.8462,NaN,0.0,16.0,,20 / 23,,3671,2021-05-01 19:30:12:605
0.079011,-0.019154,9.75667,0.076017,-0.023125,9.806329,-0.001218,-0.001863,2.38E-4,2.58,-16.62,-24.3,190.579,0.1338,-0.443,55.813915,37.500175,190.8462,NaN,0.0,16.0,,20 / 23,,3680,2021-05-01 19:30:12:614
0.062251,-0.03352,9.775824,0.076019,-0.023081,9.806329,-5.16E-4,-0.001236,9.57E-4,2.7,-16.44,-24.6,191.2479,0.1351,-0.4441,55.813915,37.500175,190.8462,NaN,0.0,16.0,,20 / 23,,3690,2021-05-01 19:30:12:624
0.062251,-0.03352,9.775824,0.076017,-0.023125,9.806329,-0.001126,5.97E-4,-8.75E-4,2.4,-16.74,-24.72,191.2479,0.1351,-0.4441,55.813915,37.500175,190.8462,NaN,0.0,16.0,,20 / 23,,3700,2021-05-01 19:30:12:634
0.081405,-0.03352,9.775824,0.076017,-0.023125,9.806329,-0.001126,5.97E-4,-8.75E-4,2.4,-16.74,-24.72,191.2479,0.1351,-0.4441,55.813915,37.500175,190.8462,NaN,0.0,16.0,,20 / 23,,3711,2021-05-01 19:30:12:645
0.06704,-0.021548,9.744699,0.076265,-0.023333,9.806326,-0.001126,0.002429,3.46E-4,3.12,-16.32,-25.38,191.2479,0.1351,-0.4441,55.813915,37.500175,190.8462,NaN,0.0,16.0,,20 / 23,,3721,2021-05-01 19:30:12:655
0.086194,-0.004789,9.761458,0.076265,-0.023333,9.806326,7.06E-4,-0.001847,-0.001486,3.12,-16.32,-25.38,191.2479,0.1351,-0.4441,55.813915,37.500175,190.8462,NaN,0.0,16.0,,20 / 23,,3733,2021-05-01 19:30:12:667
0.086194,-0.004789,9.761458,0.076274,-0.023071,9.806326,9.5E-5,-0.001236,3.46E-4,3.24,-16.62,-25.02,190.6057,0.1363,-0.4456,55.813915,37.500175,190.8462,NaN,0.0,16.0,,20 / 23,,3740,2021-05-01 19:30:12:674
0.0838,-0.019154,9.735122,0.076388,-0.023083,9.806325,-0.002348,-0.001847,9.57E-4,3.42,-16.98,-24.54,190.6057,0.1363,-0.4456,55.813915,37.500175,190.8462,NaN,0.0,16.0,,20 / 23,,3750,2021-05-01 19:30:12:684
0.0838,-0.019154,9.735122,0.076388,-0.023083,9.806325,9.5E-5,-6.25E-4,0.00279,3.42,-16.98,-24.54,190.6057,0.1363,-0.4456,55.813915,37.500175,190.8462,NaN,0.0,16.0,,20 / 23,,3761,2021-05-01 19:30:12:695
0.095771,-0.009577,9.744699,0.076571,-0.023108,9.806324,7.06E-4,-1.4E-5,0.002179,3.06,-16.62,-24.42,190.6057,0.1363,-0.4456,55.813915,37.500175,190.8462,NaN,0.0,16.0,,20 / 23,,3770,2021-05-01 19:30:12:704
0.0838,-0.023943,9.778218,0.076571,-0.023108,9.806324,-0.002348,0.001208,-2.65E-4,3.06,-16.62,-24.42,190.6057,0.1363,-0.4456,55.813915,37.500175,190.8462,NaN,0.0,16.0,,20 / 23,,3780,2021-05-01 19:30:12:714
0.0838,-0.023943,9.778218,0.076523,-0.023517,9.806323,-0.002348,0.001208,-2.65E-4,2.64,-15.9,-24.42,191.2276,0.135,-0.4474,55.813915,37.500175,190.8462,NaN,0.0,16.0,,20 / 23,,3790,2021-05-01 19:30:12:724
0.069434,-0.038308,9.768641,0.076273,-0.023632,9.806325,9.5E-5,0.001208,3.46E-4,2.7,-16.38,-24.48,191.2276,0.135,-0.4474,55.813915,37.500175,190.8462,NaN,0.0,16.0,,20 / 23,,3800,2021-05-01 19:30:12:734
0.069434,-0.038308,9.768641,0.076273,-0.023632,9.806325,9.5E-5,-1.4E-5,-2.65E-4,2.7,-16.38,-24.48,191.2276,0.135,-0.4474,55.813915,37.500175,190.8462,NaN,0.0,16.0,,20 / 23,,3811,2021-05-01 19:30:12:745
0.076617,-0.004789,9.761458,0.076308,-0.024414,9.806323,-5.16E-4,0.001819,-0.001486,3.12,-17.04,-24.24,191.2276,0.135,-0.4474,55.813915,37.500175,190.8462,NaN,0.0,16.0,,20 / 23,,3820,2021-05-01 19:30:12:754
0.074223,-0.03352,9.730332,0.076308,-0.024414,9.806323,-0.001737,-0.003679,-0.002097,3.12,-17.04,-24.24,191.2276,0.135,-0.4474,55.813915,37.500175,190.8462,NaN,0.0,16.0,,20 / 23,,3830,2021-05-01 19:30:12:764
0.074223,-0.03352,9.730332,0.07687,-0.024694,9.806318,-0.001126,-0.001236,-8.75E-4,3.36,-17.16,-24.6,190.6044,0.1426,-0.4458,55.813915,37.500175,190.8462,NaN,0.0,16.0,,20 / 23,,3840,2021-05-01 19:30:12:774
0.079011,-0.026337,9.761458,0.076981,-0.024794,9.806317,7.06E-4,0.001819,-8.75E-4,3.66,-16.92,-24.96,190.6044,0.1426,-0.4458,55.813915,37.500175,190.8462,NaN,0.0,16.0,,20 / 23,,3852,2021-05-01 19:30:12:786
0.079011,-0.026337,9.761458,0.076981,-0.024794,9.806317,-0.001737,0.001208,3.46E-4,3.66,-16.92,-24.96,190.6044,0.1426,-0.4458,55.813915,37.500175,190.8462,NaN,0.0,16.0,,20 / 23,,3861,2021-05-01 19:30:12:795
0.079011,-0.021548,9.754275,0.077398,-0.024906,9.806313,-0.001126,-1.4E-5,-2.65E-4,3.18,-17.22,-24.66,190.6044,0.1426,-0.4458,55.813915,37.500175,190.8462,NaN,0.0,16.0,,20 / 23,,3871,2021-05-01 19:30:12:805
0.06704,-0.023943,9.778218,0.077398,-0.024906,9.806313,-0.001126,-0.001847,-0.002708,3.18,-17.22,-24.66,190.6044,0.1426,-0.4458,55.813915,37.500175,190.8462,NaN,0.0,16.0,,20 / 23,,3880,2021-05-01 19:30:12:814
0.06704,-0.023943,9.778218,0.077108,-0.024931,9.806315,-0.001126,-0.001847,-0.002708,3.42,-16.68,-24.72,190.6126,0.1455,-0.4522,55.813915,37.500175,190.8462,NaN,0.0,16.0,,20 / 23,,3891,2021-05-01 19:30:12:825
0.064645,-0.026337,9.73991,0.077451,-0.024923,9.806313,0.00315,5.97E-4,-8.75E-4,3.54,-16.8,-25.08,190.6126,0.1455,-0.4522,55.813915,37.500175,190.8462,NaN,0.0,16.0,,20 / 24,,3900,2021-05-01 19:30:12:834
0.059857,-0.021548,9.73991,0.077451,-0.024923,9.806313,9.5E-5,0.001208,3.46E-4,3.54,-16.8,-25.08,190.6126,0.1455,-0.4522,55.813915,37.500175,190.8462,NaN,0.0,16.0,,20 / 24,,3911,2021-05-01 19:30:12:845
0.071828,-0.021548,9.747093,0.077954,-0.024563,9.80631,-0.001737,-0.002458,-0.003319,3.48,-17.16,-24.72,190.6126,0.1455,-0.4522,55.813915,37.500175,190.8462,NaN,0.0,16.0,,20 / 24,,3920,2021-05-01 19:30:12:854
0.071828,-0.021548,9.747093,0.077954,-0.024563,9.80631,7.06E-4,-0.001236,-8.75E-4,3.48,-17.16,-24.72,190.6126,0.1455,-0.4522,55.813915,37.500175,190.8462,NaN,0.0,16.0,,20 / 24,,3931,2021-05-01 19:30:12:865
0.074223,-0.01676,9.780613,0.077624,-0.023938,9.806314,7.06E-4,-1.4E-5,-0.001486,3.48,-16.98,-23.82,190.5935,0.1435,-0.4555,55.813915,37.500175,190.8462,NaN,0.0,16.0,,20 / 24,,3941,2021-05-01 19:30:12:875
0.081405,-0.031126,9.751882,0.077624,-0.023938,9.806314,-5.16E-4,-1.4E-5,-0.002097,3.48,-16.98,-23.82,190.5935,0.1435,-0.4555,55.813915,37.500175,190.8462,NaN,0.0,16.0,,20 / 24,,3950,2021-05-01 19:30:12:884
0.064645,-0.028731,9.799767,0.077154,-0.02357,9.806318,9.5E-5,-0.001236,-8.75E-4,3.24,-16.32,-24.66,190.5935,0.1435,-0.4555,55.813915,37.500175,190.8462,NaN,0.0,16.0,,20 / 24,,3961,2021-05-01 19:30:12:895
0.06704,-0.01676,9.768641,0.077154,-0.02357,9.806318,-0.001126,-6.25E-4,3.46E-4,3.24,-16.32,-24.66,190.5935,0.1435,-0.4555,55.813915,37.500175,190.8462,NaN,0.0,16.0,,20 / 24,,3970,2021-05-01 19:30:12:904
0.06704,-0.01676,9.768641,0.076978,-0.023565,9.80632,-0.001126,-6.25E-4,3.46E-4,3.18,-16.74,-24.9,190.6127,0.1377,-0.4508,55.813915,37.500175,190.8462,NaN,0.0,16.0,,20 / 24,,3980,2021-05-01 19:30:12:914
0.062251,-0.026337,9.730332,0.076978,-0.023565,9.80632,-0.002348,-6.25E-4,-0.002097,3.18,-16.74,-24.9,190.6127,0.1377,-0.4508,55.813915,37.500175,190.8462,NaN,0.0,16.0,,20 / 24,,3990,2021-05-01 19:30:12:924
0.081405,-0.023943,9.768641,0.07662,-0.023773,9.806322,7.06E-4,5.97E-4,-0.002097,3.36,-16.5,-25.08,190.6127,0.1377,-0.4508,55.813915,37.500175,190.8462,NaN,0.0,16.0,,20 / 24,,4001,2021-05-01 19:30:12:935
0.074223,-0.03352,9.754275,0.07662,-0.023773,9.806322,9.5E-5,0.001819,-0.002097,3.36,-16.5,-25.08,190.6127,0.1377,-0.4508,55.813915,37.500175,190.8462,NaN,0.0,16.0,,20 / 24,,4010,2021-05-01 19:30:12:944
0.06704,-0.026337,9.766247,0.076493,-0.023636,9.806323,7.06E-4,0.003651,3.46E-4,3.24,-15.78,-24.9,191.2521,0.1389,-0.4477,55.813915,37.500175,190.8462,NaN,0.0,16.0,,20 / 24,,4020,2021-05-01 19:30:12:954
0.06704,-0.026337,9.766247,0.076493,-0.023636,9.806323,-5.16E-4,5.97E-4,-8.75E-4,3.24,-15.78,-24.9,191.2521,0.1389,-0.4477,55.813915,37.500175,190.8462,NaN,0.0,16.0,,20 / 24,,4030,2021-05-01 19:30:12:964
0.071828,-0.007183,9.783007,0.076364,-0.02251,9.806327,-5.16E-4,5.97E-4,-8.75E-4,3.0,-16.14,-24.24,191.2521,0.1389,-0.4477,55.813915,37.500175,190.8462,NaN,0.0,16.0,,20 / 24,,4040,2021-05-01 19:30:12:974
0.064645,-0.021548,9.780613,0.076194,-0.021811,9.80633,9.5E-5,-0.001236,-0.001486,2.88,-16.32,-24.24,191.2521,0.1389,-0.4477,55.813915,37.500175,190.8462,NaN,0.0,16.0,,20 / 24,,4051,2021-05-01 19:30:12:985
0.074223,-0.021548,9.749487,0.076194,-0.021811,9.80633,9.5E-5,-0.001236,-0.001486,2.88,-16.32,-24.24,191.2521,0.1389,-0.4477,55.813915,37.500175,190.8462,NaN,0.0,16.0,,20 / 24,,4060,2021-05-01 19:30:12:994
0.074223,-0.021548,9.749487,0.075877,-0.021309,9.806334,7.06E-4,-0.001847,-0.002708,3.06,-16.38,-24.9,191.2518,0.1274,-0.4452,55.813915,37.500175,190.8462,NaN,0.0,16.0,,20 / 24,,4070,2021-05-01 19:30:13:004
0.074223,-0.028731,9.70639,0.075877,-0.021309,9.806334,7.06E-4,0.006095,0.00279,3.06,-16.38,-24.9,191.2518,0.1274,-0.4452,55.813915,37.500175,190.8462,NaN,0.0,16.0,,20 / 24,,4080,2021-05-01 19:30:13:014
0.095771,-0.023943,9.751882,0.075994,-0.021234,9.806333,7.06E-4,-1.4E-5,-8.75E-4,3.66,-16.74,-24.96,191.2518,0.1274,-0.4452,55.813915,37.500175,190.8462,NaN,0.0,16.0,,20 / 24,,4091,2021-05-01 19:30:13:025
0.081405,-0.011971,9.759064,0.075994,-0.021234,9.806333,-5.16E-4,-0.001847,-2.65E-4,3.66,-16.74,-24.96,191.2518,0.1274,-0.4452,55.813915,37.500175,190.8462,NaN,0.0,16.0,,20 / 24,,4100,2021-05-01 19:30:13:034
0.071828,-0.040703,9.780613,0.076308,-0.020745,9.806332,9.5E-5,-0.001847,9.57E-4,3.42,-16.56,-25.08,190.6067,0.1241,-0.444,55.813915,37.500175,190.8462,NaN,0.0,16.0,,20 / 24,,4110,2021-05-01 19:30:13:044
0.071828,-0.040703,9.780613,0.076308,-0.020745,9.806332,0.001928,-0.001236,-0.001486,3.42,-16.56,-25.08,190.6067,0.1241,-0.444,55.813915,37.500175,190.8462,NaN,0.0,16.0,,20 / 24,,4120,2021-05-01 19:30:13:054
0.0838,-0.019154,9.780613,0.076038,-0.020955,9.806333,0.002539,-0.001847,-0.001486,3.12,-16.32,-25.26,190.6067,0.1241,-0.444,55.813915,37.500175,190.8462,NaN,0.0,16.0,,20 / 24,,4131,2021-05-01 19:30:13:065
0.062251,-0.019154,9.742304,0.076038,-0.020955,9.806333,-5.16E-4,-0.001236,-8.75E-4,3.12,-16.32,-25.26,190.6067,0.1241,-0.444,55.813915,37.500175,190.8462,NaN,0.0,16.0,,20 / 24,,4141,2021-05-01 19:30:13:075
0.076617,-0.026337,9.744699,0.076257,-0.021521,9.806331,-0.001126,0.00304,-0.002097,3.0,-16.92,-24.66,190.6075,0.1224,-0.4443,55.813915,37.500175,190.8462,NaN,0.0,16.0,,20 / 24,,4150,2021-05-01 19:30:13:084
0.059857,-0.03352,9.763853,0.076257,-0.021521,9.806331,-0.001126,-0.003679,-0.001486,3.0,-16.92,-24.66,190.6075,0.1224,-0.4443,55.813915,37.500175,190.8462,NaN,0.0,16.0,,20 / 24,,4160,2021-05-01 19:30:13:094
0.059857,-0.03352,9.763853,0.075901,-0.021682,9.806333,7.06E-4,-6.25E-4,-2.65E-4,2.52,-16.62,-24.42,190.6075,0.1224,-0.4443,55.813915,37.500175,190.8462,NaN,0.0,16.0,,20 / 24,,4170,2021-05-01 19:30:13:104
0.081405,-0.023943,9.766247,0.075901,-0.021682,9.806333,0.001317,-6.25E-4,9.57E-4,2.52,-16.62,-24.42,190.6075,0.1224,-0.4443,55.813915,37.500175,190.8462,NaN,0.0,16.0,,20 / 24,,4181,2021-05-01 19:30:13:115
0.064645,-0.03352,9.749487,0.076323,-0.021662,9.80633,7.06E-4,-1.4E-5,9.57E-4,2.88,-16.02,-24.78,191.2494,0.1267,-0.4435,55.813915,37.500175,190.8462,NaN,0.0,16.0,,20 / 24,,4191,2021-05-01 19:30:13:125
0.059857,-0.040703,9.749487,0.076384,-0.021656,9.806329,0.001317,0.001208,3.46E-4,3.06,-16.14,-25.2,191.2494,0.1267,-0.4435,55.813915,37.500175,190.8462,NaN,0.0,16.0,,20 / 24,,4200,2021-05-01 19:30:13:134
0.059857,-0.040703,9.749487,0.076384,-0.021656,9.806329,0.001317,0.001208,3.46E-4,3.06,-16.14,-25.2,191.2494,0.1267,-0.4435,55.813915,37.500175,190.8462,NaN,0.0,16.0,,20 / 24,,4210,2021-05-01 19:30:13:144
0.062251,-0.011971,9.754275,0.076448,-0.021325,9.80633,-5.16E-4,-0.001236,0.001568,2.76,-16.98,-25.8,191.2494,0.1267,-0.4435,55.813915,37.500175,190.8462,NaN,0.0,16.0,,20 / 24,,4220,2021-05-01 19:30:13:154
0.079011,-0.021548,9.749487,0.076448,-0.021325,9.80633,0.002539,-0.001236,-0.001486,2.76,-16.98,-25.8,191.2494,0.1267,-0.4435,55.813915,37.500175,190.8462,NaN,0.0,16.0,,20 / 24,,4231,2021-05-01 19:30:13:165
0.079011,-0.019154,9.761458,0.076327,-0.021013,9.806331,-5.16E-4,-6.25E-4,-8.75E-4,3.0,-17.1,-25.44,190.6103,0.1246,-0.4467,55.813915,37.500175,190.8462,NaN,0.0,16.0,,20 / 24,,4240,2021-05-01 19:30:13:174
0.069434,-0.026337,9.75667,0.076395,-0.021068,9.80633,9.5E-5,-1.4E-5,-0.003319,2.94,-17.28,-25.44,190.6103,0.1246,-0.4467,55.813915,37.500175,190.8462,NaN,0.0,16.0,,20 / 24,,4250,2021-05-01 19:30:13:184
0.069434,-0.026337,9.75667,0.076395,-0.021068,9.80633,-0.001737,-0.003068,-0.002097,2.94,-17.28,-25.44,190.6103,0.1246,-0.4467,55.813915,37.500175,190.8462,NaN,0.0,16.0,,20 / 24,,4260,2021-05-01 19:30:13:194
0.069434,-0.031126,9.77343,0.076567,-0.020923,9.80633,9.5E-5,-6.25E-4,-2.65E-4,3.42,-16.56,-25.44,190.6103,0.1246,-0.4467,55.813915,37.500175,190.8462,NaN,0.0,16.0,,20 / 24,,4270,2021-05-01 19:30:13:204
0.086194,-0.01676,9.785401,0.076567,-0.020923,9.80633,9.5E-5,-6.25E-4,-2.65E-4,3.42,-16.56,-25.44,190.6103,0.1246,-0.4467,55.813915,37.500175,190.8462,NaN,0.0,16.0,,20 / 24,,4280,2021-05-01 19:30:13:214
0.086194,-0.026337,9.763853,0.076758,-0.020725,9.806328,-0.001126,0.001208,-0.001486,3.6,-16.2,-24.72,194.6452,0.1222,-0.4474,55.813915,37.500175,190.8462,NaN,0.0,16.0,,20 / 24,,4290,2021-05-01 19:30:13:224
0.071828,-0.014366,9.778218,0.076706,-0.020706,9.806329,-0.001126,0.001208,-0.001486,3.42,-16.56,-24.3,194.6452,0.1222,-0.4474,55.813915,37.500175,190.8462,NaN,0.0,16.0,,20 / 24,,4300,2021-05-01 19:30:13:234
0.071828,-0.014366,9.778218,0.076706,-0.020706,9.806329,-0.001737,0.002429,-0.002097,3.42,-16.56,-24.3,194.6452,0.1222,-0.4474,55.813915,37.500175,190.8462,NaN,0.0,16.0,,20 / 24,,4311,2021-05-01 19:30:13:245
0.0838,-0.004789,9.751882,0.075873,-0.021238,9.806334,0.001928,0.001208,-0.001486,2.88,-16.56,-24.06,194.6452,0.1222,-0.4474,55.813915,37.500175,190.8462,NaN,0.0,16.0,,20 / 24,,4320,2021-05-01 19:30:13:254
0.074223,-0.026337,9.730332,0.075873,-0.021238,9.806334,0.001317,0.001819,0.001568,2.88,-16.56,-24.06,194.6452,0.1222,-0.4474,55.813915,37.500175,190.8462,NaN,0.0,16.0,,20 / 24,,4330,2021-05-01 19:30:13:264
0.074223,-0.03352,9.727939,0.075176,-0.021364,9.806338,-0.001126,-0.001847,3.46E-4,2.88,-16.32,-24.42,191.2249,0.1241,-0.4433,55.813915,37.500175,190.8462,NaN,0.0,16.0,,20 / 24,,4340,2021-05-01 19:30:13:274
0.093377,-0.009577,9.766247,0.075356,-0.021475,9.806337,9.5E-5,-0.001236,0.002179,3.12,-15.9,-24.72,191.2249,0.1241,-0.4433,55.813915,37.500175,190.8462,NaN,0.0,16.0,,20 / 24,,4350,2021-05-01 19:30:13:284
0.093377,-0.009577,9.766247,0.075356,-0.021475,9.806337,9.5E-5,-1.4E-5,0.003401,3.12,-15.9,-24.72,191.2249,0.1241,-0.4433,55.813915,37.500175,190.8462,NaN,0.0,16.0,,20 / 24,,4360,2021-05-01 19:30:13:294
0.055068,-0.009577,9.761458,0.075655,-0.021468,9.806334,-0.001737,5.97E-4,0.001568,3.78,-15.84,-25.14,191.2249,0.1241,-0.4433,55.813915,37.500175,190.8462,NaN,0.0,16.0,,20 / 24,,4371,2021-05-01 19:30:13:305
0.074223,-0.031126,9.763853,0.075655,-0.021468,9.806334,-0.001126,-1.4E-5,9.57E-4,3.78,-15.84,-25.14,191.2249,0.1241,-0.4433,55.813915,37.500175,190.8462,NaN,0.0,16.0,,20 / 24,,4380,2021-05-01 19:30:13:314
0.081405,-0.031126,9.75667,0.075185,-0.021618,9.806338,7.06E-4,-1.4E-5,-0.002097,3.36,-16.26,-24.9,191.2476,0.1254,-0.442,55.813915,37.500175,190.8462,NaN,0.0,16.0,,20 / 24,,4390,2021-05-01 19:30:13:324
0.071828,-0.019154,9.727939,0.075185,-0.021618,9.806338,9.5E-5,-0.001236,-8.75E-4,3.36,-16.26,-24.9,191.2476,0.1254,-0.442,55.813915,37.500175,190.8462,NaN,0.0,16.0,,20 / 24,,4400,2021-05-01 19:30:13:334
0.071828,-0.019154,9.727939,0.074458,-0.021304,9.806344,0.001928,0.002429,-0.002097,2.52,-16.5,-24.84,191.2476,0.1254,-0.442,55.813915,37.500175,190.8462,NaN,0.0,16.0,,20 / 24,,4410,2021-05-01 19:30:13:344
0.076617,-0.028731,9.737515,0.074458,-0.021304,9.806344,-5.16E-4,-6.25E-4,0.001568,2.52,-16.5,-24.84,191.2476,0.1254,-0.442,55.813915,37.500175,190.8462,NaN,0.0,16.0,,20 / 24,,4421,2021-05-01 19:30:13:355
0.064645,-0.01676,9.785401,0.074518,-0.021103,9.806344,-5.16E-4,0.001208,3.46E-4,2.82,-16.56,-25.02,190.5939,0.1245,-0.435,55.813915,37.500175,190.8462,NaN,0.0,16.0,,20 / 24,,4430,2021-05-01 19:30:13:364
0.059857,-0.019154,9.75667,0.074518,-0.021103,9.806344,-5.16E-4,0.001208,3.46E-4,2.82,-16.56,-25.02,190.5939,0.1245,-0.435,55.813915,37.500175,190.8462,NaN,0.0,16.0,,20 / 24,,4440,2021-05-01 19:30:13:374
0.076617,-0.007183,9.771035,0.075126,-0.021018,9.80634,-0.001737,-0.001236,-0.001486,2.94,-16.68,-24.96,190.5939,0.1245,-0.435,55.813915,37.500175,190.8462,NaN,0.0,16.0,,20 / 24,,4451,2021-05-01 19:30:13:385
0.081405,-0.03352,9.775824,0.075126,-0.021018,9.80634,-0.001126,-1.4E-5,-0.001486,2.94,-16.68,-24.96,190.5939,0.1245,-0.435,55.813915,37.500175,190.8462,NaN,0.0,16.0,,20 / 24,,4461,2021-05-01 19:30:13:395
0.081405,-0.03352,9.775824,0.075481,-0.021177,9.806336,-0.001126,-1.4E-5,-0.001486,2.7,-16.8,-24.54,190.5999,0.1228,-0.4389,55.813915,37.500175,190.8462,NaN,0.0,16.0,,20 / 24,,4471,2021-05-01 19:30:13:405
0.088588,-0.021548,9.754275,0.075481,-0.021177,9.806336,0.001317,-0.001236,-0.002097,2.7,-16.8,-24.54,190.5999,0.1228,-0.4389,55.813915,37.500175,190.8462,NaN,0.0,16.0,,20 / 24,,4480,2021-05-01 19:30:13:414
0.071828,-0.026337,9.759064,0.075434,-0.021025,9.806337,7.06E-4,0.001208,9.57E-4,2.7,-16.68,-24.54,190.5999,0.1228,-0.4389,55.813915,37.500175,190.8462,NaN,0.0,16.0,,20 / 24,,4490,2021-05-01 19:30:13:424
0.071828,-0.023943,9.754275,0.075434,-0.021025,9.806337,7.06E-4,-0.001236,-2.65E-4,2.7,-16.68,-24.54,190.5999,0.1228,-0.4389,55.813915,37.500175,190.8462,NaN,0.0,16.0,,20 / 24,,4500,2021-05-01 19:30:13:434
0.071828,-0.023943,9.754275,0.075724,-0.02128,9.806335,9.5E-5,-6.25E-4,9.57E-4,2.34,-15.9,-24.48,187.7502,0.1228,-0.4407,55.813915,37.500175,190.8462,NaN,0.0,16.0,,20 / 24,,4510,2021-05-01 19:30:13:444
0.069434,-0.023943,9.778218,0.075724,-0.02128,9.806335,7.06E-4,5.97E-4,9.57E-4,2.34,-15.9,-24.48,187.7502,0.1228,-0.4407,55.813915,37.500175,190.8462,NaN,0.0,16.0,,20 / 24,,4520,2021-05-01 19:30:13:454
0.057463,-0.021548,9.744699,0.07554,-0.021256,9.806336,0.001317,-0.001847,-0.002097,2.16,-15.96,-24.54,187.7502,0.1228,-0.4407,55.813915,37.500175,190.8462,NaN,0.0,16.0,,20 / 24,,4530,2021-05-01 19:30:13:464
0.076617,-0.019154,9.730332,0.07554,-0.021256,9.806336,-0.001126,-1.4E-5,0.00279,2.16,-15.96,-24.54,187.7502,0.1228,-0.4407,55.813915,37.500175,190.8462,NaN,0.0,16.0,,20 / 24,,4540,2021-05-01 19:30:13:474
0.088588,-0.026337,9.768641,0.075457,-0.02164,9.806336,-5.16E-4,0.001819,-2.65E-4,2.46,-16.32,-24.78,187.7768,0.1242,-0.4414,55.813915,37.500175,190.8462,NaN,0.0,16.0,,20 / 24,,4551,2021-05-01 19:30:13:485
0.088588,-0.026337,9.768641,0.075457,-0.02164,9.806336,9.5E-5,-1.4E-5,-0.001486,2.46,-16.32,-24.78,187.7768,0.1242,-0.4414,55.813915,37.500175,190.8462,NaN,0.0,16.0,,20 / 24,,4560,2021-05-01 19:30:13:494
0.069434,-0.043097,9.73991,0.075676,-0.02141,9.806335,0.001317,-0.001236,9.57E-4,2.76,-16.38,-24.48,187.7768,0.1242,-0.4414,55.813915,37.500175,190.8462,NaN,0.0,16.0,,20 / 24,,4570,2021-05-01 19:30:13:504
0.076617,-0.03352,9.768641,0.075676,-0.02141,9.806335,7.06E-4,0.001819,0.001568,2.76,-16.38,-24.48,187.7768,0.1242,-0.4414,55.813915,37.500175,190.8462,NaN,0.0,16.0,,20 / 24,,4580,2021-05-01 19:30:13:514
0.059857,-0.026337,9.77343,0.075611,-0.021224,9.806335,9.5E-5,-1.4E-5,3.46E-4,3.06,-16.56,-24.6,190.6038,0.1251,-0.4421,55.813915,37.500175,190.8462,NaN,0.0,16.0,,20 / 24,,4590,2021-05-01 19:30:13:524
0.0838,-0.021548,9.768641,0.075611,-0.021224,9.806335,0.001317,-0.003679,-0.003319,3.06,-16.56,-24.6,190.6038,0.1251,-0.4421,55.813915,37.500175,190.8462,NaN,0.0,16.0,,20 / 24,,4600,2021-05-01 19:30:13:534
0.0838,-0.021548,9.768641,0.075976,-0.021077,9.806333,-0.002959,-1.4E-5,-0.00393,3.12,-16.08,-24.84,190.6038,0.1251,-0.4421,55.813915,37.500175,190.8462,NaN,0.0,16.0,,20 / 24,,4611,2021-05-01 19:30:13:545
0.079011,-0.031126,9.732727,0.076436,-0.021512,9.806329,0.001928,5.97E-4,3.46E-4,2.88,-15.9,-24.9,190.6038,0.1251,-0.4421,55.813915,37.500175,190.8462,NaN,0.0,16.0,,20 / 24,,4620,2021-05-01 19:30:13:554
0.079011,-0.031126,9.732727,0.076436,-0.021512,9.806329,9.5E-5,-1.4E-5,-0.002708,2.88,-15.9,-24.9,190.6038,0.1251,-0.4421,55.813915,37.500175,190.8462,NaN,0.0,16.0,,20 / 24,,4630,2021-05-01 19:30:13:564
0.071828,-0.021548,9.754275,0.07679,-0.021436,9.806326,9.5E-5,0.001208,-2.65E-4,2.28,-16.74,-24.36,187.3083,0.1257,-0.4466,55.813915,37.500175,190.8462,NaN,0.0,16.0,,20 / 24,,4640,2021-05-01 19:30:13:574
0.079011,-0.026337,9.727939,0.07679,-0.021436,9.806326,-0.001126,0.001208,-0.004541,2.28,-16.74,-24.36,187.3083,0.1257,-0.4466,55.813915,37.500175,190.8462,NaN,0.0,16.0,,20 / 24,,4650,2021-05-01 19:30:13:584
0.079011,-0.026337,9.727939,0.076793,-0.021347,9.806326,9.5E-5,-0.001236,9.57E-4,2.82,-17.4,-24.42,187.3083,0.1257,-0.4466,55.813915,37.500175,190.8462,NaN,0.0,16.0,,20 / 24,,4660,2021-05-01 19:30:13:594
0.071828,-0.026337,9.763853,0.076793,-0.021347,9.806326,0.001928,0.001208,9.57E-4,2.82,-17.4,-24.42,187.3083,0.1257,-0.4466,55.813915,37.500175,190.8462,NaN,0.0,16.0,,20 / 24,,4670,2021-05-01 19:30:13:604
0.071828,-0.026337,9.763853,0.076969,-0.021869,9.806323,0.001928,0.001208,9.57E-4,3.18,-16.38,-24.3,191.2324,0.1247,-0.4487,55.813915,37.500175,190.8462,NaN,0.0,16.0,,20 / 24,,4680,2021-05-01 19:30:13:614
0.088588,-0.03352,9.771035,0.076969,-0.021869,9.806323,-5.16E-4,-1.4E-5,-2.65E-4,3.18,-16.38,-24.3,191.2324,0.1247,-0.4487,55.813915,37.500175,190.8462,NaN,0.0,16.0,,20 / 24,,4691,2021-05-01 19:30:13:625
0.071828,-0.023943,9.799767,0.076667,-0.021727,9.806326,9.5E-5,0.00304,0.001568,2.82,-16.08,-23.88,191.2324,0.1247,-0.4487,55.813915,37.500175,190.8462,NaN,0.0,16.0,,20 / 24,,4701,2021-05-01 19:30:13:635
0.071828,-0.023943,9.799767,0.076667,-0.021727,9.806326,7.06E-4,0.001208,-0.002097,2.82,-16.08,-23.88,191.2324,0.1247,-0.4487,55.813915,37.500175,190.8462,NaN,0.0,16.0,,20 / 24,,4710,2021-05-01 19:30:13:644
0.071828,-0.01676,9.763853,0.07553,-0.021882,9.806334,-0.001126,-6.25E-4,-2.65E-4,2.7,-17.04,-24.06,190.5875,0.1269,-0.4479,55.813915,37.500175,190.8462,NaN,0.0,16.0,,20 / 24,,4720,2021-05-01 19:30:13:654
0.071828,-0.01676,9.763853,0.07553,-0.021882,9.806334,0.001928,5.97E-4,3.46E-4,2.7,-17.04,-24.06,190.5875,0.1269,-0.4479,55.813915,37.500175,190.8462,NaN,0.0,16.0,,20 / 24,,4730,2021-05-01 19:30:13:664
0.074223,-0.023943,9.727939,0.075111,-0.021815,9.806338,0.001317,0.001819,-2.65E-4,3.24,-16.8,-24.6,190.5875,0.1269,-0.4479,55.813915,37.500175,190.8462,NaN,0.0,16.0,,20 / 24,,4740,2021-05-01 19:30:13:674
0.069434,-0.031126,9.766247,0.075111,-0.021815,9.806338,9.5E-5,-6.25E-4,-2.65E-4,3.24,-16.8,-24.6,190.5875,0.1269,-0.4479,55.813915,37.500175,190.8462,NaN,0.0,16.0,,20 / 24,,4751,2021-05-01 19:30:13:685
0.088588,-0.028731,9.75667,0.074929,-0.021986,9.806339,-5.16E-4,5.97E-4,3.46E-4,3.72,-16.14,-25.08,194.6308,0.1275,-0.4388,55.813915,37.500175,190.8462,NaN,0.0,16.0,,20 / 24,,4761,2021-05-01 19:30:13:695
0.088588,-0.028731,9.75667,0.074509,-0.021683,9.806343,-5.16E-4,5.97E-4,3.46E-4,3.3,-16.38,-24.96,194.6308,0.1275,-0.4388,55.813915,37.500175,190.8462,NaN,0.0,16.0,,20 / 24,,4771,2021-05-01 19:30:13:705
0.071828,-0.023943,9.75667,0.074509,-0.021683,9.806343,7.06E-4,5.97E-4,-0.001486,3.3,-16.38,-24.96,194.6308,0.1275,-0.4388,55.813915,37.500175,190.8462,NaN,0.0,16.0,,20 / 24,,4781,2021-05-01 19:30:13:715
0.076617,-0.007183,9.77343,0.074245,-0.021438,9.806346,0.001928,5.97E-4,0.00279,3.18,-16.74,-24.84,194.6308,0.1275,-0.4388,55.813915,37.500175,190.8462,NaN,0.0,16.0,,20 / 24,,4790,2021-05-01 19:30:13:724
0.071828,-0.021548,9.761458,0.074245,-0.021438,9.806346,9.5E-5,-1.4E-5,-0.002097,3.18,-16.74,-24.84,194.6308,0.1275,-0.4388,55.813915,37.500175,190.8462,NaN,0.0,16.0,,20 / 24,,4800,2021-05-01 19:30:13:734
0.071828,-0.021548,9.761458,0.074505,-0.021534,9.806343,-5.16E-4,-0.002458,-0.001486,3.18,-16.68,-24.42,190.5687,0.1253,-0.4338,55.813915,37.500175,190.8462,NaN,0.0,16.0,,20 / 24,,4810,2021-05-01 19:30:13:744
0.079011,-0.026337,9.727939,0.074741,-0.021576,9.806341,0.001317,-1.4E-5,9.57E-4,3.12,-16.56,-24.24,190.5687,0.1253,-0.4338,55.813915,37.500175,190.8462,NaN,0.0,16.0,,20 / 24,,4820,2021-05-01 19:30:13:754
0.079011,-0.026337,9.727939,0.074741,-0.021576,9.806341,7.06E-4,-0.001847,-8.75E-4,3.12,-16.56,-24.24,190.5687,0.1253,-0.4338,55.813915,37.500175,190.8462,NaN,0.0,16.0,,20 / 24,,4830,2021-05-01 19:30:13:764
0.090982,-0.021548,9.751882,0.074741,-0.021576,9.806341,7.06E-4,-0.001847,-8.75E-4,3.12,-16.56,-24.24,190.5687,0.1253,-0.4338,55.813915,37.500175,190.8462,NaN,0.0,16.0,,20 / 24,,4840,2021-05-01 19:30:13:774
0.090982,-0.021548,9.751882,0.074741,-0.021576,9.806341,7.06E-4,-0.001847,-8.75E-4,3.12,-16.56,-24.24,190.5687,0.1253,-0.4338,55.813915,37.500175,190.8462,NaN,0.0,16.0,,21 / 25,,4851,2021-05-01 19:30:13:785
0.074223,-0.01676,9.761458,0.074741,-0.021576,9.806341,7.06E-4,-0.001847,-8.75E-4,3.12,-16.56,-24.24,190.5687,0.1253,-0.4338,55.813915,37.500175,190.8462,NaN,0.0,16.0,,21 / 25,,4861,2021-05-01 19:30:13:795
0.074223,-0.01676,9.761458,0.074741,-0.021576,9.806341,7.06E-4,-0.001847,-8.75E-4,3.12,-16.56,-24.24,190.5687,0.1253,-0.4338,55.813915,37.500175,190.8462,NaN,0.0,16.0,,21 / 25,,4870,2021-05-01 19:30:13:804
0.079011,-0.038308,9.761458,0.07517,-0.021854,9.806337,-0.002348,-0.001236,-0.001486,2.88,-16.5,-24.24,191.2148,0.1261,-0.4367,55.813915,37.500175,190.8462,NaN,0.0,16.0,,21 / 25,,4880,2021-05-01 19:30:13:814
0.074223,-0.01676,9.766247,0.07517,-0.021854,9.806337,0.001928,0.001208,0.003401,2.88,-16.5,-24.24,191.2148,0.1261,-0.4367,55.813915,37.500175,190.8462,NaN,0.0,16.0,,21 / 25,,4891,2021-05-01 19:30:13:825
0.074223,-0.01676,9.766247,0.076152,-0.023994,9.806325,0.002539,0.001819,0.002179,3.06,-16.74,-24.48,191.2148,0.1261,-0.4367,55.813915,37.500175,190.8462,NaN,0.0,16.0,,21 / 25,,4900,2021-05-01 19:30:13:834
0.081405,-0.014366,9.75667,0.076152,-0.023994,9.806325,9.5E-5,-0.003679,3.46E-4,3.06,-16.74,-24.48,191.2148,0.1261,-0.4367,55.813915,37.500175,190.8462,NaN,0.0,16.0,,21 / 25,,4910,2021-05-01 19:30:13:844
0.059857,-0.007183,9.768641,0.076499,-0.023617,9.806323,7.06E-4,5.97E-4,-0.001486,3.78,-16.32,-24.72,194.6348,0.1402,-0.4449,55.813915,37.500175,190.8462,NaN,0.0,16.0,,21 / 25,,4920,2021-05-01 19:30:13:854
0.079011,-0.026337,9.75667,0.076499,-0.023617,9.806323,7.06E-4,5.97E-4,-0.001486,3.78,-16.32,-24.72,194.6348,0.1402,-0.4449,55.813915,37.500175,190.8462,NaN,0.0,16.0,,21 / 25,,4930,2021-05-01 19:30:13:864
0.076617,-0.014366,9.735122,0.076003,-0.022442,9.80633,-0.001126,-1.4E-5,-2.65E-4,4.08,-16.62,-24.42,194.6348,0.1402,-0.4449,55.813915,37.500175,190.8462,NaN,0.0,16.0,,21 / 25,,4940,2021-05-01 19:30:13:874
0.076617,-0.014366,9.735122,0.076003,-0.022442,9.80633,-0.001126,0.001208,-2.65E-4,4.08,-16.62,-24.42,194.6348,0.1402,-0.4449,55.813915,37.500175,190.8462,NaN,0.0,16.0,,21 / 25,,4950,2021-05-01 19:30:13:884
0.076617,-0.028731,9.744699,0.075703,-0.021414,9.806334,7.06E-4,-0.001847,-8.75E-4,3.66,-16.5,-25.02,194.637,0.1311,-0.4441,55.813915,37.500175,190.8462,NaN,0.0,16.0,,21 / 25,,4960,2021-05-01 19:30:13:894
0.076617,-0.03352,9.744699,0.075864,-0.02134,9.806334,9.5E-5,-1.4E-5,-8.75E-4,3.48,-16.38,-25.02,194.637,0.1311,-0.4441,55.813915,37.500175,190.8462,NaN,0.0,16.0,,21 / 25,,4971,2021-05-01 19:30:13:905
0.071828,-0.019154,9.771035,0.075864,-0.02134,9.806334,-0.001126,5.97E-4,3.46E-4,3.48,-16.38,-25.02,194.637,0.1311,-0.4441,55.813915,37.500175,190.8462,NaN,0.0,16.0,,21 / 25,,4980,2021-05-01 19:30:13:914
0.071828,-0.019154,9.771035,0.076374,-0.021039,9.80633,0.001928,-6.25E-4,0.002179,3.6,-16.68,-24.54,194.637,0.1311,-0.4441,55.813915,37.500175,190.8462,NaN,0.0,16.0,,21 / 25,,4990,2021-05-01 19:30:13:924
0.069434,-0.021548,9.73991,0.076374,-0.021039,9.80633,-5.16E-4,0.00304,-2.65E-4,3.6,-16.68,-24.54,194.637,0.1311,-0.4441,55.813915,37.500175,190.8462,NaN,0.0,16.0,,21 / 25,,5001,2021-05-01 19:30:13:935
0.086194,-0.023943,9.75667,0.076437,-0.02127,9.80633,-5.16E-4,0.001208,-2.65E-4,3.78,-16.86,-24.6,193.8185,0.1229,-0.4462,55.813915,37.500175,190.8462,NaN,0.0,16.0,,21 / 25,,5010,2021-05-01 19:30:13:944
0.086194,-0.023943,9.75667,0.076322,-0.02102,9.806331,-5.16E-4,0.001208,-2.65E-4,3.54,-17.16,-24.9,193.8185,0.1229,-0.4462,55.813915,37.500175,190.8462,NaN,0.0,16.0,,21 / 25,,5020,2021-05-01 19:30:13:954
0.071828,-0.026337,9.771035,0.076322,-0.02102,9.806331,-0.001126,-1.4E-5,-8.75E-4,3.54,-17.16,-24.9,193.8185,0.1229,-0.4462,55.813915,37.500175,190.8462,NaN,0.0,16.0,,21 / 25,,5030,2021-05-01 19:30:13:964
0.064645,-0.026337,9.771035,0.076262,-0.020982,9.806331,-5.16E-4,-6.25E-4,3.46E-4,3.12,-16.86,-23.94,193.8185,0.1229,-0.4462,55.813915,37.500175,190.8462,NaN,0.0,16.0,,21 / 25,,5040,2021-05-01 19:30:13:974
0.069434,-0.026337,9.73991,0.076262,-0.020982,9.806331,-0.001126,-6.25E-4,9.57E-4,3.12,-16.86,-23.94,193.8185,0.1229,-0.4462,55.813915,37.500175,190.8462,NaN,0.0,16.0,,21 / 25,,5050,2021-05-01 19:30:13:984
0.076617,-0.035914,9.775824,0.076388,-0.021162,9.80633,-0.001126,-1.4E-5,9.57E-4,3.54,-16.38,-24.12,194.6183,0.1226,-0.4456,55.813915,37.500175,190.8462,NaN,0.0,16.0,,21 / 25,,5061,2021-05-01 19:30:13:995
0.076617,-0.035914,9.775824,0.076393,-0.021268,9.80633,7.06E-4,5.97E-4,-2.65E-4,3.9,-16.56,-24.78,194.6183,0.1226,-0.4456,55.813915,37.500175,190.8462,NaN,0.0,16.0,,21 / 25,,5071,2021-05-01 19:30:14:005
0.076617,0.0,9.771035,0.076393,-0.021268,9.80633,7.06E-4,0.001819,9.57E-4,3.9,-16.56,-24.78,194.6183,0.1226,-0.4456,55.813915,37.500175,190.8462,NaN,0.0,16.0,,21 / 25,,5081,2021-05-01 19:30:14:015
0.081405,-0.021548,9.747093,0.076244,-0.020991,9.806331,0.001317,-1.4E-5,-8.75E-4,3.72,-16.44,-25.02,194.6183,0.1226,-0.4456,55.813915,37.500175,190.8462,NaN,0.0,16.0,,21 / 25,,5091,2021-05-01 19:30:14:025
0.074223,-0.019154,9.754275,0.076244,-0.020991,9.806331,-5.16E-4,-1.4E-5,3.46E-4,3.72,-16.44,-25.02,194.6183,0.1226,-0.4456,55.813915,37.500175,190.8462,NaN,0.0,16.0,,21 / 25,,5100,2021-05-01 19:30:14:034
0.074223,-0.019154,9.754275,0.075737,-0.020124,9.806336,-0.001737,5.97E-4,0.00279,3.3,-16.62,-24.6,190.6092,0.1226,-0.4455,55.813915,37.500175,190.8462,NaN,0.0,16.0,,21 / 25,,5110,2021-05-01 19:30:14:044
0.090982,-0.03352,9.737515,0.075737,-0.020124,9.806336,7.06E-4,-1.4E-5,9.57E-4,3.3,-16.62,-24.6,190.6092,0.1226,-0.4455,55.813915,37.500175,190.8462,NaN,0.0,16.0,,21 / 25,,5120,2021-05-01 19:30:14:054
0.069434,-0.021548,9.768641,0.075229,-0.020099,9.806341,7.06E-4,-1.4E-5,9.57E-4,3.78,-17.1,-24.12,190.6092,0.1226,-0.4455,55.813915,37.500175,190.8462,NaN,0.0,16.0,,21 / 25,,5131,2021-05-01 19:30:14:065
0.06704,-0.026337,9.780613,0.075229,-0.020099,9.806341,-0.002348,0.001819,3.46E-4,3.78,-17.1,-24.12,190.6092,0.1226,-0.4455,55.813915,37.500175,190.8462,NaN,0.0,16.0,,21 / 25,,5140,2021-05-01 19:30:14:074
0.059857,-0.014366,9.763853,0.07517,-0.020019,9.806341,9.5E-5,-0.001236,0.003401,3.96,-16.5,-24.18,194.6118,0.1174,-0.4395,55.813915,37.500175,190.8462,NaN,0.0,16.0,,21 / 25,,5150,2021-05-01 19:30:14:084
0.059857,-0.014366,9.763853,0.07517,-0.020019,9.806341,7.06E-4,5.97E-4,-8.75E-4,3.96,-16.5,-24.18,194.6118,0.1174,-0.4395,55.813915,37.500175,190.8462,NaN,0.0,16.0,,21 / 25,,5160,2021-05-01 19:30:14:094
0.079011,-0.01676,9.751882,0.075279,-0.019645,9.806341,0.002539,-1.4E-5,0.001568,3.24,-16.2,-25.02,194.6118,0.1174,-0.4395,55.813915,37.500175,190.8462,NaN,0.0,16.0,,21 / 25,,5170,2021-05-01 19:30:14:104
0.079011,-0.038308,9.713573,0.075279,-0.019645,9.806341,7.06E-4,-6.25E-4,-0.002708,3.24,-16.2,-25.02,194.6118,0.1174,-0.4395,55.813915,37.500175,190.8462,NaN,0.0,16.0,,21 / 25,,5181,2021-05-01 19:30:14:115
0.074223,-0.01676,9.763853,0.075599,-0.01978,9.806338,0.001928,0.001208,0.001568,3.24,-15.96,-24.66,191.2475,0.1148,-0.4398,55.813915,37.500175,190.8462,NaN,0.0,16.0,,21 / 25,,5190,2021-05-01 19:30:14:124
0.076617,-0.021548,9.771035,0.075599,-0.01978,9.806338,9.5E-5,-0.001847,-8.75E-4,3.24,-15.96,-24.66,191.2475,0.1148,-0.4398,55.813915,37.500175,190.8462,NaN,0.0,16.0,,21 / 25,,5200,2021-05-01 19:30:14:134
0.0838,-0.009577,9.783007,0.075549,-0.020235,9.806338,9.5E-5,0.001819,0.001568,3.12,-15.78,-24.06,191.2475,0.1148,-0.4398,55.813915,37.500175,190.8462,NaN,0.0,16.0,,21 / 25,,5211,2021-05-01 19:30:14:145
0.0838,-0.009577,9.783007,0.075455,-0.020926,9.806338,-5.16E-4,-1.4E-5,3.46E-4,3.12,-16.08,-23.82,191.2475,0.1148,-0.4398,55.813915,37.500175,190.8462,NaN,0.0,16.0,,21 / 25,,5220,2021-05-01 19:30:14:154
0.086194,-0.03352,9.783007,0.075455,-0.020926,9.806338,0.001317,-0.001236,0.00279,3.12,-16.08,-23.82,191.2475,0.1148,-0.4398,55.813915,37.500175,190.8462,NaN,0.0,16.0,,21 / 25,,5230,2021-05-01 19:30:14:164
0.071828,-0.021548,9.732727,0.07573,-0.021901,9.806334,0.001317,-0.001236,0.00279,2.94,-16.8,-24.72,190.6027,0.1223,-0.4409,55.813915,37.500175,190.8462,NaN,0.0,16.0,,21 / 25,,5240,2021-05-01 19:30:14:174
0.090982,-0.023943,9.768641,0.07573,-0.021901,9.806334,-0.001737,5.97E-4,-0.001486,2.94,-16.8,-24.72,190.6027,0.1223,-0.4409,55.813915,37.500175,190.8462,NaN,0.0,16.0,,21 / 25,,5250,2021-05-01 19:30:14:184
0.090982,-0.023943,9.768641,0.076487,-0.022653,9.806326,-0.001737,0.001819,0.001568,2.7,-16.98,-24.24,190.6027,0.1223,-0.4409,55.813915,37.500175,190.8462,NaN,0.0,16.0,,21 / 25,,5260,2021-05-01 19:30:14:194
0.079011,-0.009577,9.754275,0.076543,-0.022821,9.806325,9.5E-5,0.001208,-8.75E-4,3.0,-17.22,-24.0,190.6027,0.1223,-0.4409,55.813915,37.500175,190.8462,NaN,0.0,16.0,,21 / 25,,5270,2021-05-01 19:30:14:204
0.079011,-0.009577,9.754275,0.076543,-0.022821,9.806325,-0.001737,-0.001236,9.57E-4,3.0,-17.22,-24.0,190.6027,0.1223,-0.4409,55.813915,37.500175,190.8462,NaN,0.0,16.0,,21 / 25,,5280,2021-05-01 19:30:14:214
0.076617,-0.038308,9.727939,0.076123,-0.023035,9.806328,9.5E-5,0.001819,0.001568,3.48,-17.34,-24.06,190.5849,0.1333,-0.4472,55.813915,37.500175,190.8462,NaN,0.0,16.0,,21 / 25,,5290,2021-05-01 19:30:14:224
0.076617,-0.038308,9.727939,0.076123,-0.023035,9.806328,9.5E-5,0.001819,0.001568,3.48,-17.34,-24.06,190.5849,0.1333,-0.4472,55.813915,37.500175,190.8462,NaN,0.0,16.0,,21 / 25,,5300,2021-05-01 19:30:14:234
0.076617,-0.01676,9.79019,0.07619,-0.023134,9.806327,-5.16E-4,5.97E-4,0.001568,3.6,-16.74,-24.36,190.5849,0.1333,-0.4472,55.813915,37.500175,190.8462,NaN,0.0,16.0,,21 / 25,,5310,2021-05-01 19:30:14:244
0.071828,-0.026337,9.787795,0.076244,-0.022828,9.806327,-5.16E-4,-0.003068,-8.75E-4,3.54,-16.38,-24.54,194.637,0.1352,-0.4451,55.813915,37.500175,190.8462,NaN,0.0,16.0,,21 / 25,,5321,2021-05-01 19:30:14:255
0.071828,-0.026337,9.787795,0.076244,-0.022828,9.806327,-0.001126,-0.002458,-0.001486,3.54,-16.38,-24.54,194.637,0.1352,-0.4451,55.813915,37.500175,190.8462,NaN,0.0,16.0,,21 / 25,,5330,2021-05-01 19:30:14:264
0.074223,-0.040703,9.749487,0.076498,-0.022863,9.806325,-0.002348,-0.001236,-8.75E-4,3.78,-15.78,-24.78,194.637,0.1352,-0.4451,55.813915,37.500175,190.8462,NaN,0.0,16.0,,21 / 25,,5340,2021-05-01 19:30:14:274
0.074223,-0.01676,9.766247,0.076498,-0.022863,9.806325,0.001928,5.97E-4,-2.65E-4,3.78,-15.78,-24.78,194.637,0.1352,-0.4451,55.813915,37.500175,190.8462,NaN,0.0,16.0,,21 / 25,,5350,2021-05-01 19:30:14:284
0.074223,-0.01676,9.766247,0.076677,-0.022737,9.806324,-0.001126,0.001819,0.00279,3.24,-15.9,-24.54,191.2526,0.1336,-0.4469,55.813915,37.500175,190.8462,NaN,0.0,16.0,,21 / 25,,5360,2021-05-01 19:30:14:294
0.069434,-0.03352,9.718362,0.076651,-0.023245,9.806323,-0.001126,0.001819,0.00279,3.0,-16.2,-25.02,191.2526,0.1336,-0.4469,55.813915,37.500175,190.8462,NaN,0.0,16.0,,21 / 25,,5370,2021-05-01 19:30:14:304
0.074223,-0.03352,9.766247,0.076651,-0.023245,9.806323,7.06E-4,-0.001847,-2.65E-4,3.0,-16.2,-25.02,191.2526,0.1336,-0.4469,55.813915,37.500175,190.8462,NaN,0.0,16.0,,21 / 25,,5380,2021-05-01 19:30:14:314
0.074223,-0.03352,9.766247,0.076649,-0.023053,9.806324,-0.002959,-0.002458,0.002179,3.0,-16.86,-25.2,191.2526,0.1336,-0.4469,55.813915,37.500175,190.8462,NaN,0.0,16.0,,21 / 25,,5391,2021-05-01 19:30:14:325
0.06704,-0.023943,9.775824,0.076649,-0.023053,9.806324,9.5E-5,0.002429,-0.001486,3.0,-16.86,-25.2,191.2526,0.1336,-0.4469,55.813915,37.500175,190.8462,NaN,0.0,16.0,,21 / 25,,5401,2021-05-01 19:30:14:335
0.06704,-0.031126,9.744699,0.076598,-0.023271,9.806323,-0.002959,-6.25E-4,-0.001486,3.18,-16.62,-24.96,190.6093,0.1347,-0.4478,55.813915,37.500175,190.8462,NaN,0.0,16.0,,21 / 25,,5411,2021-05-01 19:30:14:345
0.06704,-0.011971,9.761458,0.076785,-0.023443,9.806322,-0.001737,-0.001236,9.57E-4,3.6,-16.86,-24.6,190.6093,0.1347,-0.4478,55.813915,37.500175,190.8462,NaN,0.0,16.0,,21 / 25,,5420,2021-05-01 19:30:14:354
0.081405,-0.011971,9.761458,0.076785,-0.023443,9.806322,9.5E-5,5.97E-4,0.002179,3.6,-16.86,-24.6,190.6093,0.1347,-0.4478,55.813915,37.500175,190.8462,NaN,0.0,16.0,,21 / 25,,5430,2021-05-01 19:30:14:364
0.081405,-0.028731,9.768641,0.076774,-0.023793,9.806321,0.001317,-0.003068,-0.001486,3.0,-17.28,-24.78,190.6093,0.1347,-0.4478,55.813915,37.500175,190.8462,NaN,0.0,16.0,,21 / 25,,5440,2021-05-01 19:30:14:374
0.071828,-0.040703,9.744699,0.076774,-0.023793,9.806321,0.001317,5.97E-4,-0.003319,3.0,-17.28,-24.78,190.6093,0.1347,-0.4478,55.813915,37.500175,190.8462,NaN,0.0,16.0,,21 / 25,,5451,2021-05-01 19:30:14:385
0.071828,-0.040703,9.744699,0.077605,-0.023627,9.806314,0.001317,5.97E-4,-0.003319,3.18,-17.16,-24.96,190.6092,0.139,-0.4486,55.813915,37.500175,190.8462,NaN,0.0,16.0,,21 / 25,,5460,2021-05-01 19:30:14:394
0.0838,-0.01676,9.759064,0.0779,-0.022908,9.806314,0.001317,-6.25E-4,0.00279,3.36,-16.86,-24.84,190.6092,0.139,-0.4486,55.813915,37.500175,190.8462,NaN,0.0,16.0,,21 / 25,,5472,2021-05-01 19:30:14:406
0.0838,-0.031126,9.768641,0.0779,-0.022908,9.806314,0.001317,-6.25E-4,0.00279,3.36,-16.86,-24.84,190.6092,0.139,-0.4486,55.813915,37.500175,190.8462,NaN,0.0,16.0,,21 / 25,,5480,2021-05-01 19:30:14:414
0.081405,-0.014366,9.768641,0.07843,-0.021759,9.806313,-5.16E-4,-6.25E-4,-0.002097,3.48,-16.8,-24.78,190.6092,0.139,-0.4486,55.813915,37.500175,190.8462,NaN,0.0,16.0,,21 / 25,,5490,2021-05-01 19:30:14:424
0.088588,-0.023943,9.768641,0.07843,-0.021759,9.806313,7.06E-4,-1.4E-5,-2.65E-4,3.48,-16.8,-24.78,190.6092,0.139,-0.4486,55.813915,37.500175,190.8462,NaN,0.0,16.0,,21 / 25,,5500,2021-05-01 19:30:14:434
0.088588,-0.023943,9.768641,0.078412,-0.021249,9.806314,-0.001737,-0.001847,-0.003319,3.24,-16.44,-24.72,191.2714,0.1271,-0.4582,55.813915,37.500175,190.8462,NaN,0.0,16.0,,21 / 25,,5510,2021-05-01 19:30:14:444
0.079011,-0.01676,9.744699,0.078456,-0.020969,9.806314,7.06E-4,-0.001847,-8.75E-4,3.42,-16.62,-24.78,191.2714,0.1271,-0.4582,55.813915,37.500175,190.8462,NaN,0.0,16.0,,21 / 25,,5520,2021-05-01 19:30:14:454
0.069434,-0.009577,9.783007,0.078456,-0.020969,9.806314,0.001317,5.97E-4,-0.002097,3.42,-16.62,-24.78,191.2714,0.1271,-0.4582,55.813915,37.500175,190.8462,NaN,0.0,16.0,,21 / 25,,5530,2021-05-01 19:30:14:464
0.074223,-0.019154,9.794978,0.078865,-0.020824,9.806312,-0.001126,-1.4E-5,-0.002097,3.42,-15.9,-24.84,191.2714,0.1271,-0.4582,55.813915,37.500175,190.8462,NaN,0.0,16.0,,21 / 25,,5541,2021-05-01 19:30:14:475
0.074223,-0.019154,9.794978,0.078865,-0.020824,9.806312,9.5E-5,-1.4E-5,-8.75E-4,3.42,-15.9,-24.84,191.2714,0.1271,-0.4582,55.813915,37.500175,190.8462,NaN,0.0,16.0,,21 / 25,,5550,2021-05-01 19:30:14:484
0.062251,-0.021548,9.751882,0.078563,-0.020681,9.806314,9.5E-5,-1.4E-5,-8.75E-4,3.0,-16.38,-25.32,191.2768,0.1217,-0.4608,55.813915,37.500175,190.8462,NaN,0.0,16.0,,21 / 25,,5560,2021-05-01 19:30:14:494
0.076617,-0.011971,9.751882,0.078561,-0.020725,9.806314,-5.16E-4,-6.25E-4,0.00279,3.12,-16.32,-24.96,191.2768,0.1217,-0.4608,55.813915,37.500175,190.8462,NaN,0.0,16.0,,21 / 25,,5570,2021-05-01 19:30:14:504
0.076617,-0.028731,9.77343,0.078561,-0.020725,9.806314,7.06E-4,0.001819,-8.75E-4,3.12,-16.32,-24.96,191.2768,0.1217,-0.4608,55.813915,37.500175,190.8462,NaN,0.0,16.0,,21 / 25,,5580,2021-05-01 19:30:14:514
0.076617,-0.028731,9.77343,0.077553,-0.020174,9.806323,0.00315,-1.4E-5,3.46E-4,3.06,-16.44,-24.78,191.2768,0.1217,-0.4608,55.813915,37.500175,190.8462,NaN,0.0,16.0,,21 / 25,,5590,2021-05-01 19:30:14:524
0.086194,-0.01676,9.768641,0.077553,-0.020174,9.806323,-0.001737,-0.001236,-0.001486,3.06,-16.44,-24.78,191.2768,0.1217,-0.4608,55.813915,37.500175,190.8462,NaN,0.0,16.0,,21 / 25,,5601,2021-05-01 19:30:14:535
0.06704,-0.011971,9.751882,0.077043,-0.020192,9.806327,9.5E-5,-0.001847,-8.75E-4,3.12,-16.98,-24.6,190.6212,0.1179,-0.4531,55.813915,37.500175,190.8462,NaN,0.0,16.0,,21 / 25,,5610,2021-05-01 19:30:14:544
0.071828,-0.021548,9.761458,0.077228,-0.020171,9.806325,7.06E-4,-1.4E-5,9.57E-4,3.06,-17.04,-24.06,190.6212,0.1179,-0.4531,55.813915,37.500175,190.8462,NaN,0.0,16.0,,21 / 25,,5620,2021-05-01 19:30:14:554
0.071828,-0.021548,9.761458,0.077228,-0.020171,9.806325,0.001928,-0.001236,-2.65E-4,3.06,-17.04,-24.06,190.6212,0.1179,-0.4531,55.813915,37.500175,190.8462,NaN,0.0,16.0,,21 / 25,,5630,2021-05-01 19:30:14:564
0.079011,-0.023943,9.77343,0.077283,-0.020103,9.806325,-5.16E-4,-1.4E-5,9.57E-4,3.48,-16.56,-24.54,190.6212,0.1179,-0.4531,55.813915,37.500175,190.8462,NaN,0.0,16.0,,21 / 25,,5640,2021-05-01 19:30:14:574
0.079011,-0.023943,9.77343,0.077283,-0.020103,9.806325,-5.16E-4,-1.4E-5,9.57E-4,3.48,-16.56,-24.54,190.6212,0.1179,-0.4531,55.813915,37.500175,190.8462,NaN,0.0,16.0,,21 / 25,,5650,2021-05-01 19:30:14:584
0.074223,-0.023943,9.749487,0.077544,-0.020198,9.806323,9.5E-5,5.97E-4,3.46E-4,2.88,-15.96,-25.14,191.2643,0.1175,-0.4515,55.813915,37.500175,190.8462,NaN,0.0,16.0,,21 / 25,,5660,2021-05-01 19:30:14:594
0.064645,-0.038308,9.751882,0.077592,-0.020306,9.806322,7.06E-4,-0.001236,0.002179,3.06,-16.38,-25.2,191.2643,0.1175,-0.4515,55.813915,37.500175,190.8462,NaN,0.0,16.0,,21 / 25,,5670,2021-05-01 19:30:14:604
0.064645,-0.038308,9.751882,0.077592,-0.020306,9.806322,7.06E-4,-0.001236,0.002179,3.06,-16.38,-25.2,191.2643,0.1175,-0.4515,55.813915,37.500175,190.8462,NaN,0.0,16.0,,21 / 25,,5680,2021-05-01 19:30:14:614
0.074223,-0.038308,9.744699,0.078072,-0.02041,9.806318,-0.001737,5.97E-4,-8.75E-4,3.24,-16.68,-24.9,191.2643,0.1175,-0.4515,55.813915,37.500175,190.8462,NaN,0.0,16.0,,21 / 25,,5690,2021-05-01 19:30:14:624
0.06704,-0.014366,9.761458,0.078072,-0.02041,9.806318,7.06E-4,5.97E-4,3.46E-4,3.24,-16.68,-24.9,191.2643,0.1175,-0.4515,55.813915,37.500175,190.8462,NaN,0.0,16.0,,21 / 25,,5700,2021-05-01 19:30:14:634
0.06704,-0.014366,9.761458,0.077934,-0.021142,9.806317,9.5E-5,-0.003068,-0.002097,3.36,-16.86,-24.96,190.6251,0.1192,-0.4561,55.813915,37.500175,190.8462,NaN,0.0,16.0,,21 / 25,,5710,2021-05-01 19:30:14:644
0.0838,-0.03352,9.735122,0.078108,-0.021191,9.806315,-0.001737,-0.001236,-8.75E-4,3.0,-16.98,-24.78,190.6251,0.1192,-0.4561,55.813915,37.500175,190.8462,NaN,0.0,16.0,,21 / 25,,5720,2021-05-01 19:30:14:654
0.0838,-0.03352,9.735122,0.078108,-0.021191,9.806315,-0.001737,-0.001236,-8.75E-4,3.0,-16.98,-24.78,190.6251,0.1192,-0.4561,55.813915,37.500175,190.8462,NaN,0.0,16.0,,21 / 25,,5730,2021-05-01 19:30:14:664
0.062251,-0.028731,9.763853,0.078437,-0.02158,9.806313,-0.001737,-0.001847,9.57E-4,3.48,-16.92,-24.06,190.6251,0.1192,-0.4561,55.813915,37.500175,190.8462,NaN,0.0,16.0,,21 / 25,,5741,2021-05-01 19:30:14:675
0.06704,-0.026337,9.73991,0.078437,-0.02158,9.806313,7.06E-4,-0.002458,9.57E-4,3.48,-16.92,-24.06,190.6251,0.1192,-0.4561,55.813915,37.500175,190.8462,NaN,0.0,16.0,,21 / 25,,5751,2021-05-01 19:30:14:685
0.06704,-0.026337,9.73991,0.078129,-0.022132,9.806314,7.06E-4,-0.001236,-0.001486,3.78,-17.22,-24.66,193.8341,0.1261,-0.4583,55.813915,37.500175,190.8462,NaN,0.0,16.0,,21 / 25,,5760,2021-05-01 19:30:14:694
0.095771,-0.014366,9.77343,0.078129,-0.022132,9.806314,-5.16E-4,0.004262,9.57E-4,3.78,-17.22,-24.66,193.8341,0.1261,-0.4583,55.813915,37.500175,190.8462,NaN,0.0,16.0,,21 / 25,,5771,2021-05-01 19:30:14:705
0.076617,-0.031126,9.747093,0.078315,-0.022348,9.806312,-0.001126,-6.25E-4,-2.65E-4,2.94,-17.16,-25.08,193.8341,0.1261,-0.4583,55.813915,37.500175,190.8462,NaN,0.0,16.0,,21 / 25,,5780,2021-05-01 19:30:14:714
0.071828,-0.019154,9.75667,0.078315,-0.022348,9.806312,0.001928,-1.4E-5,9.57E-4,2.94,-17.16,-25.08,193.8341,0.1261,-0.4583,55.813915,37.500175,190.8462,NaN,0.0,16.0,,21 / 25,,5790,2021-05-01 19:30:14:724
0.071828,-0.019154,9.75667,0.078187,-0.022215,9.806314,0.001928,-1.4E-5,9.57E-4,2.7,-16.68,-25.26,190.6242,0.1306,-0.4576,55.813915,37.500175,190.8462,NaN,0.0,16.0,,21 / 25,,5800,2021-05-01 19:30:14:734
0.088588,-0.035914,9.73991,0.078187,-0.022215,9.806314,9.5E-5,-6.25E-4,-2.65E-4,2.7,-16.68,-25.26,190.6242,0.1306,-0.4576,55.813915,37.500175,190.8462,NaN,0.0,16.0,,21 / 25,,5811,2021-05-01 19:30:14:745
0.069434,-0.028731,9.759064,0.078256,-0.022507,9.806313,9.5E-5,-6.25E-4,-2.65E-4,3.6,-16.62,-25.38,190.6242,0.1306,-0.4576,55.813915,37.500175,190.8462,NaN,0.0,16.0,,21 / 25,,5821,2021-05-01 19:30:14:755
0.062251,-0.01676,9.763853,0.078256,-0.022507,9.806313,-5.16E-4,0.002429,-0.002708,3.6,-16.62,-25.38,190.6242,0.1306,-0.4576,55.813915,37.500175,190.8462,NaN,0.0,16.0,,21 / 25,,5831,2021-05-01 19:30:14:765
0.079011,-0.01676,9.744699,0.077786,-0.022658,9.806315,9.5E-5,-1.4E-5,-0.002097,3.42,-16.26,-25.26,191.2686,0.1315,-0.4572,55.813915,37.500175,190.8462,NaN,0.0,16.0,,21 / 25,,5841,2021-05-01 19:30:14:775
