ACCELEROMETER X (m/s²),ACCELEROMETER Y (m/s²),ACCELEROMETER Z (m/s²),GYROSCOPE X (rad/s),GYROSCOPE Y (rad/s),GYROSCOPE Z (rad/s),MAGNETIC FIELD X (μT),MAGNETIC FIELD Y (μT),MAGNETIC FIELD Z (μT),ORIENTATION Z (azimuth °),ORIENTATION X (pitch °),ORIENTATION Y (roll °),LOCATION Latitude : ,LOCATION Longitude : ,LOCATION Altitude ( m),LOCATION Accuracy ( m),Time since start in ms 
0.021548,0.052674,9.883567,0.001021,-0.001728,2.5E-05,28.56,-22.08,-5.94,232.8814,-0.437,-0.2263,55.814102,37.500412,208.2,20.585,21
0.045491,0.069434,9.859624,-0.002033,0.000716,-0.001808,28.08,-22.26,-5.64,231.9244,-0.4406,-0.2275,55.814102,37.500412,208.2,20.585,31
0.045491,0.069434,9.859624,-0.002033,0.000716,-0.001808,28.08,-22.26,-5.64,231.9244,-0.4406,-0.2275,55.814102,37.500412,208.2,20.585,41
0.055068,0.102954,9.866806,0.001021,-0.000506,-0.001808,28.26,-21.84,-5.34,231.9244,-0.4406,-0.2275,55.814102,37.500412,208.2,20.585,50
0.023943,0.076617,9.871595,-0.0002,0.002549,0.001858,28.5,-21.12,-4.62,231.9244,-0.4406,-0.2275,55.814102,37.500412,208.2,20.585,61
0.023943,0.076617,9.871595,-0.0002,0.001327,0.001858,28.5,-21.12,-4.62,231.9244,-0.4406,-0.2275,55.814102,37.500412,208.2,20.585,71
0.040703,0.071828,9.857229,-0.000811,-0.000506,0.000636,28.56,-20.88,-5.04,234.1578,-0.4401,-0.2224,55.814102,37.500412,208.2,20.585,80
0.038308,0.079011,9.873989,-0.0002,0.000716,-0.001808,28.8,-20.7,-5.4,234.1578,-0.4401,-0.2224,55.814102,37.500412,208.2,20.585,91
0.038308,0.079011,9.873989,-0.0002,0.001327,0.001858,28.8,-20.7,-5.4,234.1578,-0.4401,-0.2224,55.814102,37.500412,208.2,20.585,101
0.028731,0.062251,9.871595,-0.001422,-0.001117,0.001858,28.86,-20.82,-5.22,234.1578,-0.4401,-0.2224,55.814102,37.500412,208.2,20.585,111
0.021548,0.093377,9.895537,0.001021,-0.000506,-0.000586,28.86,-20.82,-5.22,234.1578,-0.4401,-0.2224,55.814102,37.500412,208.2,20.585,121
0.035914,0.095771,9.890749,-0.002033,-0.002949,0.000636,28.8,-21.66,-5.1,232.8808,-0.4395,-0.2141,55.814102,37.500412,208.2,20.585,131
0.026337,0.086194,9.890749,0.002243,-0.001728,-0.001808,28.8,-21.66,-5.1,232.8808,-0.4395,-0.2141,55.814102,37.500412,208.2,20.585,141
0.026337,0.086194,9.890749,0.002243,0.001327,0.00369,29.22,-22.02,-4.68,232.8808,-0.4395,-0.2141,55.814102,37.500412,208.2,20.585,151
0.035914,0.074223,9.881172,-0.000811,-0.001117,2.5E-05,29.22,-22.02,-4.68,232.8808,-0.4395,-0.2141,55.814102,37.500412,208.2,20.585,161
0.01676,0.062251,9.888355,0.001632,0.000716,2.5E-05,29.58,-21.78,-4.5,233.7974,-0.4439,-0.2073,55.814102,37.500412,208.2,20.585,171
0.03352,0.06704,9.881172,0.000411,0.000105,-0.001808,29.58,-21.78,-4.5,233.7974,-0.4439,-0.2073,55.814102,37.500412,208.2,20.585,180
0.035914,0.076617,9.883567,0.000411,-0.001728,-0.002418,28.68,-21.72,-4.92,233.7974,-0.4439,-0.2073,55.814102,37.500412,208.2,20.585,191
0.035914,0.076617,9.883567,-0.001422,-0.001728,-0.00364,28.68,-21.72,-4.92,233.7974,-0.4439,-0.2073,55.814102,37.500412,208.2,20.585,200
0.059857,0.069434,9.888355,-0.001422,0.001938,-0.002418,28.8,-21.06,-4.98,234.1567,-0.4446,-0.2012,55.814102,37.500412,208.2,20.585,211
0.035914,0.071828,9.897932,-0.001422,0.001327,0.001247,28.8,-21.06,-4.98,234.1567,-0.4446,-0.2012,55.814102,37.500412,208.2,20.585,221
0.031126,0.076617,9.876384,0.002243,-0.001117,0.000636,29.64,-20.64,-5.46,234.1567,-0.4446,-0.2012,55.814102,37.500412,208.2,20.585,230
0.031126,0.086194,9.881172,0.000411,0.000716,0.003079,29.4,-20.7,-5.22,234.1567,-0.4446,-0.2012,55.814102,37.500412,208.2,20.585,242
0.031126,0.086194,9.881172,-0.000811,-0.00356,-0.002418,29.4,-20.7,-5.22,234.1567,-0.4446,-0.2012,55.814102,37.500412,208.2,20.585,251
0.026337,0.088588,9.881172,-0.002033,-0.001117,-0.000586,29.1,-20.94,-5.46,234.1565,-0.4443,-0.1992,55.814102,37.500412,208.2,20.585,261
0.055068,0.076617,9.907509,0.000411,0.000105,0.000636,29.1,-20.94,-5.46,234.1565,-0.4443,-0.1992,55.814102,37.500412,208.2,20.585,271
0.03352,0.076617,9.912297,0.000411,0.00377,2.5E-05,29.22,-21.84,-4.98,234.1565,-0.4443,-0.1992,55.814102,37.500412,208.2,20.585,280
0.03352,0.074223,9.888355,0.000411,0.00377,2.5E-05,29.22,-21.84,-4.98,234.1565,-0.4443,-0.1992,55.814102,37.500412,208.2,20.585,291
0.03352,0.074223,9.888355,-0.000811,0.001327,-0.001197,28.68,-21.72,-5.04,232.8804,-0.4446,-0.2011,55.814102,37.500412,208.2,20.585,301
0.021548,0.090982,9.866806,0.004076,-0.000506,0.001858,28.68,-21.72,-5.04,232.8804,-0.4446,-0.2011,55.814102,37.500412,208.2,20.585,310
0.035914,0.071828,9.883567,0.002243,0.001938,-0.000586,28.62,-21.72,-5.46,232.8804,-0.4446,-0.2011,55.814102,37.500412,208.2,20.585,322
0.023943,0.076617,9.890749,-0.002033,0.000105,-0.001808,28.62,-21.72,-5.46,232.8804,-0.4446,-0.2011,55.814102,37.500412,208.2,20.585,331
0.023943,0.076617,9.890749,-0.002033,0.000105,-0.001808,29.34,-21.36,-5.46,234.1569,-0.4466,-0.2008,55.814102,37.500412,208.2,20.585,340
0.062251,0.059857,9.864412,-0.0002,-0.001728,-0.003029,29.34,-21.36,-5.46,234.1569,-0.4466,-0.2008,55.814102,37.500412,208.2,20.585,351
0.055068,0.069434,9.871595,0.001632,-0.00356,-0.000586,29.52,-21.36,-5.82,234.1569,-0.4466,-0.2008,55.814102,37.500412,208.2,20.585,361
0.035914,0.086194,9.869201,0.001021,-0.001728,0.001247,29.52,-21.36,-5.82,234.1569,-0.4466,-0.2008,55.814102,37.500412,208.2,20.585,371
0.035914,0.086194,9.869201,0.001632,-0.000506,-0.001808,29.28,-21.6,-5.4,232.8798,-0.4405,-0.2,55.814102,37.500412,208.2,20.585,381
0.035914,0.069434,9.881172,-0.002033,0.000105,0.000636,29.28,-21.6,-5.4,232.8798,-0.4405,-0.2,55.814102,37.500412,208.2,20.585,391
0.052674,0.076617,9.878778,0.001632,0.000716,2.5E-05,29.34,-21.72,-5.46,232.8798,-0.4405,-0.2,55.814102,37.500412,208.2,20.585,401
0.031126,0.071828,9.917087,0.000411,0.001327,-0.000586,29.34,-21.72,-5.46,232.8798,-0.4405,-0.2,55.814102,37.500412,208.2,20.585,411
0.035914,0.064645,9.869201,-0.000811,0.001327,-0.002418,29.04,-22.08,-5.28,232.88,-0.4342,-0.2121,55.814102,37.500412,208.2,20.585,420
0.035914,0.064645,9.869201,-0.002033,-0.002949,2.5E-05,29.04,-22.14,-5.1,232.88,-0.4342,-0.2121,55.814102,37.500412,208.2,20.585,431
0.040703,0.079011,9.864412,-0.002033,-0.002338,2.5E-05,29.04,-22.14,-5.1,232.88,-0.4342,-0.2121,55.814102,37.500412,208.2,20.585,441
0.026337,0.069434,9.890749,-0.002033,-0.002338,2.5E-05,28.56,-22.14,-4.74,232.88,-0.4342,-0.2121,55.814102,37.500412,208.2,20.585,451
0.047885,0.074223,9.883567,-0.001422,0.000105,-0.001808,28.44,-21.96,-5.04,231.9094,-0.4341,-0.2203,55.814102,37.500412,208.2,20.585,461
0.047885,0.074223,9.883567,0.000411,-0.000506,-0.001197,28.44,-21.96,-5.04,231.9094,-0.4341,-0.2203,55.814102,37.500412,208.2,20.585,471
0.043097,0.071828,9.866806,-0.001422,-0.001117,2.5E-05,28.68,-21.48,-5.46,231.9094,-0.4341,-0.2203,55.814102,37.500412,208.2,20.585,481
0.045491,0.074223,9.878778,0.001632,0.000716,2.5E-05,28.68,-21.48,-5.46,231.9094,-0.4341,-0.2203,55.814102,37.500412,208.2,20.585,490
0.031126,0.069434,9.850046,-0.001422,0.001327,2.5E-05,28.44,-21.36,-5.16,233.1977,-0.4286,-0.2233,55.814102,37.500412,208.2,20.585,501
0.035914,0.081405,9.857229,-0.000811,0.001327,-0.000586,28.56,-21.54,-5.16,233.1977,-0.4286,-0.2233,55.814102,37.500412,208.2,20.585,511
0.035914,0.081405,9.857229,-0.000811,0.001938,-0.000586,28.56,-21.54,-5.16,233.1977,-0.4286,-0.2233,55.814102,37.500412,208.2,20.585,522
0.026337,0.081405,9.866806,0.001021,0.001938,0.000636,28.86,-22.02,-5.1,233.1977,-0.4286,-0.2233,55.814102,37.500412,208.2,20.585,531
0.03352,0.069434,9.873989,0.000411,-0.000506,0.001247,28.86,-22.02,-5.1,233.1977,-0.4286,-0.2233,55.814102,37.500412,208.2,20.585,541
0.026337,0.081405,9.838076,0.000411,0.000716,0.001247,28.92,-22.08,-5.1,232.8801,-0.4238,-0.2288,55.814102,37.500412,208.2,20.585,551
0.026337,0.081405,9.838076,-0.000811,-0.001117,0.000636,29.22,-21.42,-5.1,232.8801,-0.4238,-0.2288,55.814102,37.500412,208.2,20.585,561
0.026337,0.06704,9.859624,0.001632,0.000105,-0.000586,29.22,-21.42,-5.1,232.8801,-0.4238,-0.2288,55.814102,37.500412,208.2,20.585,571
0.043097,0.074223,9.883567,-0.002644,-0.001728,-0.001197,28.92,-21,-4.92,232.8801,-0.4238,-0.2288,55.814102,37.500412,208.2,20.585,581
0.043097,0.074223,9.883567,-0.002644,-0.001728,-0.001197,28.92,-21,-4.92,232.8801,-0.4238,-0.2288,55.814102,37.500412,208.2,20.585,591
0.035914,0.076617,9.866806,-0.0002,0.000105,-0.00364,28.62,-21.42,-5.52,234.1694,-0.4308,-0.2142,55.814102,37.500412,208.2,20.585,601
0.05028,0.081405,9.885961,-0.002033,-0.001728,-0.002418,28.8,-21.48,-5.94,234.1694,-0.4308,-0.2142,55.814102,37.500412,208.2,20.585,611
0.040703,0.071828,9.866806,-0.002033,-0.001728,-0.001197,28.8,-21.48,-5.94,234.1694,-0.4308,-0.2142,55.814102,37.500412,208.2,20.585,621
0.052674,0.071828,9.866806,-0.001422,-0.000506,0.000636,28.86,-21.48,-6.06,234.1694,-0.4308,-0.2142,55.814102,37.500412,208.2,20.585,631
0.052674,0.071828,9.866806,-0.000811,0.004381,0.001858,28.86,-21.48,-6.06,234.1694,-0.4308,-0.2142,55.814102,37.500412,208.2,20.585,641
0.031126,0.079011,9.857229,-0.000811,0.000716,0.000636,28.5,-21.36,-5.34,234.1563,-0.4343,-0.2119,55.814102,37.500412,208.2,20.585,651
0.021548,0.0838,9.866806,0.000411,-0.001728,0.003079,28.98,-21.18,-5.34,234.1563,-0.4343,-0.2119,55.814102,37.500412,208.2,20.585,660
0.043097,0.081405,9.864412,0.001632,-0.000506,0.001247,28.98,-21.18,-5.34,234.1563,-0.4343,-0.2119,55.814102,37.500412,208.2,20.585,671
0.043097,0.074223,9.871595,0.001632,0.001327,0.002469,28.92,-21.42,-5.82,234.1563,-0.4343,-0.2119,55.814102,37.500412,208.2,20.585,681
0.043097,0.074223,9.871595,0.001632,0.001327,0.002469,28.92,-21.42,-5.82,234.1563,-0.4343,-0.2119,55.814102,37.500412,208.2,20.585,691
0.035914,0.081405,9.873989,-0.001422,-0.001728,-0.001197,28.98,-21.9,-5.58,232.8929,-0.4308,-0.2157,55.814102,37.500412,208.2,20.585,701
0.035914,0.069434,9.871595,-0.0002,0.000716,-0.000586,28.98,-21.9,-5.58,232.8929,-0.4308,-0.2157,55.814102,37.500412,208.2,20.585,710
0.028731,0.088588,9.883567,0.001021,-0.000506,0.001858,28.8,-21.36,-4.86,232.8929,-0.4308,-0.2157,55.814102,37.500412,208.2,20.585,721
0.028731,0.088588,9.883567,-0.000811,-0.002338,0.001858,28.8,-21.36,-4.86,232.8929,-0.4308,-0.2157,55.814102,37.500412,208.2,20.585,732
0.031126,0.055068,9.876384,-0.000811,0.000716,0.000636,29.04,-21.48,-4.62,234.156,-0.4286,-0.2169,55.814102,37.500412,208.2,20.585,741
0.026337,0.06704,9.873989,-0.002644,-0.001728,0.000636,29.04,-21.48,-4.62,234.156,-0.4286,-0.2169,55.814102,37.500412,208.2,20.585,750
0.031126,0.071828,9.854836,0.000411,0.000105,-0.000586,28.86,-22.02,-5.04,234.156,-0.4286,-0.2169,55.814102,37.500412,208.2,20.585,761
0.031126,0.071828,9.854836,-0.000811,-0.00356,0.001247,28.86,-22.02,-5.04,234.156,-0.4286,-0.2169,55.814102,37.500412,208.2,20.585,771
0.028731,0.06704,9.864412,0.001632,-0.001728,-0.000586,28.74,-21.3,-4.98,234.1557,-0.4259,-0.2163,55.814102,37.500412,208.2,20.585,781
0.040703,0.055068,9.857229,0.001632,-0.001728,-0.000586,28.74,-21.3,-4.98,234.1557,-0.4259,-0.2163,55.814102,37.500412,208.2,20.585,791
0.035914,0.076617,9.835681,-0.001422,0.002549,0.001858,29.16,-20.82,-4.2,234.1557,-0.4259,-0.2163,55.814102,37.500412,208.2,20.585,801
0.035914,0.076617,9.835681,-0.000811,0.000105,2.5E-05,28.86,-21.12,-4.56,234.1557,-0.4259,-0.2163,55.814102,37.500412,208.2,20.585,811
0.038308,0.064645,9.869201,0.002243,0.000105,0.000636,28.86,-21.12,-4.56,234.1557,-0.4259,-0.2163,55.814102,37.500412,208.2,20.585,821
0.035914,0.069434,9.893144,0.000411,0.001938,-0.001197,28.32,-22.02,-5.04,231.9078,-0.4256,-0.2125,55.814102,37.500412,208.2,20.585,832
0.028731,0.081405,9.850046,0.001632,-0.001117,0.002469,28.32,-22.02,-5.04,231.9078,-0.4256,-0.2125,55.814102,37.500412,208.2,20.585,840
0.03352,0.074223,9.854836,-0.000811,-0.001117,0.001247,28.86,-22.02,-5.22,231.9078,-0.4256,-0.2125,55.814102,37.500412,208.2,20.585,851
0.03352,0.074223,9.854836,0.000411,-0.001117,-0.001197,29.4,-21.9,-4.44,231.9078,-0.4256,-0.2125,55.814102,37.500412,208.2,20.585,860
0.038308,0.074223,9.852441,-0.0002,0.000105,0.000636,29.4,-21.9,-4.44,231.9078,-0.4256,-0.2125,55.814102,37.500412,208.2,20.585,871
0.038308,0.062251,9.854836,-0.0002,-0.001728,0.001858,29.04,-21.72,-4.32,232.8662,-0.4233,-0.2147,55.814102,37.500412,208.2,20.585,881
0.038308,0.062251,9.850046,-0.0002,-0.001728,0.001858,29.04,-21.72,-4.32,232.8662,-0.4233,-0.2147,55.814102,37.500412,208.2,20.585,891
0.031126,0.069434,9.842864,-0.001422,0.000716,0.000636,28.68,-21.78,-4.98,232.8662,-0.4233,-0.2147,55.814102,37.500412,208.2,20.585,901
0.031126,0.069434,9.842864,-0.001422,0.000716,2.5E-05,28.68,-21.72,-4.62,232.8662,-0.4233,-0.2147,55.814102,37.500412,208.2,20.585,911
0.038308,0.079011,9.850046,0.002854,0.000105,0.000636,28.68,-21.72,-4.62,232.8662,-0.4233,-0.2147,55.814102,37.500412,208.2,20.585,921
0.03352,0.069434,9.859624,-0.0002,0.001327,0.001247,28.26,-21.6,-4.02,231.8948,-0.4279,-0.2099,55.814102,37.500412,208.2,20.585,931
0.05028,0.076617,9.876384,0.001632,0.000716,0.000636,28.26,-21.6,-4.02,231.8948,-0.4279,-0.2099,55.814102,37.500412,208.2,20.585,940
0.040703,0.071828,9.866806,0.002243,0.000105,0.001247,27.96,-20.88,-4.62,231.8948,-0.4279,-0.2099,55.814102,37.500412,208.2,20.585,951
0.040703,0.071828,9.866806,-0.000811,0.000716,-0.001808,28.02,-20.34,-4.74,231.8948,-0.4279,-0.2099,55.814102,37.500412,208.2,20.585,961
0.038308,0.0838,9.866806,-0.002033,-0.000506,-0.001197,28.02,-20.34,-4.74,231.8948,-0.4279,-0.2099,55.814102,37.500412,208.2,20.585,971
0.014366,0.071828,9.866806,0.002243,0.000716,0.001247,28.92,-20.34,-4.68,235.4744,-0.4285,-0.212,55.814102,37.500412,208.2,20.585,980
0.014366,0.071828,9.866806,0.002243,0.000716,0.001247,28.92,-20.34,-4.68,235.4744,-0.4285,-0.212,55.814102,37.500412,208.2,20.585,991
0.038308,0.071828,9.859624,0.002243,-0.001117,-0.001197,29.52,-21.24,-5.16,235.4744,-0.4285,-0.212,55.814102,37.500412,208.2,20.585,1000
0.035914,0.064645,9.854836,-0.0002,-0.001117,0.001247,28.92,-21.48,-4.92,235.4744,-0.4285,-0.212,55.814102,37.500412,208.2,20.585,1011
0.047885,0.0838,9.873989,-0.0002,0.00377,-0.001197,28.92,-21.48,-4.92,235.4744,-0.4285,-0.212,55.814102,37.500412,208.2,20.585,1023
0.047885,0.0838,9.873989,-0.001422,0.000105,0.001247,28.02,-22.14,-4.68,231.9084,-0.4324,-0.2095,55.814102,37.500412,208.2,20.585,1032
0.040703,0.090982,9.883567,-0.001422,0.000105,0.001247,28.02,-22.14,-4.68,231.9084,-0.4324,-0.2095,55.814102,37.500412,208.2,20.585,1040
0.031126,0.071828,9.869201,-0.000811,0.000716,0.000636,28.32,-21.66,-4.74,231.9084,-0.4324,-0.2095,55.814102,37.500412,208.2,20.585,1051
0.031126,0.071828,9.869201,0.004076,-0.000506,-0.000586,28.32,-21.66,-4.74,231.9084,-0.4324,-0.2095,55.814102,37.500412,208.2,20.585,1061
0.040703,0.06704,9.840469,0.000411,0.000105,0.001858,28.2,-21.78,-4.86,231.9084,-0.4324,-0.2095,55.814102,37.500412,208.2,20.585,1071
0.023943,0.081405,9.881172,0.000411,-0.001117,0.000636,28.74,-20.82,-4.74,234.1553,-0.4272,-0.2096,55.814102,37.500412,208.2,20.585,1080
0.045491,0.0838,9.866806,0.001021,0.001327,0.000636,28.74,-20.82,-4.74,234.1553,-0.4272,-0.2096,55.814102,37.500412,208.2,20.585,1091
0.045491,0.074223,9.893144,-0.0002,-0.001117,-0.001197,28.74,-20.82,-5.04,234.1553,-0.4272,-0.2096,55.814102,37.500412,208.2,20.585,1101
0.045491,0.074223,9.893144,0.000411,0.000716,-0.002418,28.5,-21.24,-5.7,234.1553,-0.4272,-0.2096,55.814102,37.500412,208.2,20.585,1111
0.059857,0.071828,9.869201,0.000411,-0.001728,2.5E-05,28.5,-21.24,-5.7,234.1553,-0.4272,-0.2096,55.814102,37.500412,208.2,20.585,1121
0.055068,0.079011,9.852441,-0.000811,-0.000506,-0.001808,28.14,-21.3,-5.76,233.2107,-0.4324,-0.2107,55.814102,37.500412,208.2,20.585,1131
0.057463,0.076617,9.873989,0.000411,-0.001117,0.002469,28.14,-21.3,-5.76,233.2107,-0.4324,-0.2107,55.814102,37.500412,208.2,20.585,1141
0.007183,0.0838,9.862018,0.000411,-0.001117,0.002469,28.26,-21.6,-5.52,233.2107,-0.4324,-0.2107,55.814102,37.500412,208.2,20.585,1150
0.007183,0.0838,9.862018,-0.002033,-0.001728,2.5E-05,28.26,-21.6,-5.52,233.2107,-0.4324,-0.2107,55.814102,37.500412,208.2,20.585,1161
0.047885,0.074223,9.876384,-0.0002,-0.001728,-0.000586,28.86,-21.6,-5.22,232.8797,-0.4333,-0.2087,55.814102,37.500412,208.2,20.585,1171
0.052674,0.074223,9.876384,-0.001422,0.000716,0.001247,28.86,-21.6,-5.22,232.8797,-0.4333,-0.2087,55.814102,37.500412,208.2,20.585,1181
0.026337,0.069434,9.866806,-0.002033,0.001327,2.5E-05,28.5,-21.48,-4.86,232.8797,-0.4333,-0.2087,55.814102,37.500412,208.2,20.585,1191
0.040703,0.071828,9.883567,0.002243,0.002549,0.002469,28.5,-21.48,-4.86,232.8797,-0.4333,-0.2087,55.814102,37.500412,208.2,20.585,1200
0.040703,0.071828,9.883567,0.000411,0.000716,0.001247,28.38,-21.78,-5.28,231.9085,-0.4341,-0.2091,55.814102,37.500412,208.2,20.585,1211
0.052674,0.079011,9.885961,0.000411,0.001327,0.001247,28.38,-21.78,-5.28,231.9085,-0.4341,-0.2091,55.814102,37.500412,208.2,20.585,1220
0.045491,0.076617,9.888355,0.002243,0.000105,-0.001197,28.5,-21.24,-4.86,231.9085,-0.4341,-0.2091,55.814102,37.500412,208.2,20.585,1231
0.045491,0.081405,9.866806,0.001632,0.001938,0.002469,28.5,-21.24,-4.86,231.9085,-0.4341,-0.2091,55.814102,37.500412,208.2,20.585,1241
0.03352,0.064645,9.873989,0.000411,0.00377,2.5E-05,28.2,-21.36,-4.44,233.1835,-0.4336,-0.2065,55.814102,37.500412,208.2,20.585,1250
0.03352,0.064645,9.873989,0.000411,-0.002949,-0.001197,28.56,-21,-4.56,233.1835,-0.4336,-0.2065,55.814102,37.500412,208.2,20.585,1261
0.03352,0.071828,9.864412,0.003465,-0.002338,-0.001197,28.56,-21,-4.56,233.1835,-0.4336,-0.2065,55.814102,37.500412,208.2,20.585,1271
0.05028,0.06704,9.888355,0.000411,0.000105,0.000636,29.04,-21.18,-4.74,233.1835,-0.4336,-0.2065,55.814102,37.500412,208.2,20.585,1281
0.026337,0.0838,9.876384,-0.002644,-0.001728,0.000636,29.04,-21.18,-4.74,233.1835,-0.4336,-0.2065,55.814102,37.500412,208.2,20.585,1290
0.026337,0.0838,9.876384,0.000411,0.000716,0.000636,28.74,-21.06,-5.76,234.1692,-0.4344,-0.2069,55.814102,37.500412,208.2,20.585,1301
0.045491,0.0838,9.883567,-0.0002,0.000105,0.00369,28.5,-21.36,-6.18,234.1692,-0.4344,-0.2069,55.814102,37.500412,208.2,20.585,1311
0.040703,0.086194,9.876384,-0.001422,-0.002949,0.00369,28.5,-21.36,-6.18,234.1692,-0.4344,-0.2069,55.814102,37.500412,208.2,20.585,1321
0.040703,0.059857,9.881172,0.000411,-0.000506,0.002469,27.84,-21.54,-6.6,234.1692,-0.4344,-0.2069,55.814102,37.500412,208.2,20.585,1331
0.040703,0.086194,9.869201,-0.002033,-0.001117,0.001858,27.84,-21.54,-6.6,234.1692,-0.4344,-0.2069,55.814102,37.500412,208.2,20.585,1341
0.040703,0.086194,9.869201,0.001021,0.000105,-0.001197,28.56,-21.54,-6.54,232.9052,-0.4277,-0.2128,55.814102,37.500412,208.2,20.585,1351
0.028731,0.074223,9.883567,-0.002033,-0.002338,2.5E-05,28.56,-21.54,-6.54,232.9052,-0.4277,-0.2128,55.814102,37.500412,208.2,20.585,1361
0.038308,0.071828,9.869201,-0.0002,-0.001728,0.001858,28.98,-21.54,-5.82,232.9052,-0.4277,-0.2128,55.814102,37.500412,208.2,20.585,1371
0.038308,0.071828,9.857229,-0.001422,0.001327,2.5E-05,28.98,-21.54,-5.82,232.9052,-0.4277,-0.2128,55.814102,37.500412,208.2,20.585,1380
0.043097,0.069434,9.900327,-0.001422,0.001327,2.5E-05,28.26,-21.48,-4.98,233.1965,-0.4245,-0.2139,55.814102,37.500412,208.2,20.585,1392
0.043097,0.069434,9.900327,-0.0002,0.001938,-0.001197,28.26,-21.48,-4.98,233.1965,-0.4245,-0.2139,55.814102,37.500412,208.2,20.585,1400
0.03352,0.064645,9.857229,0.002243,-0.002949,0.000636,28.38,-21.6,-5.22,233.1965,-0.4245,-0.2139,55.814102,37.500412,208.2,20.585,1411
0.035914,0.074223,9.857229,0.000411,-0.00356,-0.000586,28.38,-21.6,-5.22,233.1965,-0.4245,-0.2139,55.814102,37.500412,208.2,20.585,1421
0.047885,0.107742,9.881172,0.001021,0.001938,-0.000586,29.1,-21.12,-5.4,234.1553,-0.4224,-0.2164,55.814102,37.500412,208.2,20.585,1431
0.043097,0.093377,9.866806,-0.001422,0.000105,-0.001808,29.1,-21.12,-5.4,234.1553,-0.4224,-0.2164,55.814102,37.500412,208.2,20.585,1441
0.043097,0.093377,9.866806,0.000411,-0.001728,-0.001808,29.1,-21.24,-5.34,234.1553,-0.4224,-0.2164,55.814102,37.500412,208.2,20.585,1451
0.038308,0.081405,9.864412,0.000411,-0.001728,-0.001808,29.1,-21.24,-5.34,234.1553,-0.4224,-0.2164,55.814102,37.500412,208.2,20.585,1461
0.040703,0.057463,9.895537,-0.000811,-0.002949,0.001247,28.86,-21.66,-5.64,232.8927,-0.4247,-0.2214,55.814102,37.500412,208.2,20.585,1471
0.038308,0.064645,9.890749,-0.000811,-0.001728,0.000636,28.86,-21.66,-5.64,232.8927,-0.4247,-0.2214,55.814102,37.500412,208.2,20.585,1480
0.05028,0.076617,9.847652,-0.0002,0.002549,2.5E-05,28.32,-22.2,-6.36,232.8927,-0.4247,-0.2214,55.814102,37.500412,208.2,20.585,1491
0.05028,0.076617,9.847652,0.002243,0.000716,0.004301,28.32,-22.2,-6.36,232.8927,-0.4247,-0.2214,55.814102,37.500412,208.2,20.585,1500
0.03352,0.074223,9.869201,0.002243,-0.000506,0.001858,28.08,-22.86,-6.24,230.6768,-0.4267,-0.2215,55.814102,37.500412,208.2,20.585,1511
0.01676,0.090982,9.881172,0.002243,-0.000506,-0.001808,28.08,-22.86,-6.24,230.6768,-0.4267,-0.2215,55.814102,37.500412,208.2,20.585,1520
0.031126,0.06704,9.862018,-0.000811,0.002549,-0.001197,29.16,-22.08,-6.12,230.6768,-0.4267,-0.2215,55.814102,37.500412,208.2,20.585,1531
0.026337,0.076617,9.850046,-0.001422,-0.002338,-0.001197,29.16,-22.08,-6.12,230.6768,-0.4267,-0.2215,55.814102,37.500412,208.2,20.585,1541
0.026337,0.076617,9.850046,0.002854,-0.002338,0.001858,29.4,-21.18,-6.12,234.1696,-0.4322,-0.2152,55.814102,37.500412,208.2,20.585,1550
0.055068,0.081405,9.862018,0.001632,0.003159,0.002469,29.4,-21.18,-6.12,234.1696,-0.4322,-0.2152,55.814102,37.500412,208.2,20.585,1561
0.059857,0.090982,9.885961,0.001632,0.003159,0.002469,28.8,-20.82,-5.94,234.1696,-0.4322,-0.2152,55.814102,37.500412,208.2,20.585,1570
0.059857,0.071828,9.854836,0.001632,-0.000506,0.001858,28.8,-20.82,-5.94,234.1696,-0.4322,-0.2152,55.814102,37.500412,208.2,20.585,1581
0.045491,0.086194,9.862018,0.002243,0.001938,0.000636,28.74,-21,-5.16,234.1563,-0.4345,-0.2108,55.814102,37.500412,208.2,20.585,1591
0.045491,0.086194,9.862018,-0.003255,0.000105,-0.001197,28.74,-21,-5.16,234.1563,-0.4345,-0.2108,55.814102,37.500412,208.2,20.585,1602
0.045491,0.079011,9.862018,0.000411,-0.001117,-0.001197,28.74,-21.24,-5.46,234.1563,-0.4345,-0.2108,55.814102,37.500412,208.2,20.585,1610
0.019154,0.074223,9.859624,0.000411,-0.001117,-0.000586,28.74,-21.24,-5.46,234.1563,-0.4345,-0.2108,55.814102,37.500412,208.2,20.585,1621
0.040703,0.071828,9.897932,0.000411,-0.001117,-0.002418,29.04,-20.7,-6.48,234.1698,-0.435,-0.2131,55.814102,37.500412,208.2,20.585,1630
0.01676,0.06704,9.869201,-0.002644,0.001938,-0.001197,29.04,-20.7,-6.48,234.1698,-0.435,-0.2131,55.814102,37.500412,208.2,20.585,1641
0.01676,0.06704,9.869201,-0.0002,0.001938,-0.001808,29.22,-21,-6.42,234.1698,-0.435,-0.2131,55.814102,37.500412,208.2,20.585,1650
0.026337,0.0838,9.878778,-0.001422,-0.001728,2.5E-05,29.22,-21,-6.42,234.1698,-0.435,-0.2131,55.814102,37.500412,208.2,20.585,1661
0.03352,0.0838,9.876384,-0.001422,-0.001728,2.5E-05,29.28,-20.94,-6.12,234.1693,-0.4314,-0.2127,55.814102,37.500412,208.2,20.585,1671
0.047885,0.076617,9.869201,0.001021,-0.002949,-0.002418,29.28,-20.94,-6.12,234.1693,-0.4314,-0.2127,55.814102,37.500412,208.2,20.585,1681
0.052674,0.079011,9.852441,-0.0002,0.000716,-0.003029,29.52,-20.76,-5.52,234.1693,-0.4314,-0.2127,55.814102,37.500412,208.2,20.585,1691
0.052674,0.079011,9.852441,0.001021,0.000105,0.000636,29.52,-20.76,-5.52,234.1693,-0.4314,-0.2127,55.814102,37.500412,208.2,20.585,1701
0.028731,0.06704,9.823709,-0.001422,0.001327,0.001247,29.82,-20.58,-5.46,235.0717,-0.43,-0.2052,55.814102,37.500412,208.2,20.585,1711
0.040703,0.076617,9.835681,0.002854,-0.001117,-0.001197,29.82,-20.58,-5.46,235.0717,-0.43,-0.2052,55.814102,37.500412,208.2,20.585,1720
0.055068,0.076617,9.847652,0.001021,-0.001728,-0.000586,29.7,-20.52,-5.94,235.0717,-0.43,-0.2052,55.814102,37.500412,208.2,20.585,1731
0.057463,0.074223,9.862018,0.001021,-0.000506,2.5E-05,29.7,-20.52,-5.94,235.0717,-0.43,-0.2052,55.814102,37.500412,208.2,20.585,1741
0.057463,0.074223,9.862018,-0.001422,0.001327,-0.001808,29.1,-21.18,-6.12,234.1684,-0.43,-0.2057,55.814102,37.500412,208.2,20.585,1751
0.028731,0.098165,9.857229,-0.000811,0.000105,-0.001808,29.1,-21.18,-6.12,234.1684,-0.43,-0.2057,55.814102,37.500412,208.2,20.585,1760
0.045491,0.074223,9.835681,-0.001422,0.000716,-0.000586,29.04,-21.48,-5.7,234.1684,-0.43,-0.2057,55.814102,37.500412,208.2,20.585,1770
0.01676,0.064645,9.828498,-0.000811,-0.002338,-0.002418,29.28,-21.3,-6.36,234.1684,-0.43,-0.2057,55.814102,37.500412,208.2,20.585,1781
0.01676,0.064645,9.828498,-0.0002,-0.002338,2.5E-05,29.28,-21.3,-6.36,234.1684,-0.43,-0.2057,55.814102,37.500412,208.2,20.585,1791
0.031126,0.081405,9.838076,0.001632,-0.001728,-0.000586,30.12,-20.7,-6,235.0863,-0.4333,-0.2199,55.814102,37.500412,208.2,20.585,1801
0.028731,0.074223,9.857229,0.001632,-0.001728,-0.000586,30.12,-20.7,-6,235.0863,-0.4333,-0.2199,55.814102,37.500412,208.2,20.585,1811
0.035914,0.079011,9.871595,0.001632,-0.002949,2.5E-05,29.88,-20.4,-5.4,235.0863,-0.4333,-0.2199,55.814102,37.500412,208.2,20.585,1821
0.035914,0.079011,9.871595,-0.000811,0.000105,0.001247,29.88,-20.4,-5.4,235.0863,-0.4333,-0.2199,55.814102,37.500412,208.2,20.585,1831
0.052674,0.076617,9.869201,0.001021,0.000105,2.5E-05,29.94,-20.7,-5.22,235.0725,-0.4313,-0.2146,55.814102,37.500412,208.2,20.585,1841
0.043097,0.081405,9.859624,-0.000811,0.001938,-0.001808,29.94,-20.7,-5.22,235.0725,-0.4313,-0.2146,55.814102,37.500412,208.2,20.585,1851
0.045491,0.081405,9.842864,-0.0002,0.001938,0.000636,29.76,-20.76,-5.34,235.0725,-0.4313,-0.2146,55.814102,37.500412,208.2,20.585,1861
0.045491,0.081405,9.842864,-0.0002,0.000105,0.001247,29.76,-20.76,-5.34,235.0725,-0.4313,-0.2146,55.814102,37.500412,208.2,20.585,1870
0.052674,0.069434,9.871595,0.001021,0.001938,-0.000586,29.46,-20.88,-5.94,234.1694,-0.4309,-0.2147,55.814102,37.500412,208.2,20.585,1881
0.01676,0.074223,9.857229,-0.001422,-0.000506,0.000636,29.46,-20.88,-5.94,234.1694,-0.4309,-0.2147,55.814102,37.500412,208.2,20.585,1890
0.05028,0.071828,9.857229,0.001021,-0.001728,-0.000586,29.94,-21.12,-5.64,234.1694,-0.4309,-0.2147,55.814102,37.500412,208.2,20.585,1901
0.035914,0.069434,9.854836,0.001021,-0.001728,-0.000586,29.94,-21.12,-5.64,234.1694,-0.4309,-0.2147,55.814102,37.500412,208.2,20.585,1910
0.057463,0.074223,9.862018,-0.001422,-0.001728,0.001247,30.24,-21,-5.16,235.0721,-0.4289,-0.2117,55.814102,37.500412,208.2,20.585,1921
0.057463,0.074223,9.862018,-0.000811,-0.001117,2.5E-05,30,-20.64,-5.34,235.0721,-0.4289,-0.2117,55.814102,37.500412,208.2,20.585,1930
0.043097,0.069434,9.869201,-0.001422,0.001938,-0.001808,30,-20.64,-5.34,235.0721,-0.4289,-0.2117,55.814102,37.500412,208.2,20.585,1941
0.038308,0.079011,9.967366,0.002243,0.000716,-0.001197,30.18,-20.76,-5.22,235.0721,-0.4289,-0.2117,55.814102,37.500412,208.2,20.585,1950
0.038308,0.079011,9.967366,0.001021,0.000105,0.001247,30.18,-20.76,-5.22,235.0721,-0.4289,-0.2117,55.814102,37.500412,208.2,20.585,1961
0.014366,0.076617,9.672871,0.001632,0.000105,-0.001197,30,-20.94,-4.86,235.0713,-0.4252,-0.2064,55.814102,37.500412,208.2,20.585,1970
0.01676,0.059857,9.900327,-0.002033,0.000716,-0.000586,30.06,-21.42,-4.92,235.0713,-0.4252,-0.2064,55.814102,37.500412,208.2,20.585,1981
0.01676,0.059857,9.900327,-0.002033,0.001327,-0.001197,30.06,-21.42,-4.92,235.0713,-0.4252,-0.2064,55.814102,37.500412,208.2,20.585,1991
0.03352,0.079011,9.871595,0.001021,0.003159,0.001858,30.12,-21.18,-5.1,235.0713,-0.4252,-0.2064,55.814102,37.500412,208.2,20.585,2001
0.052674,0.098165,9.842864,0.001021,0.003159,0.001858,30.12,-21.18,-5.1,235.0713,-0.4252,-0.2064,55.814102,37.500412,208.2,20.585,2011
0.062251,0.088588,9.850046,-0.0002,-0.001728,0.000636,30.36,-20.46,-5.16,236.3736,-0.423,-0.1994,55.814102,37.500412,208.2,20.585,2020
0.062251,0.088588,9.850046,0.001632,0.000716,2.5E-05,30.18,-20.64,-4.68,236.3736,-0.423,-0.1994,55.814102,37.500412,208.2,20.585,2031
0.071828,0.081405,9.854836,-0.002644,-0.000506,-0.001197,30.18,-20.64,-4.68,236.3736,-0.423,-0.1994,55.814102,37.500412,208.2,20.585,2041
0.052674,0.076617,9.830893,-0.001422,0.001938,-0.000586,30.24,-20.76,-5.16,236.3736,-0.423,-0.1994,55.814102,37.500412,208.2,20.585,2050
0.045491,0.086194,9.850046,0.001632,-0.001728,0.000636,30.24,-20.76,-5.16,236.3736,-0.423,-0.1994,55.814102,37.500412,208.2,20.585,2062
0.064645,0.071828,9.833286,-0.001422,0.001327,-0.001808,30.18,-21.06,-5.82,235.0834,-0.4247,-0.2004,55.814102,37.500412,208.2,20.585,2070
0.064645,0.071828,9.833286,-0.0002,0.001327,0.002469,30.18,-21.06,-5.82,235.0834,-0.4247,-0.2004,55.814102,37.500412,208.2,20.585,2081
0.059857,0.093377,9.838076,-0.000811,0.000105,0.000636,29.7,-21.6,-5.52,235.0834,-0.4247,-0.2004,55.814102,37.500412,208.2,20.585,2091
0.031126,0.088588,9.771035,0.000411,0.001938,0.000636,29.7,-21.6,-5.52,235.0834,-0.4247,-0.2004,55.814102,37.500412,208.2,20.585,2101
0.009577,0.064645,9.842864,0.000411,0.001938,0.000636,29.88,-21.66,-5.52,233.8217,-0.4281,-0.2128,55.814102,37.500412,208.2,20.585,2111
0.004789,0.076617,9.854836,-0.000811,-0.002338,-0.001197,29.88,-21.66,-5.52,233.8217,-0.4281,-0.2128,55.814102,37.500412,208.2,20.585,2121
0.004789,0.076617,9.854836,0.000411,0.000105,0.001247,29.94,-21.24,-5.76,233.8217,-0.4281,-0.2128,55.814102,37.500412,208.2,20.585,2131
0.019154,0.090982,9.833286,0.000411,0.001327,0.003079,29.94,-21.24,-5.76,233.8217,-0.4281,-0.2128,55.814102,37.500412,208.2,20.585,2140
0.040703,0.090982,9.838076,0.000411,0.000105,-0.000586,30.3,-21.36,-5.58,235.0838,-0.4257,-0.2032,55.814102,37.500412,208.2,20.585,2151
0.059857,0.071828,9.835681,-0.0002,0.000716,-0.001808,30.3,-21.36,-5.58,235.0838,-0.4257,-0.2032,55.814102,37.500412,208.2,20.585,2160
0.06704,0.069434,9.835681,-0.0002,-0.001117,-0.002418,31.2,-21.3,-5.46,235.0838,-0.4257,-0.2032,55.814102,37.500412,208.2,20.585,2171
0.06704,0.069434,9.835681,-0.0002,-0.001117,-0.002418,31.2,-21.3,-5.46,235.0838,-0.4257,-0.2032,55.814102,37.500412,208.2,20.585,2180
0.062251,0.074223,9.814133,-0.000811,0.001327,-0.000586,31.86,-21.36,-5.76,235.0838,-0.4257,-0.2032,55.814102,37.500412,208.2,20.585,2191
0.071828,0.074223,9.847652,0.001021,0.001938,0.003079,32.22,-21.24,-5.94,236.7976,-0.4268,-0.1972,55.814102,37.500412,208.2,20.585,2200
0.071828,0.074223,9.847652,-0.000811,0.000105,0.001247,32.22,-21.24,-5.94,236.7976,-0.4268,-0.1972,55.814102,37.500412,208.2,20.585,2211
0.01676,0.059857,9.847652,-0.000811,-0.001728,-0.002418,31.86,-21.48,-5.04,236.7976,-0.4268,-0.1972,55.814102,37.500412,208.2,20.585,2220
0.011971,0.064645,9.869201,-0.002033,0.000105,0.001247,31.86,-21.48,-5.04,236.7976,-0.4268,-0.1972,55.814102,37.500412,208.2,20.585,2231
0.03352,0.071828,9.873989,0.001632,-0.002338,-0.000586,32.46,-22.2,-4.92,235.5523,-0.4275,-0.2195,55.814102,37.500412,208.2,20.585,2241
0.03352,0.071828,9.873989,0.001632,-0.001117,-0.001808,32.46,-22.2,-4.92,235.5523,-0.4275,-0.2195,55.814102,37.500412,208.2,20.585,2250
0.043097,0.088588,9.873989,0.000411,0.001938,0.001858,32.46,-23.16,-4.98,235.5523,-0.4275,-0.2195,55.814102,37.500412,208.2,20.585,2261
0.023943,0.074223,9.876384,0.000411,0.000716,-0.002418,32.46,-23.16,-4.98,235.5523,-0.4275,-0.2195,55.814102,37.500412,208.2,20.585,2271
0.045491,0.071828,9.840469,-0.000811,-0.001117,2.5E-05,32.88,-22.56,-5.28,235.1832,-0.422,-0.2257,55.814102,37.500412,208.2,20.585,2281
0.045491,0.071828,9.840469,-0.000811,0.000716,-0.001808,32.88,-22.56,-5.28,235.1832,-0.422,-0.2257,55.814102,37.500412,208.2,20.585,2291
0.028731,0.069434,9.823709,-0.0002,-0.002338,2.5E-05,34.62,-22.8,-5.28,235.1832,-0.422,-0.2257,55.814102,37.500412,208.2,20.585,2300
0.038308,0.0838,9.835681,-0.0002,-0.002338,2.5E-05,34.62,-22.8,-5.28,235.1832,-0.422,-0.2257,55.814102,37.500412,208.2,20.585,2311
0.059857,0.0838,9.864412,-0.001422,0.001327,0.001858,35.82,-23.88,-5.16,236.3645,-0.429,-0.2165,55.814102,37.500412,208.2,20.585,2320
0.055068,0.095771,9.869201,-0.003255,0.000716,-0.002418,36.36,-24.72,-4.5,236.3645,-0.429,-0.2165,55.814102,37.500412,208.2,20.585,2331
0.055068,0.095771,9.869201,0.000411,-0.000506,0.000636,36.36,-24.72,-4.5,236.3645,-0.429,-0.2165,55.814102,37.500412,208.2,20.585,2340
0.043097,0.090982,9.840469,-0.001422,0.000716,-0.000586,37.98,-25.44,-3.42,236.3645,-0.429,-0.2165,55.814102,37.500412,208.2,20.585,2351
0.047885,0.076617,9.847652,0.001632,-0.001117,-0.001808,37.98,-25.44,-3.42,236.3645,-0.429,-0.2165,55.814102,37.500412,208.2,20.585,2363
0.045491,0.081405,9.847652,0.001021,-0.000506,0.004301,39.6,-26.28,-2.64,237.0061,-0.437,-0.2198,55.814102,37.500412,208.2,20.585,2371
0.01676,0.081405,9.857229,0.000411,-0.001117,0.000636,40.32,-26.58,-1.74,237.0061,-0.437,-0.2198,55.814102,37.500412,208.2,20.585,2381
0.01676,0.081405,9.857229,-0.000811,-0.000506,2.5E-05,40.32,-26.58,-1.74,237.0061,-0.437,-0.2198,55.814102,37.500412,208.2,20.585,2391
0.031126,0.062251,9.857229,-0.000811,-0.002338,-0.000586,42.3,-28.14,0.18,237.0061,-0.437,-0.2198,55.814102,37.500412,208.2,20.585,2401
0.028731,0.064645,9.821315,-0.000811,-0.002338,-0.000586,42.3,-28.14,0.18,237.0061,-0.437,-0.2198,55.814102,37.500412,208.2,20.585,2411
0.035914,0.071828,9.838076,0.001632,-0.001117,0.001858,44.52,-29.16,3.3,237.1719,-0.4441,-0.2296,55.814102,37.500412,208.2,20.585,2421
0.035914,0.071828,9.838076,-0.001422,-0.001117,-0.003029,46.2,-29.58,5.22,237.1719,-0.4441,-0.2296,55.814102,37.500412,208.2,20.585,2431
0.035914,0.081405,9.830893,-0.001422,-0.002338,-0.000586,46.2,-29.58,5.22,237.1719,-0.4441,-0.2296,55.814102,37.500412,208.2,20.585,2440
0.040703,0.064645,9.842864,0.002243,-0.000506,-0.000586,48.06,-30.36,9.18,237.1719,-0.4441,-0.2296,55.814102,37.500412,208.2,20.585,2451
0.019154,0.076617,9.833286,0.002243,0.000716,-0.001808,48.06,-30.36,9.18,237.1719,-0.4441,-0.2296,55.814102,37.500412,208.2,20.585,2460
0.019154,0.076617,9.833286,0.000411,0.002549,0.001247,50.04,-29.46,13.8,239.7651,-0.4405,-0.2314,55.814102,37.500412,208.2,20.585,2471
0.040703,0.090982,9.840469,0.000411,0.000716,-0.003029,51.18,-28.2,15.48,239.7651,-0.4405,-0.2314,55.814102,37.500412,208.2,20.585,2480
0.035914,0.062251,9.847652,0.000411,0.000105,0.001858,51.18,-28.2,15.48,239.7651,-0.4405,-0.2314,55.814102,37.500412,208.2,20.585,2491
0.03352,0.069434,9.850046,-0.000811,-0.001728,2.5E-05,53.52,-25.98,18.72,239.7651,-0.4405,-0.2314,55.814102,37.500412,208.2,20.585,2500
0.052674,0.0838,9.842864,0.000411,0.000105,-0.001197,53.52,-25.98,18.72,239.7651,-0.4405,-0.2314,55.814102,37.500412,208.2,20.585,2511
0.052674,0.0838,9.842864,0.000411,0.000105,-0.001197,54.72,-24.06,22.44,246.2424,-0.4425,-0.226,55.814102,37.500412,208.2,20.585,2520
0.045491,0.06704,9.816526,0.002854,-0.001728,0.002469,54.72,-24.06,22.44,246.2424,-0.4425,-0.226,55.814102,37.500412,208.2,20.585,2531
0.052674,0.076617,9.852441,0.001021,0.001327,2.5E-05,56.4,-22.02,24.12,246.2424,-0.4425,-0.226,55.814102,37.500412,208.2,20.585,2541
0.038308,0.064645,9.814133,-0.0002,0.000105,0.000636,56.28,-20.46,24.6,246.2424,-0.4425,-0.226,55.814102,37.500412,208.2,20.585,2550
0.038308,0.064645,9.814133,-0.000811,0.000105,-0.001808,56.28,-20.46,24.6,246.2424,-0.4425,-0.226,55.814102,37.500412,208.2,20.585,2561
0.035914,0.088588,9.835681,0.000411,0.000105,0.001858,57.96,-17.16,25.14,253.4608,-0.4423,-0.2253,55.814102,37.500412,208.2,20.585,2571
0.023943,0.059857,9.828498,-0.004476,0.002549,-0.002418,57.96,-17.16,25.14,253.4608,-0.4423,-0.2253,55.814102,37.500412,208.2,20.585,2581
0.038308,0.069434,9.866806,-0.000811,0.002549,2.5E-05,60.48,-14.04,24.72,253.4608,-0.4423,-0.2253,55.814102,37.500412,208.2,20.585,2591
0.038308,0.069434,9.866806,-0.002033,-0.000506,-0.000586,60.48,-14.04,24.72,253.4608,-0.4423,-0.2253,55.814102,37.500412,208.2,20.585,2602
0.05028,0.06704,9.811738,0.002854,0.004381,-0.000586,62.34,-11.28,23.22,259.7665,-0.4372,-0.2203,55.814102,37.500412,208.2,20.585,2611
0.031126,0.088588,9.842864,-0.002033,-0.001728,0.001247,62.34,-11.28,23.22,259.7665,-0.4372,-0.2203,55.814102,37.500412,208.2,20.585,2621
0.045491,0.0838,9.840469,0.004687,0.001327,-0.001197,64.32,-8.94,20.1,259.7665,-0.4372,-0.2203,55.814102,37.500412,208.2,20.585,2631
0.035914,0.090982,9.842864,-0.001422,-0.000506,0.001247,64.32,-8.94,20.1,259.7665,-0.4372,-0.2203,55.814102,37.500412,208.2,20.585,2640
0.035914,0.090982,9.842864,0.002243,-0.001117,-0.001808,16.5,4.5,8.46,286.2292,-0.4284,-0.2153,55.814102,37.500412,208.2,20.585,2651
0.043097,0.071828,9.847652,-0.003255,0.000716,0.001858,16.5,4.5,8.46,286.2292,-0.4284,-0.2153,55.814102,37.500412,208.2,20.585,2661
0.047885,0.074223,9.850046,0.002854,-0.000506,-0.002418,17.7,4.8,5.94,286.2292,-0.4284,-0.2153,55.814102,37.500412,208.2,20.585,2671
0.028731,0.088588,9.840469,0.002854,-0.000506,-0.002418,17.7,4.8,5.94,286.2292,-0.4284,-0.2153,55.814102,37.500412,208.2,20.585,2681
0.03352,0.076617,9.862018,-0.002644,-0.001117,-0.001197,18.6,5.88,3.96,287.4546,-0.4309,-0.2226,55.814102,37.500412,208.2,20.585,2690
0.03352,0.076617,9.862018,0.001021,0.000105,-0.000586,18.6,5.88,3.96,287.4546,-0.4309,-0.2226,55.814102,37.500412,208.2,20.585,2701
0.043097,0.079011,9.859624,0.001632,-0.000506,2.5E-05,19.74,5.76,1.26,287.4546,-0.4309,-0.2226,55.814102,37.500412,208.2,20.585,2711
0.028731,0.086194,9.830893,-0.0002,0.001327,0.001247,19.74,5.76,1.26,287.4546,-0.4309,-0.2226,55.814102,37.500412,208.2,20.585,2721
0.043097,0.074223,9.799767,-0.002644,-0.002338,-0.001808,21.24,5.22,-1.92,283.4248,-0.4321,-0.2223,55.814102,37.500412,208.2,20.585,2731
0.043097,0.074223,9.799767,0.003465,-0.001728,-0.001808,21.24,5.22,-1.92,283.4248,-0.4321,-0.2223,55.814102,37.500412,208.2,20.585,2741
0.064645,0.069434,9.924269,-0.002033,-0.001728,0.000636,22.68,5.4,-4.26,283.4248,-0.4321,-0.2223,55.814102,37.500412,208.2,20.585,2751
0.045491,0.071828,9.933846,0.004076,0.000105,-0.001808,22.68,5.4,-4.26,283.4248,-0.4321,-0.2223,55.814102,37.500412,208.2,20.585,2761
0.047885,0.074223,9.852441,0.000411,-0.001117,-0.001808,23.7,4.62,-6.06,281.8594,-0.4346,-0.2207,55.814102,37.500412,208.2,20.585,2771
0.047885,0.074223,9.852441,0.000411,0.002549,0.001247,23.7,4.62,-6.06,281.8594,-0.4346,-0.2207,55.814102,37.500412,208.2,20.585,2782
0.035914,0.079011,9.833286,-0.0002,0.000716,-0.000586,24.48,3.12,-8.34,281.8594,-0.4346,-0.2207,55.814102,37.500412,208.2,20.585,2790
0.040703,0.071828,9.847652,0.001021,-0.000506,-0.001197,24.48,2.64,-9.48,281.8594,-0.4346,-0.2207,55.814102,37.500412,208.2,20.585,2801
0.040703,0.071828,9.847652,0.001021,-0.000506,-0.001197,24.48,2.64,-9.48,281.8594,-0.4346,-0.2207,55.814102,37.500412,208.2,20.585,2811
0.05028,0.062251,9.835681,-0.002033,-0.002338,0.000636,24.72,1.74,-11.22,274.7537,-0.4339,-0.2229,55.814102,37.500412,208.2,20.585,2821
0.05028,0.071828,9.854836,-0.000811,0.000105,-0.002418,24.72,1.74,-11.22,274.7537,-0.4339,-0.2229,55.814102,37.500412,208.2,20.585,2830
0.026337,0.074223,9.847652,-0.002033,0.001327,-0.001197,25.92,1.08,-13.02,274.7537,-0.4339,-0.2229,55.814102,37.500412,208.2,20.585,2841
0.026337,0.074223,9.847652,0.001021,0.001327,-0.000586,25.92,1.08,-13.02,274.7537,-0.4339,-0.2229,55.814102,37.500412,208.2,20.585,2851
0.03352,0.076617,9.862018,-0.000811,-0.000506,-0.00364,25.8,0.18,-14.64,270.25,-0.4374,-0.2309,55.814102,37.500412,208.2,20.585,2861
0.038308,0.064645,9.857229,0.000411,0.000105,-0.001197,26.28,-0.42,-15,270.25,-0.4374,-0.2309,55.814102,37.500412,208.2,20.585,2871
0.052674,0.0838,9.845258,0.000411,0.000105,-0.001197,26.28,-0.42,-15,270.25,-0.4374,-0.2309,55.814102,37.500412,208.2,20.585,2881
0.043097,0.074223,9.838076,-0.000811,0.000716,0.001247,27.06,-1.44,-16.26,270.25,-0.4374,-0.2309,55.814102,37.500412,208.2,20.585,2891
0.043097,0.074223,9.838076,0.002243,0.001938,-0.000586,27.96,-2.28,-17.46,266.1848,-0.4352,-0.225,55.814102,37.500412,208.2,20.585,2901
0.038308,0.0838,9.833286,0.001632,0.000105,2.5E-05,27.96,-2.28,-17.46,266.1848,-0.4352,-0.225,55.814102,37.500412,208.2,20.585,2910
0.038308,0.071828,9.835681,0.000411,-0.001117,0.001858,28.8,-3.42,-20.04,266.1848,-0.4352,-0.225,55.814102,37.500412,208.2,20.585,2921
0.043097,0.079011,9.828498,0.000411,-0.001728,2.5E-05,28.8,-3.42,-20.04,266.1848,-0.4352,-0.225,55.814102,37.500412,208.2,20.585,2932
0.019154,0.064645,9.816526,0.002243,-0.000506,0.000636,30.18,-5.1,-22.32,260.8719,-0.434,-0.2243,55.814102,37.500412,208.2,20.585,2941
0.019154,0.064645,9.816526,-0.001422,-0.001117,0.001858,30.66,-6.06,-23.58,260.8719,-0.434,-0.2243,55.814102,37.500412,208.2,20.585,2951
0.040703,0.0838,9.842864,0.000411,-0.001728,2.5E-05,30.66,-6.06,-23.58,260.8719,-0.434,-0.2243,55.814102,37.500412,208.2,20.585,2961
0.043097,0.064645,9.821315,0.002243,-0.002338,0.001247,32.58,-7.5,-26.7,260.8719,-0.434,-0.2243,55.814102,37.500412,208.2,20.585,2971
0.043097,0.069434,9.833286,0.002243,-0.002338,0.001247,32.58,-7.5,-26.7,260.8719,-0.434,-0.2243,55.814102,37.500412,208.2,20.585,2981
0.028731,0.064645,9.857229,0.002243,-0.001117,0.001247,34.74,-9.18,-28.8,255.9608,-0.4362,-0.2223,55.814102,37.500412,208.2,20.585,2991
0.028731,0.064645,9.857229,-0.000811,-0.001728,-0.000586,35.1,-9.84,-29.7,255.9608,-0.4362,-0.2223,55.814102,37.500412,208.2,20.585,3001
0.038308,0.076617,9.835681,-0.001422,-0.002338,2.5E-05,35.1,-9.84,-29.7,255.9608,-0.4362,-0.2223,55.814102,37.500412,208.2,20.585,3011
0.043097,0.074223,9.847652,0.001021,-0.001728,-0.001808,36.3,-10.14,-30.48,255.9608,-0.4362,-0.2223,55.814102,37.500412,208.2,20.585,3020
0.043097,0.074223,9.852441,-0.0002,-0.000506,2.5E-05,36.3,-10.14,-30.48,255.9608,-0.4362,-0.2223,55.814102,37.500412,208.2,20.585,3031
0.043097,0.074223,9.852441,-0.0002,-0.000506,-0.001197,38.04,-10.38,-30.96,255.6314,-0.4362,-0.2188,55.814102,37.500412,208.2,20.585,3041
0.043097,0.074223,9.852441,-0.0002,-0.000506,-0.001197,38.04,-10.38,-30.96,255.6314,-0.4362,-0.2188,55.814102,37.500412,208.2,20.585,3051
0.028731,0.062251,9.857229,0.000411,0.002549,2.5E-05,38.7,-10.86,-31.74,255.6314,-0.4362,-0.2188,55.814102,37.500412,208.2,20.585,3060
0.019154,0.06704,9.818921,-0.001422,0.002549,-0.001808,40.56,-11.16,-32.94,255.6314,-0.4362,-0.2188,55.814102,37.500412,208.2,20.585,3070
0.019154,0.06704,9.818921,0.004076,-0.004171,0.001247,40.56,-11.16,-32.94,255.6314,-0.4362,-0.2188,55.814102,37.500412,208.2,20.585,3081
0.052674,0.090982,9.823709,-0.000811,-0.004782,-0.001197,43.26,-11.22,-33.48,256.004,-0.4374,-0.2168,55.814102,37.500412,208.2,20.585,3091
0.05028,0.047885,9.759064,0.002854,0.002549,0.000636,43.26,-11.22,-33.48,256.004,-0.4374,-0.2168,55.814102,37.500412,208.2,20.585,3101
0.03352,0.090982,9.785401,-0.002644,0.000716,0.002469,45.6,-9.78,-34.32,256.004,-0.4374,-0.2168,55.814102,37.500412,208.2,20.585,3111
0.03352,0.090982,9.785401,-0.002644,0.000716,0.000636,45.6,-9.78,-34.32,256.004,-0.4374,-0.2168,55.814102,37.500412,208.2,20.585,3120
0.038308,0.052674,9.759064,0.003465,0.003159,-0.001808,48.84,-7.56,-34.26,261.042,-0.4337,-0.2118,55.814102,37.500412,208.2,20.585,3131
0.035914,0.079011,9.761458,-0.004476,-0.000506,-0.000586,48.84,-7.56,-34.26,261.042,-0.4337,-0.2118,55.814102,37.500412,208.2,20.585,3141
0.043097,0.079011,9.828498,0.003465,-0.001728,0.001247,53.46,-4.92,-35.04,261.042,-0.4337,-0.2118,55.814102,37.500412,208.2,20.585,3150
0.043097,0.079011,9.828498,-0.002033,-0.001728,0.002469,53.46,-4.92,-35.04,261.042,-0.4337,-0.2118,55.814102,37.500412,208.2,20.585,3161
0.03352,0.06704,9.859624,0.002243,-0.000506,-0.000586,59.34,-0.06,-35.94,270.2576,-0.4257,-0.2159,55.814102,37.500412,208.2,20.585,3170
0.03352,0.090982,9.852441,0.002243,-0.000506,-0.000586,59.34,-0.06,-35.94,270.2576,-0.4257,-0.2159,55.814102,37.500412,208.2,20.585,3181
0.019154,0.088588,9.859624,-0.003255,-0.001728,0.000636,65.94,6.06,-34.68,270.2576,-0.4257,-0.2159,55.814102,37.500412,208.2,20.585,3190
0.01676,0.079011,9.842864,-0.0002,-0.001117,-0.000586,68.28,9.3,-34.26,270.2576,-0.4257,-0.2159,55.814102,37.500412,208.2,20.585,3201
0.01676,0.079011,9.842864,-0.002644,-0.001117,-0.001197,68.28,9.3,-34.26,270.2576,-0.4257,-0.2159,55.814102,37.500412,208.2,20.585,3211
0.031126,0.0838,9.929058,0.004076,0.000716,-0.003029,72.3,17.16,-33.3,283.4468,-0.4306,-0.2225,55.814102,37.500412,208.2,20.585,3220
0.023943,0.069434,9.885961,-0.002644,0.000716,2.5E-05,72.3,17.16,-33.3,283.4468,-0.4306,-0.2225,55.814102,37.500412,208.2,20.585,3231
0.035914,0.076617,9.895537,0.004687,0.000105,2.5E-05,77.46,26.52,-32.28,283.4468,-0.4306,-0.2225,55.814102,37.500412,208.2,20.585,3240
0.040703,0.079011,9.857229,0.000411,-0.000506,0.001247,81.06,31.98,-31.62,283.4468,-0.4306,-0.2225,55.814102,37.500412,208.2,20.585,3251
0.040703,0.079011,9.857229,0.000411,-0.000506,0.001247,81.06,31.98,-31.62,283.4468,-0.4306,-0.2225,55.814102,37.500412,208.2,20.585,3261
0.069434,0.112531,9.835681,-0.000811,-0.001117,0.000636,86.58,44.82,-28.74,297.4331,-0.4334,-0.212,55.814102,37.500412,208.2,20.585,3271
0.040703,0.079011,9.823709,0.002243,0.002549,0.001247,86.58,44.82,-28.74,297.4331,-0.4334,-0.212,55.814102,37.500412,208.2,20.585,3281
0.031126,0.076617,9.792584,-0.003255,-0.002338,-0.001808,89.94,60.18,-23.46,297.4331,-0.4334,-0.212,55.814102,37.500412,208.2,20.585,3291
0.043097,0.081405,9.866806,0.001632,-0.001117,-0.000586,91.02,67.92,-19.44,297.4331,-0.4334,-0.212,55.814102,37.500412,208.2,20.585,3301
0.043097,0.081405,9.866806,-0.001422,0.001327,0.001858,91.02,67.92,-19.44,297.4331,-0.4334,-0.212,55.814102,37.500412,208.2,20.585,3310
0.014366,0.076617,9.838076,-0.0002,-0.000506,0.003079,88.8,84.18,-9.36,313.3554,-0.4307,-0.2122,55.814102,37.500412,208.2,20.585,3321
0.055068,0.0838,9.842864,-0.003255,-0.001117,2.5E-05,88.8,84.18,-9.36,313.3554,-0.4307,-0.2122,55.814102,37.500412,208.2,20.585,3331
0.052674,0.071828,9.840469,0.001021,0.000105,0.000636,81.24,99.78,4.38,313.3554,-0.4307,-0.2122,55.814102,37.500412,208.2,20.585,3341
0.055068,0.079011,9.869201,0.000411,-0.000506,0.002469,75.3,106.68,12.48,313.3554,-0.4307,-0.2122,55.814102,37.500412,208.2,20.585,3351
0.055068,0.079011,9.869201,0.001021,-0.000506,0.000636,75.3,106.68,12.48,313.3554,-0.4307,-0.2122,55.814102,37.500412,208.2,20.585,3361
0.055068,0.059857,9.845258,0.002243,-0.001728,0.000636,60.54,118.02,31.62,332.6603,-0.4408,-0.2177,55.814102,37.500412,208.2,20.585,3371
0.043097,0.076617,9.840469,0.002243,-0.001728,0.000636,60.54,118.02,31.62,332.6603,-0.4408,-0.2177,55.814102,37.500412,208.2,20.585,3381
0.023943,0.076617,9.862018,-0.002644,-0.001117,-0.001197,42.66,125.76,51.48,332.6603,-0.4408,-0.2177,55.814102,37.500412,208.2,20.585,3390
0.03352,0.081405,9.852441,0.004076,0.002549,0.001247,32.22,127.44,60.84,332.6603,-0.4408,-0.2177,55.814102,37.500412,208.2,20.585,3401
0.03352,0.081405,9.852441,-0.001422,-0.000506,-0.001808,32.22,127.44,60.84,332.6603,-0.4408,-0.2177,55.814102,37.500412,208.2,20.585,3411
0.021548,0.076617,9.873989,-0.0002,0.000716,2.5E-05,10.02,125.88,79.32,355.5871,-0.4408,-0.2346,55.814102,37.500412,208.2,20.585,3421
0.026337,0.081405,9.840469,-0.0002,0.001327,2.5E-05,10.02,125.88,79.32,355.5871,-0.4408,-0.2346,55.814102,37.500412,208.2,20.585,3431
0.045491,0.079011,9.835681,-0.000811,0.001938,-0.001197,-11.4,119.7,96.3,355.5871,-0.4408,-0.2346,55.814102,37.500412,208.2,20.585,3440
0.064645,0.079011,9.838076,-0.002033,-0.000506,0.003079,-21.78,115.5,103.92,355.5871,-0.4408,-0.2346,55.814102,37.500412,208.2,20.585,3451
0.064645,0.079011,9.838076,0.001632,-0.001728,0.002469,-21.78,115.5,103.92,355.5871,-0.4408,-0.2346,55.814102,37.500412,208.2,20.585,3461
0.057463,0.06704,9.847652,-0.0002,0.000105,-0.001197,-40.92,102.48,117.72,22.3037,-0.4404,-0.2275,55.814102,37.500412,208.2,20.585,3470
0.045491,0.086194,9.818921,-0.0002,-0.001117,0.000636,-40.92,102.48,117.72,22.3037,-0.4404,-0.2275,55.814102,37.500412,208.2,20.585,3481
0.040703,0.088588,9.842864,0.001021,-0.002338,-0.001808,-57.66,86.64,126.42,22.3037,-0.4404,-0.2275,55.814102,37.500412,208.2,20.585,3491
0.028731,0.088588,9.847652,-0.001422,-0.000506,0.001247,-64.86,78.66,129.54,22.3037,-0.4404,-0.2275,55.814102,37.500412,208.2,20.585,3501
0.028731,0.088588,9.847652,-0.003255,0.001327,-0.001197,-64.86,78.66,129.54,22.3037,-0.4404,-0.2275,55.814102,37.500412,208.2,20.585,3511
0.040703,0.069434,9.854836,-0.001422,-0.001117,-0.000586,-76.8,60.48,134.46,52.7577,-0.4448,-0.2392,55.814102,37.500412,208.2,20.585,3521
0.026337,0.090982,9.857229,-0.002033,0.002549,-0.000586,-76.8,60.48,134.46,52.7577,-0.4448,-0.2392,55.814102,37.500412,208.2,20.585,3530
0.035914,0.071828,9.852441,-0.002033,0.000716,-0.002418,-86.22,41.28,136.92,52.7577,-0.4448,-0.2392,55.814102,37.500412,208.2,20.585,3541
0.035914,0.076617,9.816526,-0.001422,0.000716,-0.000586,-90,31.8,137.34,52.7577,-0.4448,-0.2392,55.814102,37.500412,208.2,20.585,3550
0.035914,0.076617,9.816526,-0.001422,0.000105,-0.000586,-90,31.8,137.34,52.7577,-0.4448,-0.2392,55.814102,37.500412,208.2,20.585,3561
0.021548,0.079011,9.852441,-0.001422,0.000105,-0.000586,-94.56,13.32,134.28,82.8754,-0.4521,-0.2437,55.814102,37.500412,208.2,20.585,3571
0.03352,0.081405,9.862018,-0.000811,0.000105,0.000636,-94.56,13.32,134.28,82.8754,-0.4521,-0.2437,55.814102,37.500412,208.2,20.585,3582
0.047885,0.081405,9.840469,-0.0002,-0.001117,-0.000586,-96.12,-4.74,126.72,82.8754,-0.4521,-0.2437,55.814102,37.500412,208.2,20.585,3591
0.057463,0.06704,9.838076,-0.0002,-0.001117,-0.000586,-96.12,-4.74,126.72,82.8754,-0.4521,-0.2437,55.814102,37.500412,208.2,20.585,3601
0.057463,0.06704,9.838076,-0.0002,0.001938,2.5E-05,-96,-21.3,115.8,102.7992,-0.4555,-0.2377,55.814102,37.500412,208.2,20.585,3611
0.06704,0.0838,9.852441,-0.0002,-0.001728,0.000636,-96,-21.3,115.8,102.7992,-0.4555,-0.2377,55.814102,37.500412,208.2,20.585,3620
0.038308,0.079011,9.840469,-0.002033,-0.001728,-0.000586,-93,-35.34,102.42,102.7992,-0.4555,-0.2377,55.814102,37.500412,208.2,20.585,3631
0.03352,0.081405,9.842864,-0.002644,0.000716,-0.000586,-93,-35.34,102.42,102.7992,-0.4555,-0.2377,55.814102,37.500412,208.2,20.585,3641
0.03352,0.081405,9.842864,-0.002644,0.000716,-0.000586,-93,-35.34,102.42,102.7992,-0.4555,-0.2377,55.814102,37.500412,208.2,20.585,3651
0.05028,0.06704,9.830893,0.000411,-0.001117,-0.000586,-87.9,-46.5,86.16,117.8464,-0.4547,-0.2398,55.814102,37.500412,208.2,20.585,3661
0.035914,0.064645,9.838076,-0.002033,0.004381,-0.000586,-81.66,-54,67.08,117.8464,-0.4547,-0.2398,55.814102,37.500412,208.2,20.585,3671
0.035914,0.064645,9.838076,0.001632,0.000105,0.001247,-81.66,-54,67.08,117.8464,-0.4547,-0.2398,55.814102,37.500412,208.2,20.585,3680
0.038308,0.079011,9.857229,-0.0002,-0.002338,0.000636,-74.1,-59.28,47.76,128.6656,-0.4522,-0.243,55.814102,37.500412,208.2,20.585,3691
0.043097,0.079011,9.842864,-0.001422,0.000105,-0.002418,-74.1,-59.28,47.76,128.6656,-0.4522,-0.243,55.814102,37.500412,208.2,20.585,3701
0.045491,0.071828,9.859624,0.000411,-0.001117,0.002469,-65.82,-60.42,29.28,128.6656,-0.4522,-0.243,55.814102,37.500412,208.2,20.585,3711
0.045491,0.071828,9.859624,-0.000811,0.003159,0.000636,-61.32,-58.92,20.34,128.6656,-0.4522,-0.243,55.814102,37.500412,208.2,20.585,3721
0.038308,0.076617,9.857229,-0.001422,-0.001117,-0.001808,-61.32,-58.92,20.34,128.6656,-0.4522,-0.243,55.814102,37.500412,208.2,20.585,3731
0.052674,0.079011,9.857229,-0.002033,-0.000506,0.001247,-51.9,-54.24,5.76,136.0903,-0.4448,-0.239,55.814102,37.500412,208.2,20.585,3741
0.028731,0.088588,9.833286,0.000411,-0.000506,-0.001808,-51.9,-54.24,5.76,136.0903,-0.4448,-0.239,55.814102,37.500412,208.2,20.585,3751
0.028731,0.052674,9.828498,0.001021,0.000716,0.001858,-43.38,-48,-5.28,136.0903,-0.4448,-0.239,55.814102,37.500412,208.2,20.585,3761
0.028731,0.052674,9.828498,0.001021,0.000716,0.001858,-43.38,-48,-5.28,136.0903,-0.4448,-0.239,55.814102,37.500412,208.2,20.585,3771
0.045491,0.06704,9.862018,-0.001422,-0.000506,-0.000586,-36.84,-40.08,-11.82,137.202,-0.4425,-0.238,55.814102,37.500412,208.2,20.585,3781
0.031126,0.10056,9.871595,-0.002644,-0.001117,0.000636,-36.84,-40.08,-11.82,137.202,-0.4425,-0.238,55.814102,37.500412,208.2,20.585,3791
0.055068,0.081405,9.850046,-0.0002,0.000105,0.001247,-31.92,-33.96,-14.46,137.202,-0.4425,-0.238,55.814102,37.500412,208.2,20.585,3801
0.040703,0.0838,9.847652,0.001021,-0.001728,2.5E-05,-31.92,-33.96,-14.46,137.202,-0.4425,-0.238,55.814102,37.500412,208.2,20.585,3811
0.031126,0.062251,9.862018,-0.000811,0.004992,0.001858,-28.02,-29.28,-15.66,135.9486,-0.4441,-0.2368,55.814102,37.500412,208.2,20.585,3821
0.031126,0.062251,9.862018,-0.0002,0.000105,-0.001197,-28.02,-29.28,-15.66,135.9486,-0.4441,-0.2368,55.814102,37.500412,208.2,20.585,3831
0.035914,0.0838,9.847652,0.000411,-0.002338,-0.000586,-25.5,-25.26,-16.5,135.9486,-0.4441,-0.2368,55.814102,37.500412,208.2,20.585,3841
0.038308,0.086194,9.854836,-0.001422,0.001327,-0.001808,-25.5,-25.26,-16.5,135.9486,-0.4441,-0.2368,55.814102,37.500412,208.2,20.585,3851
0.038308,0.086194,9.854836,-0.001422,0.001327,-0.001808,-24.54,-22.8,-17.34,132.5287,-0.4468,-0.2396,55.814102,37.500412,208.2,20.585,3860
0.023943,0.064645,9.854836,-0.000811,0.000105,-0.000586,-24.54,-22.8,-17.34,132.5287,-0.4468,-0.2396,55.814102,37.500412,208.2,20.585,3871
0.047885,0.06704,9.850046,0.000411,-0.000506,2.5E-05,-23.28,-20.94,-16.92,132.5287,-0.4468,-0.2396,55.814102,37.500412,208.2,20.585,3881
0.047885,0.081405,9.835681,-0.001422,0.000716,0.001247,-23.28,-20.94,-16.92,132.5287,-0.4468,-0.2396,55.814102,37.500412,208.2,20.585,3891
0.047885,0.081405,9.835681,-0.0002,0.001327,0.000636,-22.2,-19.14,-16.44,130.7104,-0.4487,-0.2346,55.814102,37.500412,208.2,20.585,3901
0.045491,0.076617,9.859624,0.002854,0.001327,-0.000586,-22.2,-19.14,-16.44,130.7104,-0.4487,-0.2346,55.814102,37.500412,208.2,20.585,3911
0.03352,0.081405,9.842864,0.002243,0.000105,0.001858,-21.84,-17.46,-16.32,130.7104,-0.4487,-0.2346,55.814102,37.500412,208.2,20.585,3921
0.03352,0.081405,9.842864,0.002243,0.000105,0.001858,-21.84,-17.46,-16.32,130.7104,-0.4487,-0.2346,55.814102,37.500412,208.2,20.585,3931
0.031126,0.079011,9.866806,0.001021,0.000716,0.001247,-21.48,-16.5,-16.02,127.1732,-0.4466,-0.2366,55.814102,37.500412,208.2,20.585,3941
0.035914,0.074223,9.866806,0.000411,-0.000506,-0.000586,-21.48,-16.5,-16.02,127.1732,-0.4466,-0.2366,55.814102,37.500412,208.2,20.585,3951
0.035914,0.074223,9.866806,-0.0002,0.000105,0.000636,-21.36,-16.08,-15.48,127.1732,-0.4466,-0.2366,55.814102,37.500412,208.2,20.585,3960
0.045491,0.071828,9.833286,-0.002644,0.00377,0.003079,-21.48,-15.6,-15.24,127.1732,-0.4466,-0.2366,55.814102,37.500412,208.2,20.585,3971
0.040703,0.064645,9.852441,-0.003255,0.00377,0.001858,-21.48,-15.6,-15.24,127.1732,-0.4466,-0.2366,55.814102,37.500412,208.2,20.585,3981
0.019154,0.076617,9.842864,0.001021,0.003159,0.001858,-21.18,-15.24,-15.18,125.4038,-0.4481,-0.2383,55.814102,37.500412,208.2,20.585,3991
0.019154,0.076617,9.842864,0.001021,0.001938,0.001858,-21.18,-15.24,-15.18,125.4038,-0.4481,-0.2383,55.814102,37.500412,208.2,20.585,4001
0.038308,0.10056,9.838076,-0.0002,-0.001728,0.001247,-20.76,-15.42,-14.88,125.4038,-0.4481,-0.2383,55.814102,37.500412,208.2,20.585,4011
0.023943,0.069434,9.838076,-0.0002,-0.001728,0.001247,-20.88,-15.24,-15.48,125.4038,-0.4481,-0.2383,55.814102,37.500412,208.2,20.585,4021
0.035914,0.076617,9.847652,0.001632,-0.001728,2.5E-05,-20.88,-15.24,-15.48,125.4038,-0.4481,-0.2383,55.814102,37.500412,208.2,20.585,4030
0.03352,0.074223,9.80695,0.001021,-0.001117,-0.001197,-21.18,-13.74,-15.66,123.535,-0.4399,-0.2261,55.814102,37.500412,208.2,20.585,4041
0.03352,0.074223,9.80695,-0.002033,-0.001728,-0.000586,-21.18,-13.74,-15.66,123.535,-0.4399,-0.2261,55.814102,37.500412,208.2,20.585,4051
0.047885,0.074223,9.842864,0.001632,-0.001728,-0.002418,-21.12,-13.86,-15.72,123.535,-0.4399,-0.2261,55.814102,37.500412,208.2,20.585,4062
0.06704,0.081405,9.862018,0.000411,0.000716,0.000636,-20.76,-14.04,-15.84,123.535,-0.4399,-0.2261,55.814102,37.500412,208.2,20.585,4071
0.047885,0.079011,9.842864,-0.003255,0.001938,-0.003029,-21,-14.28,-15.84,123.532,-0.4394,-0.2167,55.814102,37.500412,208.2,20.585,4081
0.040703,0.074223,9.821315,-0.001422,0.001327,-0.001197,-21,-14.28,-15.84,123.532,-0.4394,-0.2167,55.814102,37.500412,208.2,20.585,4098
0.040703,0.074223,9.821315,-0.001422,0.001327,-0.001197,-21,-14.28,-15.84,123.532,-0.4394,-0.2167,55.814102,37.500412,208.2,20.585,4101
0.026337,0.06704,9.833286,-0.003866,0.000105,-0.001197,-21.06,-14.04,-15.36,123.532,-0.4394,-0.2167,55.814102,37.500412,208.2,20.585,4111
0.026337,0.06704,9.833286,-0.003866,0.000105,-0.001197,-21.06,-14.04,-15.36,123.532,-0.4394,-0.2167,55.814102,37.500412,208.2,20.585,4121
0.026337,0.06704,9.833286,-0.003866,0.000105,-0.001197,-21.06,-14.04,-15.36,123.532,-0.4394,-0.2167,55.814102,37.500412,208.2,20.585,4131
0.031126,0.06704,9.852441,-0.003866,0.000105,-0.001197,-21.06,-14.04,-15.36,123.532,-0.4394,-0.2167,55.814102,37.500412,208.2,20.585,4141
0.031126,0.06704,9.852441,-0.003866,0.000105,-0.001197,-21.06,-14.04,-15.36,123.532,-0.4394,-0.2167,55.814102,37.500412,208.2,20.585,4151
0.035914,0.071828,9.847652,-0.000811,-0.001117,-0.001197,-20.94,-15.36,-15.72,125.3917,-0.4383,-0.215,55.814102,37.500412,208.2,20.585,4161
0.035914,0.071828,9.847652,-0.000811,-0.001117,-0.001197,-20.94,-15.36,-15.72,125.3917,-0.4383,-0.215,55.814102,37.500412,208.2,20.585,4171
0.035914,0.071828,9.847652,-0.000811,-0.001117,-0.001197,-20.94,-15.36,-15.72,125.3917,-0.4383,-0.215,55.814102,37.500412,208.2,20.585,4181
0.035914,0.069434,9.845258,0.002854,0.001327,0.001858,-20.88,-16.32,-16.56,125.3917,-0.4383,-0.215,55.814102,37.500412,208.2,20.585,4191
0.03352,0.079011,9.876384,0.001021,-0.000506,0.001858,-22.44,-18.96,-16.8,130.7046,-0.4313,-0.2157,55.814102,37.500412,208.2,20.585,4200
0.038308,0.081405,9.862018,0.000411,0.004992,-0.001197,-22.44,-18.96,-16.8,130.7046,-0.4313,-0.2157,55.814102,37.500412,208.2,20.585,4211
0.038308,0.081405,9.862018,-0.0002,0.001938,2.5E-05,-23.16,-21.24,-16.62,130.7046,-0.4313,-0.2157,55.814102,37.500412,208.2,20.585,4221
0.040703,0.079011,9.871595,0.003465,0.000716,-0.000586,-23.16,-21.24,-16.62,130.7046,-0.4313,-0.2157,55.814102,37.500412,208.2,20.585,4231
0.057463,0.086194,9.871595,-0.000811,0.001327,0.001858,-24.6,-22.98,-16.8,132.5273,-0.4322,-0.2193,55.814102,37.500412,208.2,20.585,4241
0.03352,0.074223,9.864412,0.001021,0.001327,0.001247,-24.6,-22.98,-16.8,132.5273,-0.4322,-0.2193,55.814102,37.500412,208.2,20.585,4250
0.038308,0.086194,9.842864,0.000411,0.001327,2.5E-05,-27.72,-25.26,-16.44,132.5273,-0.4322,-0.2193,55.814102,37.500412,208.2,20.585,4261
0.038308,0.086194,9.842864,0.000411,0.001327,2.5E-05,-27.72,-25.26,-16.44,132.5273,-0.4322,-0.2193,55.814102,37.500412,208.2,20.585,4270
0.03352,0.074223,9.840469,0.000411,0.001327,0.002469,-30.54,-28.98,-14.22,133.0332,-0.4357,-0.217,55.814102,37.500412,208.2,20.585,4281
0.035914,0.081405,9.871595,0.004687,0.000105,-0.002418,-30.54,-28.98,-14.22,133.0332,-0.4357,-0.217,55.814102,37.500412,208.2,20.585,4291
0.035914,0.081405,9.871595,0.000411,-0.002338,-0.001808,-33,-32.46,-10.8,133.0332,-0.4357,-0.217,55.814102,37.500412,208.2,20.585,4301
0.040703,0.081405,9.873989,0.002243,-0.002338,2.5E-05,-34.92,-33.84,-9.3,133.0332,-0.4357,-0.217,55.814102,37.500412,208.2,20.585,4311
0.040703,0.081405,9.873989,-0.000811,0.001938,0.001247,-34.92,-33.84,-9.3,133.0332,-0.4357,-0.217,55.814102,37.500412,208.2,20.585,4321
0.052674,0.074223,9.878778,-0.000811,0.001938,0.001247,-39,-36.6,-4.44,133.4787,-0.4365,-0.218,55.814102,37.500412,208.2,20.585,4330
0.028731,0.086194,9.847652,0.001021,-0.000506,-0.000586,-39,-36.6,-4.44,133.4787,-0.4365,-0.218,55.814102,37.500412,208.2,20.585,4341
0.028731,0.086194,9.847652,0.000411,-0.001117,2.5E-05,-43.08,-38.46,2.22,133.4787,-0.4365,-0.218,55.814102,37.500412,208.2,20.585,4350
0.038308,0.069434,9.864412,-0.001422,0.000105,0.002469,-43.08,-38.46,2.22,133.4787,-0.4365,-0.218,55.814102,37.500412,208.2,20.585,4361
0.031126,0.069434,9.845258,-0.000811,0.000105,-0.001808,-47.88,-39.9,10.5,129.8387,-0.4387,-0.2175,55.814102,37.500412,208.2,20.585,4370
0.031126,0.069434,9.845258,-0.002033,0.003159,0.000636,-47.88,-39.9,10.5,129.8387,-0.4387,-0.2175,55.814102,37.500412,208.2,20.585,4381
0.01676,0.079011,9.852441,0.000411,0.000105,0.000636,-51.78,-40.14,19.62,129.8387,-0.4387,-0.2175,55.814102,37.500412,208.2,20.585,4391
0.019154,0.086194,9.842864,0.001021,0.000105,-0.001197,-51.78,-40.14,19.62,129.8387,-0.4387,-0.2175,55.814102,37.500412,208.2,20.585,4401
0.021548,0.069434,9.842864,-0.000811,-0.001728,0.001247,-54,-38.04,29.16,125.2411,-0.4494,-0.2076,55.814102,37.500412,208.2,20.585,4412
0.021548,0.069434,9.842864,-0.000811,-0.001728,0.001247,-54,-38.04,29.16,125.2411,-0.4494,-0.2076,55.814102,37.500412,208.2,20.585,4421
0.035914,0.071828,9.852441,0.001021,0.000716,-0.001197,-55.62,-37.02,33.24,125.2411,-0.4494,-0.2076,55.814102,37.500412,208.2,20.585,4431
0.047885,0.074223,9.857229,0.004687,-0.00356,-0.003029,-56.88,-33.36,42.06,125.2411,-0.4494,-0.2076,55.814102,37.500412,208.2,20.585,4441
0.047885,0.074223,9.857229,-0.0002,0.002549,0.002469,-56.88,-33.36,42.06,125.2411,-0.4494,-0.2076,55.814102,37.500412,208.2,20.585,4451
0.043097,0.076617,9.866806,-0.0002,-0.001728,0.000636,-57.78,-28.8,50.04,116.8067,-0.4545,-0.1991,55.814102,37.500412,208.2,20.585,4461
0.031126,0.064645,9.864412,-0.0002,0.000105,2.5E-05,-57.66,-26.28,54.12,116.8067,-0.4545,-0.1991,55.814102,37.500412,208.2,20.585,4471
0.031126,0.064645,9.864412,0.002243,0.001327,0.000636,-57.66,-26.28,54.12,116.8067,-0.4545,-0.1991,55.814102,37.500412,208.2,20.585,4481
0.031126,0.064645,9.864412,0.002243,0.001327,0.000636,-57.66,-26.28,54.12,116.8067,-0.4545,-0.1991,55.814102,37.500412,208.2,20.585,4491
0.05028,0.079011,9.847652,0.000411,-0.001117,0.003079,-56.16,-20.76,62.34,110.919,-0.452,-0.1969,55.814102,37.500412,208.2,20.585,4501
0.05028,0.079011,9.847652,0.000411,-0.001117,0.003079,-56.16,-20.76,62.34,110.919,-0.452,-0.1969,55.814102,37.500412,208.2,20.585,4510
0.031126,0.06704,9.842864,-0.0002,0.000716,0.000636,-54.36,-18,65.88,110.919,-0.452,-0.1969,55.814102,37.500412,208.2,20.585,4521
0.05028,0.0838,9.828498,0.001632,0.000716,0.004301,-54.36,-18,65.88,110.919,-0.452,-0.1969,55.814102,37.500412,208.2,20.585,4530
0.035914,0.069434,9.883567,0.001021,0.003159,-0.000586,-49.38,-8.04,74.16,99.883,-0.4516,-0.199,55.814102,37.500412,208.2,20.585,4541
0.047885,0.0838,9.850046,-0.002033,-0.004171,-0.001808,-49.38,-8.04,74.16,99.883,-0.4516,-0.199,55.814102,37.500412,208.2,20.585,4551
0.047885,0.0838,9.850046,-0.002644,-0.001117,-0.001197,-43.5,3.96,79.92,99.883,-0.4516,-0.199,55.814102,37.500412,208.2,20.585,4561
0.035914,0.0838,9.873989,0.001021,0.000716,0.000636,-41.16,7.8,80.76,99.883,-0.4516,-0.199,55.814102,37.500412,208.2,20.585,4571
0.043097,0.076617,9.866806,0.001021,0.000716,0.000636,-41.16,7.8,80.76,99.883,-0.4516,-0.199,55.814102,37.500412,208.2,20.585,4581
0.03352,0.095771,9.845258,0.000411,0.001327,0.003079,-35.58,14.88,82.14,68.4158,-0.4496,-0.2037,55.814102,37.500412,208.2,20.585,4591
0.03352,0.095771,9.845258,0.002854,-0.005393,0.004301,-35.58,14.88,82.14,68.4158,-0.4496,-0.2037,55.814102,37.500412,208.2,20.585,4600
0.043097,0.093377,9.871595,-0.002033,-0.001728,2.5E-05,-29.04,21.96,81.24,68.4158,-0.4496,-0.2037,55.814102,37.500412,208.2,20.585,4610
0.035914,0.069434,9.878778,-0.001422,0.001327,-0.000586,-25.32,25.08,79.92,68.4158,-0.4496,-0.2037,55.814102,37.500412,208.2,20.585,4621
0.035914,0.069434,9.878778,-0.0002,-0.001117,-0.001808,-25.32,25.08,79.92,68.4158,-0.4496,-0.2037,55.814102,37.500412,208.2,20.585,4631
0.035914,0.069434,9.852441,-0.0002,-0.002338,0.001247,-17.28,29.64,76.8,30.4479,-0.4509,-0.2071,55.814102,37.500412,208.2,20.585,4641
0.031126,0.059857,9.847652,-0.0002,-0.002338,0.001247,-17.28,29.64,76.8,30.4479,-0.4509,-0.2071,55.814102,37.500412,208.2,20.585,4651
0.01676,0.059857,9.850046,0.001021,-0.002338,-0.00364,-9.24,35.22,71.64,30.4479,-0.4509,-0.2071,55.814102,37.500412,208.2,20.585,4661
0.03352,0.076617,9.871595,-0.000811,-0.000506,-0.001197,-5.76,37.5,68.64,30.4479,-0.4509,-0.2071,55.814102,37.500412,208.2,20.585,4670
0.03352,0.076617,9.871595,0.001021,0.001938,-0.001808,-5.76,37.5,68.64,30.4479,-0.4509,-0.2071,55.814102,37.500412,208.2,20.585,4680
0.035914,0.062251,9.850046,0.000411,0.000105,0.000636,1.5,40.26,62.4,357.4257,-0.4466,-0.2064,55.814102,37.500412,208.2,20.585,4691
0.023943,0.071828,9.859624,0.001021,-0.001117,-0.002418,1.5,40.26,62.4,357.4257,-0.4466,-0.2064,55.814102,37.500412,208.2,20.585,4701
0.035914,0.088588,9.878778,0.001632,0.002549,-0.001808,8.28,41.04,54.48,357.4257,-0.4466,-0.2064,55.814102,37.500412,208.2,20.585,4710
0.045491,0.0838,9.885961,-0.0002,0.000716,-0.000586,8.28,41.04,54.48,357.4257,-0.4466,-0.2064,55.814102,37.500412,208.2,20.585,4721
0.045491,0.0838,9.885961,-0.000811,-0.002338,-0.001197,13.02,40.74,46.08,342.475,-0.4413,-0.206,55.814102,37.500412,208.2,20.585,4731
0.057463,0.088588,9.90272,0.001632,0.000716,0.001858,14.94,40.02,42.48,342.475,-0.4413,-0.206,55.814102,37.500412,208.2,20.585,4744
0.045491,0.069434,9.876384,0.001632,0.000716,0.001858,14.94,40.02,42.48,342.475,-0.4413,-0.206,55.814102,37.500412,208.2,20.585,4751
0.026337,0.071828,9.876384,-0.003866,-0.002949,-0.001197,18.42,37.8,34.68,342.475,-0.4413,-0.206,55.814102,37.500412,208.2,20.585,4760
0.040703,0.079011,9.871595,-0.0002,0.000105,0.001247,20.28,36.54,31.44,331.5841,-0.4376,-0.2028,55.814102,37.500412,208.2,20.585,4774
0.040703,0.079011,9.871595,-0.0002,0.000105,0.001247,20.28,36.54,31.44,331.5841,-0.4376,-0.2028,55.814102,37.500412,208.2,20.585,4781
0.047885,0.071828,9.833286,-0.0002,-0.001117,-0.001808,22.08,33.84,24.84,331.5841,-0.4376,-0.2028,55.814102,37.500412,208.2,20.585,4790
0.03352,0.062251,9.852441,0.001632,-0.000506,-0.002418,22.08,33.84,24.84,331.5841,-0.4376,-0.2028,55.814102,37.500412,208.2,20.585,4801
0.03352,0.069434,9.854836,0.001632,-0.001117,2.5E-05,23.46,31.38,18.12,323.3824,-0.4361,-0.2081,55.814102,37.500412,208.2,20.585,4810
0.019154,0.069434,9.854836,0.001632,-0.000506,0.001247,23.46,29.64,15.54,323.3824,-0.4361,-0.2081,55.814102,37.500412,208.2,20.585,4821
0.021548,0.062251,9.830893,0.001021,-0.001728,0.001247,23.46,29.64,15.54,323.3824,-0.4361,-0.2081,55.814102,37.500412,208.2,20.585,4832
0.026337,0.064645,9.842864,0.001021,-0.001728,0.001247,22.68,27.42,11.7,323.3824,-0.4361,-0.2081,55.814102,37.500412,208.2,20.585,4841
0.026337,0.064645,9.842864,-0.0002,0.000716,0.001247,22.68,27.42,11.7,323.3824,-0.4361,-0.2081,55.814102,37.500412,208.2,20.585,4851
0.019154,0.074223,9.816526,-0.0002,0.001327,-0.001808,21.72,25.86,11.16,319.7235,-0.4352,-0.211,55.814102,37.500412,208.2,20.585,4861
0.019154,0.074223,9.816526,0.002243,0.003159,-0.001808,21.72,25.86,11.16,319.7235,-0.4352,-0.211,55.814102,37.500412,208.2,20.585,4870
0.035914,0.074223,9.866806,0.001632,-0.000506,0.003079,20.4,23.46,8.76,319.7235,-0.4352,-0.211,55.814102,37.500412,208.2,20.585,4881
0.03352,0.0838,9.850046,-0.001422,0.003159,-0.001197,18.72,21.72,6.48,319.1557,-0.4398,-0.2012,55.814102,37.500412,208.2,20.585,4890
0.043097,0.086194,9.821315,-0.001422,0.003159,-0.001197,18.72,21.72,6.48,319.1557,-0.4398,-0.2012,55.814102,37.500412,208.2,20.585,4902
0.040703,0.079011,9.833286,-0.000811,-0.004171,0.002469,16.8,19.98,4.92,319.1557,-0.4398,-0.2012,55.814102,37.500412,208.2,20.585,4911
0.040703,0.079011,9.833286,-0.002644,0.001327,0.000636,16.8,19.98,4.92,319.1557,-0.4398,-0.2012,55.814102,37.500412,208.2,20.585,4920
0.069434,0.071828,9.852441,0.001632,-0.001117,0.000636,14.64,19.02,3.42,321.6942,-0.4407,-0.1998,55.814102,37.500412,208.2,20.585,4932
0.035914,0.090982,9.852441,0.001632,0.000716,0.001858,13.92,18.42,2.7,321.6942,-0.4407,-0.1998,55.814102,37.500412,208.2,20.585,4941
0.035914,0.090982,9.852441,0.002854,0.000716,-0.001197,13.92,18.42,2.7,321.6942,-0.4407,-0.1998,55.814102,37.500412,208.2,20.585,4951
0.035914,0.06704,9.857229,0.002854,0.000716,-0.001197,12.48,16.68,1.14,321.6942,-0.4407,-0.1998,55.814102,37.500412,208.2,20.585,4961
0.028731,0.069434,9.857229,0.000411,-0.000506,-0.000586,12.48,16.68,1.14,321.6942,-0.4407,-0.1998,55.814102,37.500412,208.2,20.585,4971
0.021548,0.081405,9.869201,-0.000811,-0.000506,0.001247,11.94,15.6,0.36,323.1289,-0.4452,-0.2076,55.814102,37.500412,208.2,20.585,4980
0.021548,0.081405,9.869201,-0.0002,-0.001117,0.001858,11.46,14.76,-0.42,323.1289,-0.4452,-0.2076,55.814102,37.500412,208.2,20.585,4991
0.014366,0.069434,9.857229,-0.000811,0.000105,0.001247,11.46,14.76,-0.42,323.1289,-0.4452,-0.2076,55.814102,37.500412,208.2,20.585,5001
0.05028,0.079011,9.842864,-0.000811,-0.000506,2.5E-05,10.98,13.62,-1.38,323.1289,-0.4452,-0.2076,55.814102,37.500412,208.2,20.585,5010
0.038308,0.079011,9.881172,-0.000811,-0.000506,2.5E-05,10.98,13.62,-1.38,323.1289,-0.4452,-0.2076,55.814102,37.500412,208.2,20.585,5021
0.05028,0.090982,9.845258,-0.000811,0.001327,-0.002418,10.56,12.06,-2.4,317.5057,-0.4437,-0.2126,55.814102,37.500412,208.2,20.585,5031
0.05028,0.090982,9.845258,-0.000811,-0.001728,-0.001808,10.56,12.06,-2.4,317.5057,-0.4437,-0.2126,55.814102,37.500412,208.2,20.585,5041
0.035914,0.0838,9.850046,-0.0002,-0.001728,-0.000586,11.46,11.22,-3.78,317.5057,-0.4437,-0.2126,55.814102,37.500412,208.2,20.585,5050
0.021548,0.079011,9.842864,-0.001422,0.000105,-0.003029,11.46,11.22,-3.78,317.5057,-0.4437,-0.2126,55.814102,37.500412,208.2,20.585,5061
0.021548,0.079011,9.842864,-0.001422,0.000105,-0.003029,11.46,11.22,-3.78,317.5057,-0.4437,-0.2126,55.814102,37.500412,208.2,20.585,5071
0.043097,0.090982,9.835681,-0.001422,-0.002338,2.5E-05,13.14,10.08,-5.88,307.6459,-0.4409,-0.2181,55.814102,37.500412,208.2,20.585,5080
0.040703,0.069434,9.854836,-0.0002,0.000716,0.001858,15,8.34,-7.56,307.6459,-0.4409,-0.2181,55.814102,37.500412,208.2,20.585,5093
0.052674,0.079011,9.862018,-0.0002,0.000716,0.001858,15,8.34,-7.56,307.6459,-0.4409,-0.2181,55.814102,37.500412,208.2,20.585,5100
0.052674,0.079011,9.862018,-0.002644,-0.002338,-0.001808,15,8.34,-7.56,307.6459,-0.4409,-0.2181,55.814102,37.500412,208.2,20.585,5111
0.031126,0.069434,9.864412,0.001021,0.000105,0.004912,16.74,7.08,-8.64,292.5379,-0.4468,-0.2254,55.814102,37.500412,208.2,20.585,5120
0.014366,0.0838,9.842864,0.001632,0.000105,0.002469,18,5.46,-10.2,292.5379,-0.4468,-0.2254,55.814102,37.500412,208.2,20.585,5131
0.026337,0.059857,9.878778,0.000411,0.000105,0.002469,18,5.46,-10.2,292.5379,-0.4468,-0.2254,55.814102,37.500412,208.2,20.585,5141
0.03352,0.071828,9.866806,0.001632,-0.000506,0.000636,20.22,4.02,-12.12,281.5396,-0.4477,-0.2249,55.814102,37.500412,208.2,20.585,5151
0.055068,0.06704,9.871595,-0.0002,-0.001728,2.5E-05,20.22,4.02,-12.12,281.5396,-0.4477,-0.2249,55.814102,37.500412,208.2,20.585,5161
0.055068,0.06704,9.871595,0.000411,-0.002338,0.000636,22.98,2.28,-14.46,281.5396,-0.4477,-0.2249,55.814102,37.500412,208.2,20.585,5171
0.040703,0.074223,9.854836,0.001021,-0.00356,0.001247,22.98,2.28,-14.46,281.5396,-0.4477,-0.2249,55.814102,37.500412,208.2,20.585,5181
0.040703,0.074223,9.854836,0.002854,-0.001728,-0.002418,25.2,-0.84,-17.1,268.0169,-0.4477,-0.2176,55.814102,37.500412,208.2,20.585,5191
0.040703,0.090982,9.840469,0.002854,-0.002949,0.001247,25.2,-0.84,-17.1,268.0169,-0.4477,-0.2176,55.814102,37.500412,208.2,20.585,5200
0.040703,0.090982,9.840469,0.000411,0.000716,2.5E-05,27.06,-3.06,-19.08,268.0169,-0.4477,-0.2176,55.814102,37.500412,208.2,20.585,5211
0.047885,0.076617,9.873989,0.000411,0.000716,2.5E-05,27.06,-3.06,-19.08,268.0169,-0.4477,-0.2176,55.814102,37.500412,208.2,20.585,5221
0.047885,0.076617,9.873989,0.001632,-0.000506,0.002469,28.2,-4.74,-19.14,260.1963,-0.4514,-0.2229,55.814102,37.500412,208.2,20.585,5230
0.045491,0.093377,9.864412,0.001632,0.001938,0.003079,28.2,-4.74,-19.14,260.1963,-0.4514,-0.2229,55.814102,37.500412,208.2,20.585,5241
0.038308,0.0838,9.854836,0.001632,-0.001117,0.003079,28.68,-6.72,-20.16,260.1963,-0.4514,-0.2229,55.814102,37.500412,208.2,20.585,5250
0.038308,0.0838,9.854836,0.001021,-0.001728,0.000636,28.68,-6.72,-20.16,260.1963,-0.4514,-0.2229,55.814102,37.500412,208.2,20.585,5261
0.038308,0.074223,9.873989,0.001021,-0.001117,-0.001197,29.64,-9.3,-22.2,253.6464,-0.4498,-0.2211,55.814102,37.500412,208.2,20.585,5271
0.035914,0.093377,9.857229,0.001632,0.000716,-0.000586,29.64,-9.3,-22.2,253.6464,-0.4498,-0.2211,55.814102,37.500412,208.2,20.585,5281
0.043097,0.069434,9.857229,0.000411,0.000716,-0.001808,31.08,-12.06,-23.28,253.6464,-0.4498,-0.2211,55.814102,37.500412,208.2,20.585,5291
0.043097,0.069434,9.857229,0.002243,0.000716,0.000636,31.08,-12.06,-23.28,253.6464,-0.4498,-0.2211,55.814102,37.500412,208.2,20.585,5300
0.043097,0.074223,9.850046,-0.0002,0.001327,-0.000586,31.26,-13.5,-23.88,247.6064,-0.4514,-0.2219,55.814102,37.500412,208.2,20.585,5311
0.043097,0.074223,9.850046,0.001021,0.000105,-0.000586,31.26,-13.5,-23.88,247.6064,-0.4514,-0.2219,55.814102,37.500412,208.2,20.585,5321
0.023943,0.079011,9.871595,-0.000811,0.000105,-0.002418,30.42,-14.94,-23.28,247.6064,-0.4514,-0.2219,55.814102,37.500412,208.2,20.585,5331
0.035914,0.064645,9.845258,-0.001422,-0.000506,-0.001197,30.12,-15.36,-23.34,247.6064,-0.4514,-0.2219,55.814102,37.500412,208.2,20.585,5341
0.03352,0.071828,9.838076,-0.001422,-0.001117,-0.000586,30.12,-15.36,-23.34,247.6064,-0.4514,-0.2219,55.814102,37.500412,208.2,20.585,5350
0.052674,0.088588,9.881172,0.002854,0.000716,0.000636,30.6,-16.74,-22.8,241.5833,-0.4483,-0.2174,55.814102,37.500412,208.2,20.585,5361
0.052674,0.088588,9.881172,0.002854,0.000716,0.000636,30.6,-16.74,-22.8,241.5833,-0.4483,-0.2174,55.814102,37.500412,208.2,20.585,5371
0.038308,0.081405,9.864412,-0.002033,0.000716,-0.000586,30.96,-18.36,-24.3,241.5833,-0.4483,-0.2174,55.814102,37.500412,208.2,20.585,5380
0.03352,0.0838,9.878778,0.001632,0.000716,-0.000586,31.92,-20.04,-25.02,241.5833,-0.4483,-0.2174,55.814102,37.500412,208.2,20.585,5391
0.035914,0.074223,9.878778,-0.002033,0.002549,2.5E-05,31.92,-20.04,-25.02,241.5833,-0.4483,-0.2174,55.814102,37.500412,208.2,20.585,5401
0.03352,0.0838,9.878778,-0.0002,-0.000506,0.001247,34.8,-23.16,-25.5,236.9835,-0.4491,-0.2149,55.814102,37.500412,208.2,20.585,5411
0.028731,0.074223,9.845258,0.002243,0.001327,0.000636,34.8,-23.16,-25.5,236.9835,-0.4491,-0.2149,55.814102,37.500412,208.2,20.585,5421
0.028731,0.074223,9.845258,0.002243,-0.000506,0.000636,35.82,-24,-25.08,236.9835,-0.4491,-0.2149,55.814102,37.500412,208.2,20.585,5431
0.043097,0.062251,9.859624,0.001632,-0.002949,0.001247,35.46,-23.94,-25.26,236.9835,-0.4491,-0.2149,55.814102,37.500412,208.2,20.585,5441
0.043097,0.071828,9.857229,-0.0002,-0.000506,-0.001808,35.46,-23.94,-25.26,236.9835,-0.4491,-0.2149,55.814102,37.500412,208.2,20.585,5450
0.040703,0.079011,9.862018,0.001021,-0.000506,0.001858,34.92,-22.92,-24.72,236.9835,-0.4496,-0.2141,55.814102,37.500412,208.2,20.585,5461
0.040703,0.079011,9.862018,-0.002033,-0.001117,-0.001197,34.92,-22.92,-24.72,236.9835,-0.4496,-0.2141,55.814102,37.500412,208.2,20.585,5471
0.031126,0.0838,9.859624,-0.001422,-0.001728,0.002469,35.1,-21.78,-24.66,236.9835,-0.4496,-0.2141,55.814102,37.500412,208.2,20.585,5481
0.05028,0.081405,9.876384,-0.001422,-0.001728,0.002469,35.04,-21.18,-24.54,236.9835,-0.4496,-0.2141,55.814102,37.500412,208.2,20.585,5491
0.028731,0.081405,9.871595,-0.001422,-0.000506,2.5E-05,35.04,-21.18,-24.54,236.9835,-0.4496,-0.2141,55.814102,37.500412,208.2,20.585,5501
0.028731,0.081405,9.871595,-0.001422,-0.000506,2.5E-05,34.68,-19.56,-23.82,240.5483,-0.4442,-0.2174,55.814102,37.500412,208.2,20.585,5511
0.043097,0.06704,9.869201,-0.002644,0.001938,-0.001197,34.68,-19.56,-23.82,240.5483,-0.4442,-0.2174,55.814102,37.500412,208.2,20.585,5521
0.038308,0.079011,9.864412,0.000411,-0.002338,0.000636,32.88,-18.18,-22.38,240.5483,-0.4442,-0.2174,55.814102,37.500412,208.2,20.585,5530
0.031126,0.088588,9.878778,0.001021,-0.000506,0.001247,32.34,-17.1,-21.66,240.5483,-0.4442,-0.2174,55.814102,37.500412,208.2,20.585,5541
0.038308,0.062251,9.869201,0.001021,0.000105,0.001247,32.34,-17.1,-21.66,240.5483,-0.4442,-0.2174,55.814102,37.500412,208.2,20.585,5550
0.038308,0.062251,9.869201,0.000411,0.002549,0.00369,29.52,-14.34,-19.92,245.2777,-0.4388,-0.2162,55.814102,37.500412,208.2,20.585,5561
0.021548,0.086194,9.876384,0.001021,0.003159,0.001247,29.52,-14.34,-19.92,245.2777,-0.4388,-0.2162,55.814102,37.500412,208.2,20.585,5570
0.031126,0.064645,9.857229,-0.0002,-0.001117,-0.002418,25.62,-11.94,-18.3,245.2777,-0.4388,-0.2162,55.814102,37.500412,208.2,20.585,5581
0.021548,0.069434,9.852441,0.000411,0.000716,0.001247,24.06,-11.76,-17.1,245.2777,-0.4388,-0.2162,55.814102,37.500412,208.2,20.585,5591
0.021548,0.069434,9.852441,0.000411,0.001327,-0.002418,24.06,-11.76,-17.1,245.2777,-0.4388,-0.2162,55.814102,37.500412,208.2,20.585,5600
0.021548,0.069434,9.862018,-0.0002,-0.002949,-0.000586,20.34,-10.68,-15.6,241.5286,-0.4374,-0.2114,55.814102,37.500412,208.2,20.585,5611
0.045491,0.06704,9.883567,-0.000811,0.001327,0.001247,20.34,-10.68,-15.6,241.5286,-0.4374,-0.2114,55.814102,37.500412,208.2,20.585,5621
0.03352,0.079011,9.859624,0.000411,0.002549,-0.001197,16.8,-10.92,-15.12,241.5286,-0.4374,-0.2114,55.814102,37.500412,208.2,20.585,5631
0.035914,0.079011,9.859624,-0.0002,0.000105,-0.003029,15.48,-10.44,-14.64,241.5286,-0.4374,-0.2114,55.814102,37.500412,208.2,20.585,5641
0.045491,0.06704,9.850046,-0.002644,-0.001728,-0.000586,15.48,-10.44,-14.64,241.5286,-0.4374,-0.2114,55.814102,37.500412,208.2,20.585,5651
0.045491,0.06704,9.850046,0.000411,-0.001117,0.001247,13.02,-10.5,-14.34,232.834,-0.4329,-0.2105,55.814102,37.500412,208.2,20.585,5661
0.031126,0.095771,9.871595,0.000411,-0.001117,0.001247,13.02,-10.5,-14.34,232.834,-0.4329,-0.2105,55.814102,37.500412,208.2,20.585,5671
0.035914,0.0838,9.881172,0.004076,0.000716,0.001858,11.28,-11.76,-13.86,232.834,-0.4329,-0.2105,55.814102,37.500412,208.2,20.585,5681
0.007183,0.081405,9.862018,-0.001422,0.001327,-0.002418,10.26,-12.12,-13.86,232.834,-0.4329,-0.2105,55.814102,37.500412,208.2,20.585,5691
0.007183,0.081405,9.862018,-0.0002,0.000716,0.000636,10.26,-12.12,-13.86,232.834,-0.4329,-0.2105,55.814102,37.500412,208.2,20.585,5701
0.035914,0.088588,9.854836,-0.001422,0.001327,-0.000586,9.3,-12.54,-13.38,215.04,-0.4403,-0.2034,55.814102,37.500412,208.2,20.585,5710
0.031126,0.071828,9.854836,0.001632,0.001327,-0.002418,9.3,-12.54,-13.38,215.04,-0.4403,-0.2034,55.814102,37.500412,208.2,20.585,5721
0.047885,0.069434,9.857229,-0.000811,0.001327,0.001247,8.1,-13.02,-13.38,215.04,-0.4403,-0.2034,55.814102,37.500412,208.2,20.585,5731
0.047885,0.069434,9.857229,0.000411,-0.001728,2.5E-05,7.26,-13.68,-13.14,206.8754,-0.4453,-0.1929,55.814102,37.500412,208.2,20.585,5740
0.043097,0.062251,9.857229,0.000411,-0.001728,2.5E-05,7.26,-13.68,-13.14,206.8754,-0.4453,-0.1929,55.814102,37.500412,208.2,20.585,5751
0.03352,0.081405,9.873989,0.000411,0.001327,-0.001808,5.34,-13.98,-12.84,206.8754,-0.4453,-0.1929,55.814102,37.500412,208.2,20.585,5761
0.03352,0.081405,9.873989,-0.001422,0.000716,-0.000586,5.34,-13.98,-12.84,206.8754,-0.4453,-0.1929,55.814102,37.500412,208.2,20.585,5770
0.031126,0.076617,9.833286,-0.002644,-0.001117,-0.001808,4.62,-13.26,-12.3,201.3378,-0.4483,-0.1987,55.814102,37.500412,208.2,20.585,5781
0.038308,0.076617,9.850046,0.000411,0.002549,0.002469,4.2,-13.02,-12.18,201.3378,-0.4483,-0.1987,55.814102,37.500412,208.2,20.585,5791
0.038308,0.076617,9.850046,0.001021,0.001938,0.000636,4.2,-13.02,-12.18,201.3378,-0.4483,-0.1987,55.814102,37.500412,208.2,20.585,5800
0.040703,0.0838,9.862018,-0.001422,0.001938,-0.000586,3.48,-13.26,-11.34,201.3378,-0.4483,-0.1987,55.814102,37.500412,208.2,20.585,5810
0.03352,0.06704,9.840469,0.001632,-0.002338,2.5E-05,3.48,-13.26,-11.34,201.3378,-0.4483,-0.1987,55.814102,37.500412,208.2,20.585,5821
0.045491,0.074223,9.859624,-0.001422,-0.00356,-0.00364,2.64,-13.68,-10.68,192.3186,-0.4501,-0.1996,55.814102,37.500412,208.2,20.585,5831
0.059857,0.107742,9.933846,-0.0002,0.001327,0.001247,2.64,-13.68,-10.68,192.3186,-0.4501,-0.1996,55.814102,37.500412,208.2,20.585,5841
0.059857,0.107742,9.933846,-0.003866,0.01049,0.000636,2.34,-14.22,-10.2,192.3186,-0.4501,-0.1996,55.814102,37.500412,208.2,20.585,5851
0.052674,0.076617,9.871595,0.001021,0.007435,0.001247,2.34,-14.22,-10.2,192.3186,-0.4501,-0.1996,55.814102,37.500412,208.2,20.585,5860
-0.014366,0.03352,9.653716,0.000411,-0.001117,-0.001197,2.16,-14.28,-9.78,188.3189,-0.4492,-0.2039,55.814102,37.500412,208.2,20.585,5871
0.021548,0.081405,9.811738,-0.005087,0.003159,0.003079,2.16,-14.28,-9.78,188.3189,-0.4492,-0.2039,55.814102,37.500412,208.2,20.585,5881
0.021548,0.081405,9.811738,-0.005087,0.003159,0.003079,1.8,-14.7,-9.84,188.3189,-0.4492,-0.2039,55.814102,37.500412,208.2,20.585,5891
0.019154,0.081405,9.871595,-0.008752,0.007435,2.5E-05,1.8,-14.7,-9.84,188.3189,-0.4492,-0.2039,55.814102,37.500412,208.2,20.585,5901
0.021548,0.095771,9.785401,-0.008752,0.007435,2.5E-05,0.78,-14.94,-10.2,183.9657,-0.4436,-0.1975,55.814102,37.500412,208.2,20.585,5911
0.028731,0.086194,9.804555,-0.0002,0.006214,0.001858,0.78,-14.94,-10.2,183.9657,-0.4436,-0.1975,55.814102,37.500412,208.2,20.585,5921
0.028731,0.086194,9.804555,-0.005698,0.003159,0.001247,0.72,-16.08,-10.56,183.9657,-0.4436,-0.1975,55.814102,37.500412,208.2,20.585,5931
0.03352,0.052674,9.881172,-0.002033,0.002549,0.000636,0.72,-16.08,-10.56,183.9657,-0.4436,-0.1975,55.814102,37.500412,208.2,20.585,5941
0.047885,0.06704,9.878778,-0.000811,0.004381,-0.000586,0.9,-17.46,-10.26,183.4817,-0.4449,-0.1695,55.814102,37.500412,208.2,20.585,5950
0.028731,0.052674,9.749487,0.002243,0.001938,2.5E-05,0.48,-17.82,-10.68,183.4817,-0.4449,-0.1695,55.814102,37.500412,208.2,20.585,5960
0.028731,0.052674,9.749487,0.002243,0.001938,2.5E-05,0.48,-17.82,-10.68,183.4817,-0.4449,-0.1695,55.814102,37.500412,208.2,20.585,5971
0.035914,0.055068,9.854836,-0.001422,0.000716,0.001858,-0.6,-18.78,-10.62,183.4817,-0.4449,-0.1695,55.814102,37.500412,208.2,20.585,5981
0.035914,0.088588,9.869201,0.003465,0.00377,2.5E-05,-0.6,-18.78,-10.62,183.4817,-0.4449,-0.1695,55.814102,37.500412,208.2,20.585,5991
0.01676,0.074223,9.838076,-0.00692,0.001938,-0.001808,-0.78,-19.32,-11.88,177.0826,-0.4359,-0.1738,55.814102,37.500412,208.2,20.585,6001
0.01676,0.059857,9.780613,-0.000811,0.00377,-0.001808,-0.78,-19.32,-11.88,177.0826,-0.4359,-0.1738,55.814102,37.500412,208.2,20.585,6011
0.01676,0.059857,9.780613,0.001021,-0.002949,-0.000586,-0.84,-20.64,-13.02,177.0826,-0.4359,-0.1738,55.814102,37.500412,208.2,20.585,6021
0.026337,0.062251,9.866806,-0.001422,0.000105,-0.00364,-0.84,-20.64,-13.02,177.0826,-0.4359,-0.1738,55.814102,37.500412,208.2,20.585,6031
0.040703,0.074223,9.885961,-0.000811,0.002549,-0.002418,-0.54,-22.02,-13.14,177.4872,-0.433,-0.1712,55.814102,37.500412,208.2,20.585,6040
0.040703,0.074223,9.885961,-0.000811,0.002549,-0.002418,-0.54,-22.02,-13.14,177.4872,-0.433,-0.1712,55.814102,37.500412,208.2,20.585,6050
0.03352,0.071828,9.802161,-0.003255,0.000716,0.002469,-0.42,-23.22,-13.32,177.4872,-0.433,-0.1712,55.814102,37.500412,208.2,20.585,6061
0.028731,0.06704,9.814133,0.000411,0.000105,-0.001197,-0.42,-23.22,-13.32,177.4872,-0.433,-0.1712,55.814102,37.500412,208.2,20.585,6071
0.047885,0.059857,9.866806,-0.000811,0.000716,-0.00364,-1.32,-24.24,-14.22,177.7061,-0.426,-0.1751,55.814102,37.500412,208.2,20.585,6080
0.05028,0.074223,9.852441,-0.0002,-0.000506,0.001247,-1.32,-24.24,-14.22,177.7061,-0.426,-0.1751,55.814102,37.500412,208.2,20.585,6090
0.05028,0.074223,9.852441,0.003465,0.000716,0.000636,-1.92,-24.6,-16.08,177.7061,-0.426,-0.1751,55.814102,37.500412,208.2,20.585,6100
0.026337,0.090982,9.787795,-0.002644,0.002549,0.001858,-1.92,-24.6,-16.08,177.7061,-0.426,-0.1751,55.814102,37.500412,208.2,20.585,6111
0.028731,0.071828,9.835681,0.001021,-0.000506,2.5E-05,-2.7,-25.38,-16.26,173.239,-0.4222,-0.1799,55.814102,37.500412,208.2,20.585,6120
0.028731,0.071828,9.835681,0.002854,-0.00356,-0.001197,-2.7,-25.38,-16.26,173.239,-0.4222,-0.1799,55.814102,37.500412,208.2,20.585,6131
0.03352,0.071828,9.897932,0.002854,-0.00356,-0.001197,-3.84,-25.92,-16.74,173.239,-0.4222,-0.1799,55.814102,37.500412,208.2,20.585,6141
0.002394,0.06704,9.859624,-0.0002,0.004381,-0.001197,-3.84,-25.92,-16.74,173.239,-0.4222,-0.1799,55.814102,37.500412,208.2,20.585,6150
0.002394,0.06704,9.859624,-0.002033,0.000716,0.003079,-4.38,-26.1,-17.88,171.3361,-0.4237,-0.1865,55.814102,37.500412,208.2,20.585,6161
0.035914,0.059857,9.830893,0.002854,0.000105,-0.001808,-4.38,-26.1,-17.88,171.3361,-0.4237,-0.1865,55.814102,37.500412,208.2,20.585,6170
0.019154,0.064645,9.871595,0.001632,-0.000506,2.5E-05,-4.74,-26.34,-19.8,171.3361,-0.4237,-0.1865,55.814102,37.500412,208.2,20.585,6181
0.035914,0.086194,9.871595,-0.000811,-0.001117,0.000636,-4.74,-26.34,-19.8,171.3361,-0.4237,-0.1865,55.814102,37.500412,208.2,20.585,6190
0.011971,0.064645,9.845258,-0.002644,0.000716,2.5E-05,-6.12,-27,-23.58,167.5463,-0.4183,-0.1813,55.814102,37.500412,208.2,20.585,6200
0.011971,0.064645,9.845258,-0.002644,0.000105,0.001247,-6.12,-27,-23.58,167.5463,-0.4183,-0.1813,55.814102,37.500412,208.2,20.585,6211
0.031126,0.074223,9.835681,-0.0002,-0.004171,-0.002418,-7.38,-27.66,-26.28,167.5463,-0.4183,-0.1813,55.814102,37.500412,208.2,20.585,6221
0.028731,0.069434,9.854836,0.001021,-0.000506,0.001858,-7.38,-27.66,-26.28,167.5463,-0.4183,-0.1813,55.814102,37.500412,208.2,20.585,6231
0.026337,0.079011,9.845258,0.002243,0.000716,0.001858,-8.52,-28.26,-28.74,162.2261,-0.4143,-0.1812,55.814102,37.500412,208.2,20.585,6241
0.026337,0.079011,9.845258,0.002243,0.000716,0.001858,-8.52,-28.26,-28.74,162.2261,-0.4143,-0.1812,55.814102,37.500412,208.2,20.585,6250
0.03352,0.071828,9.818921,-0.000811,-0.000506,2.5E-05,-9.96,-27.96,-32.7,162.2261,-0.4143,-0.1812,55.814102,37.500412,208.2,20.585,6261
0.038308,0.079011,9.869201,0.004076,-0.002338,0.001858,-9.96,-27.96,-32.7,162.2261,-0.4143,-0.1812,55.814102,37.500412,208.2,20.585,6273
0.038308,0.079011,9.869201,0.002854,-0.00356,0.001858,-11.46,-26.16,-37.44,157.0753,-0.4138,-0.1817,55.814102,37.500412,208.2,20.585,6280
0.043097,0.086194,9.866806,0.003465,-0.000506,0.00369,-11.46,-26.16,-37.44,157.0753,-0.4138,-0.1817,55.814102,37.500412,208.2,20.585,6291
0.03352,0.081405,9.842864,0.000411,-0.000506,2.5E-05,-12.48,-24.3,-40.98,157.0753,-0.4138,-0.1817,55.814102,37.500412,208.2,20.585,6301
0.038308,0.074223,9.842864,0.000411,0.000716,0.002469,-12.48,-24.3,-40.98,157.0753,-0.4138,-0.1817,55.814102,37.500412,208.2,20.585,6311
0.038308,0.093377,9.890749,-0.000811,-0.000506,0.000636,-16.8,-14.88,-25.86,131.1981,-0.4195,-0.1823,55.814102,37.500412,208.2,20.585,6320
0.038308,0.093377,9.890749,-0.002033,0.004992,0.001247,-16.8,-14.88,-25.86,131.1981,-0.4195,-0.1823,55.814102,37.500412,208.2,20.585,6331
0.009577,0.071828,9.830893,0.000411,0.00377,-0.000586,-17.52,-11.58,-28.68,131.1981,-0.4195,-0.1823,55.814102,37.500412,208.2,20.585,6341
0.01676,0.059857,9.799767,0.000411,0.00377,-0.000586,-17.52,-11.58,-28.68,131.1981,-0.4195,-0.1823,55.814102,37.500412,208.2,20.585,6351
0.03352,0.06704,9.847652,0.000411,-0.002949,0.002469,-17.94,-8.22,-30.12,113.4784,-0.4265,-0.1867,55.814102,37.500412,208.2,20.585,6361
0.03352,0.06704,9.847652,0.004076,-0.002949,0.001247,-17.94,-8.22,-30.12,113.4784,-0.4265,-0.1867,55.814102,37.500412,208.2,20.585,6371
0.03352,0.071828,9.890749,-0.003866,0.000716,-0.002418,-18.54,-5.22,-29.34,113.4784,-0.4265,-0.1867,55.814102,37.500412,208.2,20.585,6380
0.055068,0.057463,9.828498,0.001632,-0.001117,-0.002418,-18.54,-5.22,-29.34,113.4784,-0.4265,-0.1867,55.814102,37.500412,208.2,20.585,6391
0.026337,0.069434,9.862018,-0.000811,0.001327,0.000636,-18.9,-1.68,-27.9,95.4112,-0.4264,-0.1869,55.814102,37.500412,208.2,20.585,6401
0.026337,0.069434,9.862018,0.003465,-0.001728,-0.001808,-18.9,0.06,-27.3,95.4112,-0.4264,-0.1869,55.814102,37.500412,208.2,20.585,6411
0.035914,0.069434,9.878778,-0.000811,0.000105,0.001858,-18.9,0.06,-27.3,95.4112,-0.4264,-0.1869,55.814102,37.500412,208.2,20.585,6420
0.026337,0.095771,9.869201,-0.000811,0.000105,0.001858,-18.54,3,-24.72,95.4112,-0.4264,-0.1869,55.814102,37.500412,208.2,20.585,6430
-0.004789,0.074223,9.957788,-0.002644,0.002549,-0.000586,-18.54,3,-24.72,95.4112,-0.4264,-0.1869,55.814102,37.500412,208.2,20.585,6441
-0.004789,0.052674,9.862018,0.004076,0.005603,-0.001197,-18.06,3.42,-21.66,80.0005,-0.4184,-0.1874,55.814102,37.500412,208.2,20.585,6451
-0.004789,0.052674,9.862018,-0.001422,0.003159,0.000636,-17.7,3.96,-20.64,80.0005,-0.4184,-0.1874,55.814102,37.500412,208.2,20.585,6461
0.021548,0.064645,9.845258,0.005297,-0.000506,0.002469,-17.7,3.96,-20.64,80.0005,-0.4184,-0.1874,55.814102,37.500412,208.2,20.585,6471
0.028731,0.076617,9.905115,-0.001422,-0.002949,0.000636,-18.3,4.56,-17.34,80.0005,-0.4184,-0.1874,55.814102,37.500412,208.2,20.585,6481
0.062251,0.088588,9.878778,0.000411,0.002549,0.003079,-18.3,4.56,-17.34,80.0005,-0.4184,-0.1874,55.814102,37.500412,208.2,20.585,6490
0.043097,0.047885,9.850046,-0.006309,-0.001728,-0.00364,-18.54,5.04,-14.28,74.9427,-0.4119,-0.1598,55.814102,37.500412,208.2,20.585,6501
0.043097,0.047885,9.850046,0.000411,-0.001117,-0.000586,-18.54,5.04,-14.28,74.9427,-0.4119,-0.1598,55.814102,37.500412,208.2,20.585,6510
0.045491,0.06704,9.876384,-0.0002,0.000716,0.001858,-17.46,6.78,-6.42,74.9427,-0.4119,-0.1598,55.814102,37.500412,208.2,20.585,6521
0.035914,0.071828,9.883567,0.001021,0.002549,0.000636,-17.46,6.78,-6.42,74.9427,-0.4119,-0.1598,55.814102,37.500412,208.2,20.585,6531
0.035914,0.055068,9.854836,-0.002644,0.001327,-0.001197,-17.4,6.24,-3.24,70.486,-0.4099,-0.1633,55.814102,37.500412,208.2,20.585,6541
0.035914,0.055068,9.854836,-0.0002,0.002549,2.5E-05,-17.4,6.24,-3.24,70.486,-0.4099,-0.1633,55.814102,37.500412,208.2,20.585,6550
0.026337,0.081405,9.876384,-0.002033,0.000105,-0.003029,-17.82,5.4,-1.02,70.486,-0.4099,-0.1633,55.814102,37.500412,208.2,20.585,6561
0.021548,0.062251,9.852441,-0.002033,0.000716,0.00369,-17.82,5.4,-1.02,70.486,-0.4099,-0.1633,55.814102,37.500412,208.2,20.585,6571
0.021548,0.062251,9.852441,0.001632,0.000105,-0.002418,-18.48,5.1,0.36,74.4751,-0.4101,-0.1681,55.814102,37.500412,208.2,20.585,6580
0.035914,0.0838,9.914692,-0.002644,0.000105,0.000636,-18.48,5.1,0.36,74.4751,-0.4101,-0.1681,55.814102,37.500412,208.2,20.585,6591
0.023943,0.043097,9.895537,-0.002644,0.000105,0.000636,-18.78,5.1,1.68,74.4751,-0.4101,-0.1681,55.814102,37.500412,208.2,20.585,6601
0.031126,0.055068,9.77343,0.002854,-0.002949,0.001247,-19.14,4.74,2.52,74.4751,-0.4101,-0.1681,55.814102,37.500412,208.2,20.585,6614
0.031126,0.055068,9.77343,0.002854,-0.002949,0.001247,-19.14,4.74,2.52,74.4751,-0.4101,-0.1681,55.814102,37.500412,208.2,20.585,6620
0.01676,0.069434,9.862018,-0.000811,0.000105,-0.004251,-19.62,4.26,4.26,78.7755,-0.4149,-0.1714,55.814102,37.500412,208.2,20.585,6631
0.045491,0.069434,9.881172,0.001632,-0.002949,-0.000586,-19.62,4.26,4.26,78.7755,-0.4149,-0.1714,55.814102,37.500412,208.2,20.585,6641
0.040703,0.06704,9.90272,-0.001422,0.001327,0.001247,-19.56,3.3,4.5,78.7755,-0.4149,-0.1714,55.814102,37.500412,208.2,20.585,6650
0.043097,0.081405,9.842864,0.002243,0.000716,0.002469,-19.56,3.3,4.5,78.7755,-0.4149,-0.1714,55.814102,37.500412,208.2,20.585,6661
0.043097,0.081405,9.842864,-0.0002,0.001327,2.5E-05,-19.26,2.58,4.74,81.1398,-0.4147,-0.1728,55.814102,37.500412,208.2,20.585,6670
0.035914,0.074223,9.859624,-0.001422,0.000716,0.001858,-19.26,2.58,4.74,81.1398,-0.4147,-0.1728,55.814102,37.500412,208.2,20.585,6681
0.035914,0.074223,9.859624,0.002854,0.001327,0.003079,-19.68,1.74,5.28,81.1398,-0.4147,-0.1728,55.814102,37.500412,208.2,20.585,6691
0.023943,0.062251,9.862018,0.002854,-0.002949,-0.001808,-19.68,1.74,5.28,81.1398,-0.4147,-0.1728,55.814102,37.500412,208.2,20.585,6701
0.023943,0.062251,9.862018,0.002854,-0.002949,-0.001808,-19.68,1.74,5.28,81.1398,-0.4147,-0.1728,55.814102,37.500412,208.2,20.585,6711
0.019154,0.079011,9.830893,-0.0002,0.001327,0.001858,-19.74,2.4,5.4,84.3954,-0.4156,-0.1725,55.814102,37.500412,208.2,20.585,6720
0.040703,0.086194,9.862018,-0.0002,-0.00356,0.001858,-20.22,2.76,4.8,84.3954,-0.4156,-0.1725,55.814102,37.500412,208.2,20.585,6730
0.040703,0.086194,9.862018,-0.000811,0.000105,-0.001197,-20.22,2.76,4.8,84.3954,-0.4156,-0.1725,55.814102,37.500412,208.2,20.585,6741
0.052674,0.0838,9.864412,-0.001422,0.001327,-0.000586,-20.4,2.52,4.92,81.5757,-0.4136,-0.1749,55.814102,37.500412,208.2,20.585,6751
0.045491,0.081405,9.866806,0.001632,0.004992,2.5E-05,-20.04,2.46,5.22,81.5757,-0.4136,-0.1749,55.814102,37.500412,208.2,20.585,6760
0.052674,0.074223,9.835681,-0.0002,0.00377,0.000636,-20.04,2.46,5.22,81.5757,-0.4136,-0.1749,55.814102,37.500412,208.2,20.585,6771
0.002394,0.06704,9.730332,0.003465,-0.001728,0.001858,-19.62,2.4,5.28,81.5757,-0.4136,-0.1749,55.814102,37.500412,208.2,20.585,6781
0.002394,0.06704,9.730332,-0.003255,0.001938,-0.001808,-19.62,2.4,5.28,81.5757,-0.4136,-0.1749,55.814102,37.500412,208.2,20.585,6792
0,0.088588,9.895537,0.005297,0.000716,0.001247,-19.26,1.74,5.22,84.1045,-0.4212,-0.1908,55.814102,37.500412,208.2,20.585,6800
0,0.088588,9.895537,0.005297,0.000716,0.001247,-19.26,1.74,5.22,84.1045,-0.4212,-0.1908,55.814102,37.500412,208.2,20.585,6811
0.019154,0.05028,9.864412,0.004076,-0.001728,-0.000586,-19.14,1.44,5.58,84.1045,-0.4212,-0.1908,55.814102,37.500412,208.2,20.585,6820
0.045491,0.076617,9.847652,0.000411,-0.001728,0.000636,-18.3,1.02,5.94,84.1045,-0.4212,-0.1908,55.814102,37.500412,208.2,20.585,6831
0.059857,0.076617,9.866806,0.001632,-0.001117,2.5E-05,-18.3,1.02,5.94,84.1045,-0.4212,-0.1908,55.814102,37.500412,208.2,20.585,6840
0.059857,0.079011,9.845258,-0.001422,-0.001117,-0.002418,-18.42,0.84,5.34,86.9384,-0.4215,-0.1939,55.814102,37.500412,208.2,20.585,6851
0.059857,0.079011,9.845258,0.003465,0.000716,2.5E-05,-18.06,1.32,5.34,86.9384,-0.4215,-0.1939,55.814102,37.500412,208.2,20.585,6861
0.052674,0.079011,9.859624,-0.0002,-0.000506,0.000636,-18.06,1.32,5.34,86.9384,-0.4215,-0.1939,55.814102,37.500412,208.2,20.585,6871
0.062251,0.079011,9.921875,0.000411,0.003159,2.5E-05,-16.32,1.74,4.86,86.9384,-0.4215,-0.1939,55.814102,37.500412,208.2,20.585,6881
0.023943,0.059857,9.881172,0.000411,0.003159,2.5E-05,-16.32,1.74,4.86,86.9384,-0.4215,-0.1939,55.814102,37.500412,208.2,20.585,6891
0.023943,0.059857,9.881172,0.002243,0.001327,-0.000586,-14.82,1.14,4.2,86.3008,-0.4247,-0.2076,55.814102,37.500412,208.2,20.585,6901
0.019154,0.069434,9.80695,-0.002033,-0.002949,2.5E-05,-14.28,0.48,3.9,86.3008,-0.4247,-0.2076,55.814102,37.500412,208.2,20.585,6910
0.023943,0.076617,9.854836,0.002854,-0.001728,2.5E-05,-14.28,0.48,3.9,86.3008,-0.4247,-0.2076,55.814102,37.500412,208.2,20.585,6921
0.03352,0.093377,9.814133,-0.004476,-0.000506,-0.000586,-12.3,-0.78,4.44,86.3008,-0.4247,-0.2076,55.814102,37.500412,208.2,20.585,6931
0.03352,0.093377,9.814133,0.002854,-0.002338,-0.001197,-12.3,-0.78,4.44,86.3008,-0.4247,-0.2076,55.814102,37.500412,208.2,20.585,6941
0.052674,0.0838,9.914692,-0.00692,-0.001117,-0.000586,-9,-1.44,4.68,96.557,-0.4223,-0.2089,55.814102,37.500412,208.2,20.585,6950
0.045491,0.071828,9.917087,0.005297,0.00377,-0.001808,-7.32,-1.2,4.08,96.557,-0.4223,-0.2089,55.814102,37.500412,208.2,20.585,6961
0.045491,0.071828,9.917087,-0.001422,0.001327,0.000636,-7.32,-1.2,4.08,96.557,-0.4223,-0.2089,55.814102,37.500412,208.2,20.585,6970
0.021548,0.052674,9.818921,-0.001422,0.001327,0.000636,-2.7,-1.38,3.84,96.557,-0.4223,-0.2089,55.814102,37.500412,208.2,20.585,6981
0.021548,0.057463,9.783007,0.002854,-0.004171,2.5E-05,-2.7,-1.38,3.84,96.557,-0.4223,-0.2089,55.814102,37.500412,208.2,20.585,6991
0.038308,0.0838,9.859624,-0.001422,0.000716,0.000636,3.54,-2.34,4.08,243.0198,-0.4141,-0.2077,55.814102,37.500412,208.2,20.585,7001
0.038308,0.0838,9.859624,-0.006309,0.001327,0.001247,8.28,-3.36,4.02,243.0198,-0.4141,-0.2077,55.814102,37.500412,208.2,20.585,7011
0.035914,0.0838,9.888355,-0.006309,0.001327,0.001247,8.28,-3.36,4.02,243.0198,-0.4141,-0.2077,55.814102,37.500412,208.2,20.585,7021
0.035914,0.062251,9.80695,-0.002033,0.000105,-0.000586,19.74,-5.88,4.68,243.0198,-0.4141,-0.2077,55.814102,37.500412,208.2,20.585,7030
0.035914,0.062251,9.80695,-0.0002,0.001938,-0.001197,19.74,-5.88,4.68,243.0198,-0.4141,-0.2077,55.814102,37.500412,208.2,20.585,7040
0.045491,0.069434,9.847652,0.000411,-0.002338,2.5E-05,34.74,-9.6,7.74,253.9557,-0.4066,-0.1985,55.814102,37.500412,208.2,20.585,7051
0.023943,0.071828,9.823709,0.001021,0.001938,0.001858,44.64,-11.94,11.04,253.9557,-0.4066,-0.1985,55.814102,37.500412,208.2,20.585,7061
0.023943,0.071828,9.823709,0.001632,0.003159,0.000636,44.64,-11.94,11.04,253.9557,-0.4066,-0.1985,55.814102,37.500412,208.2,20.585,7070
0.023943,0.079011,9.924269,0.001021,-0.00356,-0.001197,70.32,-17.1,21.72,253.9557,-0.4066,-0.1985,55.814102,37.500412,208.2,20.585,7080
0.01676,0.062251,9.90272,0.002854,0.000105,-0.002418,70.32,-17.1,21.72,253.9557,-0.4066,-0.1985,55.814102,37.500412,208.2,20.585,7092
0.043097,0.074223,9.818921,-0.002644,-0.000506,-0.000586,100.38,-21.12,37.56,257.9752,-0.4087,-0.1974,55.814102,37.500412,208.2,20.585,7100
0.038308,0.071828,9.909904,0.001021,-0.001728,-0.001808,115.68,-21.6,47.28,257.9752,-0.4087,-0.1974,55.814102,37.500412,208.2,20.585,7111
0.038308,0.071828,9.909904,0.001021,-0.001728,-0.001808,115.68,-21.6,47.28,257.9752,-0.4087,-0.1974,55.814102,37.500412,208.2,20.585,7120
0.031126,0.069434,9.859624,-0.001422,0.001938,0.000636,141.72,-16.14,65.7,257.9752,-0.4087,-0.1974,55.814102,37.500412,208.2,20.585,7131
0.026337,0.064645,9.869201,0.005297,-0.001117,0.001858,141.72,-16.14,65.7,257.9752,-0.4087,-0.1974,55.814102,37.500412,208.2,20.585,7141
0.03352,0.076617,9.869201,-0.0002,0.001938,0.001247,157.92,-3.54,76.02,268.3471,-0.4134,-0.1911,55.814102,37.500412,208.2,20.585,7151
0.05028,0.081405,9.854836,-0.002033,0.003159,2.5E-05,161.22,3.6,76.92,268.3471,-0.4134,-0.1911,55.814102,37.500412,208.2,20.585,7162
0.05028,0.081405,9.854836,0.002243,0.000716,-0.001808,161.22,3.6,76.92,268.3471,-0.4134,-0.1911,55.814102,37.500412,208.2,20.585,7171
0.031126,0.081405,9.876384,0.002243,0.000716,-0.001808,157.2,16.86,69.48,268.3471,-0.4134,-0.1911,55.814102,37.500412,208.2,20.585,7180
0.035914,0.06704,9.897932,-0.003255,-0.002338,0.001858,157.2,16.86,69.48,268.3471,-0.4134,-0.1911,55.814102,37.500412,208.2,20.585,7191
0.035914,0.06704,9.897932,0.002243,-0.000506,2.5E-05,143.46,24.06,55.5,279.3797,-0.4142,-0.1866,55.814102,37.500412,208.2,20.585,7200
0.035914,0.076617,9.838076,-0.003866,0.001938,-0.000586,143.46,24.06,55.5,279.3797,-0.4142,-0.1866,55.814102,37.500412,208.2,20.585,7210
0.040703,0.071828,9.816526,-0.0002,0.002549,2.5E-05,125.64,25.14,40.86,279.3797,-0.4142,-0.1866,55.814102,37.500412,208.2,20.585,7221
0.03352,0.064645,9.809344,-0.000811,0.000105,-0.000586,125.64,25.14,40.86,279.3797,-0.4142,-0.1866,55.814102,37.500412,208.2,20.585,7230
0.028731,0.064645,9.876384,0.001632,0.001327,-0.000586,108.72,22.98,27.18,281.8254,-0.4117,-0.1894,55.814102,37.500412,208.2,20.585,7241
0.028731,0.064645,9.876384,-0.0002,0.001938,0.002469,108.72,22.98,27.18,281.8254,-0.4117,-0.1894,55.814102,37.500412,208.2,20.585,7250
0.014366,0.06704,9.818921,-0.0002,0.001938,0.002469,94.62,19.14,17.58,281.8254,-0.4117,-0.1894,55.814102,37.500412,208.2,20.585,7261
0.014366,0.05028,9.847652,-0.000811,0.001327,2.5E-05,94.62,19.14,17.58,281.8254,-0.4117,-0.1894,55.814102,37.500412,208.2,20.585,7271
0.01676,0.074223,9.845258,0.000411,-0.000506,-0.001197,82.92,14.52,12.06,280.1904,-0.4065,-0.1871,55.814102,37.500412,208.2,20.585,7281
0.01676,0.074223,9.845258,-0.0002,-0.001728,-0.000586,82.92,14.52,12.06,280.1904,-0.4065,-0.1871,55.814102,37.500412,208.2,20.585,7291
0.028731,0.090982,9.854836,0.001021,-0.000506,-0.001808,74.22,9.6,8.1,280.1904,-0.4065,-0.1871,55.814102,37.500412,208.2,20.585,7300
0.03352,0.0838,9.876384,-0.001422,0.000105,2.5E-05,74.22,9.6,8.1,280.1904,-0.4065,-0.1871,55.814102,37.500412,208.2,20.585,7311
0.028731,0.06704,9.847652,0.000411,0.004381,0.002469,69.12,6.42,5.34,274.9404,-0.405,-0.1811,55.814102,37.500412,208.2,20.585,7321
0.03352,0.059857,9.845258,0.001021,0.000716,-0.000586,69.12,6.42,5.34,274.9404,-0.405,-0.1811,55.814102,37.500412,208.2,20.585,7331
0.03352,0.059857,9.845258,0.000411,-0.002949,2.5E-05,65.22,3.84,3.78,274.9404,-0.405,-0.1811,55.814102,37.500412,208.2,20.585,7341
0.01676,0.062251,9.842864,0.001021,0.001327,0.001247,65.22,3.84,3.78,274.9404,-0.405,-0.1811,55.814102,37.500412,208.2,20.585,7351
0.021548,0.071828,9.847652,0.001021,0.000716,0.00369,62.1,0.96,1.92,270.9097,-0.4077,-0.1802,55.814102,37.500412,208.2,20.585,7361
0.05028,0.071828,9.850046,0.001632,0.000716,0.001247,62.1,0.96,1.92,270.9097,-0.4077,-0.1802,55.814102,37.500412,208.2,20.585,7370
0.05028,0.071828,9.850046,0.001021,-0.002949,-0.000586,60.54,-2.04,0.54,270.9097,-0.4077,-0.1802,55.814102,37.500412,208.2,20.585,7381
0.031126,0.079011,9.847652,-0.0002,-0.002338,0.001858,60.54,-2.04,0.54,270.9097,-0.4077,-0.1802,55.814102,37.500412,208.2,20.585,7391
0.047885,0.064645,9.847652,0.003465,-0.001728,-0.000586,59.22,-5.46,0.6,265.1477,-0.4083,-0.1779,55.814102,37.500412,208.2,20.585,7400
0.038308,0.071828,9.885961,0.001021,0.001938,-0.001808,59.22,-5.46,0.6,265.1477,-0.4083,-0.1779,55.814102,37.500412,208.2,20.585,7411
0.038308,0.071828,9.885961,-0.0002,-0.000506,0.001247,59.64,-8.34,-0.12,265.1477,-0.4083,-0.1779,55.814102,37.500412,208.2,20.585,7421
0.014366,0.064645,9.862018,-0.0002,-0.000506,-0.001808,59.64,-8.34,-0.12,265.1477,-0.4083,-0.1779,55.814102,37.500412,208.2,20.585,7431
0.031126,0.064645,9.869201,-0.0002,-0.000506,-0.001808,60.9,-12.24,-1.68,258.8838,-0.4065,-0.1769,55.814102,37.500412,208.2,20.585,7441
0.035914,0.076617,9.885961,-0.0002,0.000105,0.001247,60.9,-12.24,-1.68,258.8838,-0.4065,-0.1769,55.814102,37.500412,208.2,20.585,7451
0.035914,0.076617,9.885961,-0.002033,-0.000506,-0.001197,62.4,-16.62,-2.64,258.8838,-0.4065,-0.1769,55.814102,37.500412,208.2,20.585,7460
0.047885,0.088588,9.883567,-0.0002,-0.001728,-0.000586,62.4,-16.62,-2.64,258.8838,-0.4065,-0.1769,55.814102,37.500412,208.2,20.585,7470
0.040703,0.069434,9.864412,-0.000811,0.002549,2.5E-05,64.08,-19.62,-2.28,252.6582,-0.4004,-0.1721,55.814102,37.500412,208.2,20.585,7481
0.035914,0.06704,9.866806,0.000411,0.001327,0.000636,64.08,-19.62,-2.28,252.6582,-0.4004,-0.1721,55.814102,37.500412,208.2,20.585,7491
0.035914,0.06704,9.866806,-0.002033,0.000716,-0.001197,66.24,-21.72,-1.5,252.6582,-0.4004,-0.1721,55.814102,37.500412,208.2,20.585,7500
0.009577,0.071828,9.866806,-0.002033,0.000716,-0.001197,66.24,-21.72,-1.5,252.6582,-0.4004,-0.1721,55.814102,37.500412,208.2,20.585,7511
0.01676,0.06704,9.840469,0.002243,0.003159,0.002469,69.3,-24.3,-1.02,250.8263,-0.4014,-0.1701,55.814102,37.500412,208.2,20.585,7520
0.007183,0.081405,9.866806,0.000411,0.000105,-0.000586,70.8,-25.32,-0.66,250.8263,-0.4014,-0.1701,55.814102,37.500412,208.2,20.585,7531
0.007183,0.081405,9.866806,0.001632,-0.002338,2.5E-05,70.8,-25.32,-0.66,250.8263,-0.4014,-0.1701,55.814102,37.500412,208.2,20.585,7541
0.007183,0.069434,9.847652,-0.0002,-0.002338,-0.001808,75.54,-25.44,0.48,250.8263,-0.4014,-0.1701,55.814102,37.500412,208.2,20.585,7551
0.031126,0.071828,9.864412,0.001021,0.000716,0.00369,75.54,-25.44,0.48,250.8263,-0.4014,-0.1701,55.814102,37.500412,208.2,20.585,7561
0.045491,0.069434,9.835681,0.002854,-0.001117,0.001247,79.56,-24.3,1.98,253.2897,-0.3988,-0.1675,55.814102,37.500412,208.2,20.585,7571
0.045491,0.076617,9.847652,-0.0002,0.000716,-0.001197,81.6,-24.36,2.04,253.2897,-0.3988,-0.1675,55.814102,37.500412,208.2,20.585,7581
0.05028,0.076617,9.847652,-0.000811,-0.001728,-0.003029,81.6,-24.36,2.04,253.2897,-0.3988,-0.1675,55.814102,37.500412,208.2,20.585,7591
0.03352,0.069434,9.850046,-0.000811,0.003159,0.001858,86.04,-23.82,2.88,253.2897,-0.3988,-0.1675,55.814102,37.500412,208.2,20.585,7601
0.035914,0.071828,9.866806,-0.002033,-0.001117,0.000636,86.04,-23.82,2.88,253.2897,-0.3988,-0.1675,55.814102,37.500412,208.2,20.585,7612
0.035914,0.071828,9.866806,-0.002033,-0.001117,0.000636,91.02,-20.94,3,256.9908,-0.4,-0.1669,55.814102,37.500412,208.2,20.585,7620
0.019154,0.06704,9.878778,-0.000811,-0.000506,-0.002418,93.54,-19.5,3.18,256.9908,-0.4,-0.1669,55.814102,37.500412,208.2,20.585,7631
0.021548,0.057463,9.871595,-0.000811,0.000105,2.5E-05,93.54,-19.5,3.18,256.9908,-0.4,-0.1669,55.814102,37.500412,208.2,20.585,7641
0.028731,0.069434,9.842864,-0.001422,-0.000506,0.001247,98.28,-17.16,3.48,256.9908,-0.4,-0.1669,55.814102,37.500412,208.2,20.585,7651
0.028731,0.069434,9.842864,0.001632,0.003159,0.001858,98.28,-17.16,3.48,256.9908,-0.4,-0.1669,55.814102,37.500412,208.2,20.585,7661
0.03352,0.055068,9.862018,-0.0002,-0.001117,0.001247,102.54,-13.5,4.14,262.7893,-0.4036,-0.1684,55.814102,37.500412,208.2,20.585,7670
0.045491,0.071828,9.883567,0.001632,0.000716,2.5E-05,104.28,-11.52,4.5,262.7893,-0.4036,-0.1684,55.814102,37.500412,208.2,20.585,7681
0.045491,0.071828,9.883567,-0.000811,0.002549,-0.000586,104.28,-11.52,4.5,262.7893,-0.4036,-0.1684,55.814102,37.500412,208.2,20.585,7691
0.038308,0.071828,9.859624,-0.001422,-0.002338,-0.001197,106.68,-4.92,4.92,262.7893,-0.4036,-0.1684,55.814102,37.500412,208.2,20.585,7701
0.040703,0.064645,9.838076,-0.001422,-0.002338,-0.001197,106.68,-4.92,4.92,262.7893,-0.4036,-0.1684,55.814102,37.500412,208.2,20.585,7711
0.011971,0.05028,9.821315,-0.002033,-0.001117,-0.001197,108.06,3.9,6.36,272.0977,-0.4059,-0.1643,55.814102,37.500412,208.2,20.585,7721
0.028731,0.064645,9.881172,-0.000811,-0.001117,0.001247,108.06,3.9,6.36,272.0977,-0.4059,-0.1643,55.814102,37.500412,208.2,20.585,7731
0.028731,0.064645,9.881172,-0.000811,0.000716,-0.001197,107.04,11.76,8.88,272.0977,-0.4059,-0.1643,55.814102,37.500412,208.2,20.585,7741
0.03352,0.076617,9.854836,0.001632,-0.001117,-0.003029,107.04,11.76,8.88,272.0977,-0.4059,-0.1643,55.814102,37.500412,208.2,20.585,7751
0.03352,0.076617,9.854836,-0.002033,0.000716,0.001247,103.62,18.12,12.36,279.7755,-0.4079,-0.1686,55.814102,37.500412,208.2,20.585,7761
0.026337,0.074223,9.823709,0.001021,0.000716,-0.001808,103.62,18.12,12.36,279.7755,-0.4079,-0.1686,55.814102,37.500412,208.2,20.585,7771
0.040703,0.071828,9.850046,0.000411,0.001327,-0.001197,97.92,23.16,17.7,279.7755,-0.4079,-0.1686,55.814102,37.500412,208.2,20.585,7781
0.043097,0.081405,9.876384,0.002243,0.000716,0.000636,97.92,23.16,17.7,279.7755,-0.4079,-0.1686,55.814102,37.500412,208.2,20.585,7791
0.031126,0.088588,9.838076,-0.002033,-0.001117,-0.000586,90.54,25.74,22.74,285.8602,-0.406,-0.1677,55.814102,37.500412,208.2,20.585,7800
0.031126,0.088588,9.838076,-0.002033,-0.001117,-0.000586,90.54,25.74,22.74,285.8602,-0.406,-0.1677,55.814102,37.500412,208.2,20.585,7810
0.011971,0.079011,9.847652,0.001632,0.003159,-0.001197,81.9,25.68,26.82,285.8602,-0.406,-0.1677,55.814102,37.500412,208.2,20.585,7821
0.040703,0.081405,9.850046,-0.0002,-0.001117,-0.001197,81.9,25.68,26.82,285.8602,-0.406,-0.1677,55.814102,37.500412,208.2,20.585,7831
0.040703,0.081405,9.850046,0.001021,0.000105,-0.001197,73.2,24.84,31.08,288.7674,-0.4146,-0.1706,55.814102,37.500412,208.2,20.585,7840
0.028731,0.071828,9.885961,-0.0002,-0.000506,-0.001197,73.2,24.84,31.08,288.7674,-0.4146,-0.1706,55.814102,37.500412,208.2,20.585,7850
0.03352,0.069434,9.850046,-0.0002,-0.001728,0.001247,65.76,23.58,34.26,288.7674,-0.4146,-0.1706,55.814102,37.500412,208.2,20.585,7861
0.026337,0.057463,9.897932,0.000411,0.00377,-0.001808,65.76,23.58,34.26,288.7674,-0.4146,-0.1706,55.814102,37.500412,208.2,20.585,7870
0.026337,0.057463,9.897932,0.004076,-0.000506,-0.001808,59.34,21.24,35.76,289.3987,-0.4151,-0.1729,55.814102,37.500412,208.2,20.585,7881
0.043097,0.081405,9.953,-0.002033,0.000105,2.5E-05,59.34,21.24,35.76,289.3987,-0.4151,-0.1729,55.814102,37.500412,208.2,20.585,7891
0.031126,0.06704,9.921875,0.001021,0.003159,0.001247,54.36,18.42,38.04,289.3987,-0.4151,-0.1729,55.814102,37.500412,208.2,20.585,7901
0.031126,0.06704,9.921875,-0.002644,0.001938,-0.001808,54.36,18.42,38.04,289.3987,-0.4151,-0.1729,55.814102,37.500412,208.2,20.585,7911
0.035914,0.064645,9.783007,0.003465,-0.000506,0.001247,51.12,15.36,40.26,286.1218,-0.4213,-0.1838,55.814102,37.500412,208.2,20.585,7920
0.031126,0.069434,9.821315,-0.003866,-0.000506,2.5E-05,49.38,13.86,41.58,286.1218,-0.4213,-0.1838,55.814102,37.500412,208.2,20.585,7931
0.026337,0.052674,9.876384,0.003465,0.000105,-0.001808,49.38,13.86,41.58,286.1218,-0.4213,-0.1838,55.814102,37.500412,208.2,20.585,7940
0.023943,0.06704,9.857229,-0.003255,0.001327,2.5E-05,46.2,10.86,43.14,286.1218,-0.4213,-0.1838,55.814102,37.500412,208.2,20.585,7951
0.023943,0.06704,9.857229,-0.003255,0.001327,2.5E-05,46.2,10.86,43.14,286.1218,-0.4213,-0.1838,55.814102,37.500412,208.2,20.585,7961
0.011971,0.071828,9.838076,0.001632,0.000105,0.003079,43.38,7.56,44.88,280.1497,-0.418,-0.1957,55.814102,37.500412,208.2,20.585,7971
0.019154,0.057463,9.802161,-0.000811,0.000716,0.003079,41.52,5.76,45.24,280.1497,-0.418,-0.1957,55.814102,37.500412,208.2,20.585,7982
0.035914,0.071828,9.878778,0.002854,0.003159,-0.000586,41.52,5.76,45.24,280.1497,-0.418,-0.1957,55.814102,37.500412,208.2,20.585,7990
0.026337,0.069434,9.830893,-0.000811,-0.002949,0.002469,37.68,1.2,44.34,280.1497,-0.418,-0.1957,55.814102,37.500412,208.2,20.585,8001
0.026337,0.069434,9.830893,0.000411,0.001327,-0.003029,37.68,1.2,44.34,280.1497,-0.418,-0.1957,55.814102,37.500412,208.2,20.585,8011
0.03352,0.062251,9.838076,-0.003866,0.000716,0.001858,33.24,-3.66,41.7,262.5305,-0.4189,-0.1961,55.814102,37.500412,208.2,20.585,8022
0.03352,0.06704,9.873989,0.001632,-0.001728,-0.000586,30.66,-5.82,39.78,262.5305,-0.4189,-0.1961,55.814102,37.500412,208.2,20.585,8030
0.03352,0.06704,9.873989,-0.002033,0.001327,0.004301,30.66,-5.82,39.78,262.5305,-0.4189,-0.1961,55.814102,37.500412,208.2,20.585,8041
0.01676,0.076617,9.859624,0.000411,0.000105,-0.001197,25.44,-8.76,36.36,262.5305,-0.4189,-0.1961,55.814102,37.500412,208.2,20.585,8051
0.03352,0.06704,9.888355,0.000411,0.000105,-0.001197,25.44,-8.76,36.36,262.5305,-0.4189,-0.1961,55.814102,37.500412,208.2,20.585,8060
0.035914,0.074223,9.852441,-0.000811,0.001327,0.000636,20.04,-11.1,31.98,240.5469,-0.4151,-0.1958,55.814102,37.500412,208.2,20.585,8071
0.028731,0.064645,9.859624,-0.002033,0.00377,0.002469,16.44,-11.94,29.34,240.5469,-0.4151,-0.1958,55.814102,37.500412,208.2,20.585,8082
0.028731,0.064645,9.859624,0.001021,-0.001728,0.000636,16.44,-11.94,29.34,240.5469,-0.4151,-0.1958,55.814102,37.500412,208.2,20.585,8091
0.03352,0.076617,9.869201,0.000411,-0.000506,-0.001197,10.68,-11.88,24.48,221.8889,-0.4148,-0.1942,55.814102,37.500412,208.2,20.585,8101
0.03352,0.076617,9.869201,0.000411,-0.000506,-0.001197,10.68,-11.88,24.48,221.8889,-0.4148,-0.1942,55.814102,37.500412,208.2,20.585,8111
0.040703,0.064645,9.862018,-0.002033,0.000105,-0.001197,5.76,-11.16,21,221.8889,-0.4148,-0.1942,55.814102,37.500412,208.2,20.585,8121
0.040703,0.064645,9.862018,-0.002644,-0.000506,2.5E-05,5.76,-11.16,21,221.8889,-0.4148,-0.1942,55.814102,37.500412,208.2,20.585,8131
0.040703,0.071828,9.842864,0.000411,0.000716,0.001247,3.3,-10.68,19.26,221.8889,-0.4148,-0.1942,55.814102,37.500412,208.2,20.585,8141
0.043097,0.074223,9.864412,0.001021,-0.000506,0.002469,-0.78,-10.32,15.72,174.0642,-0.4099,-0.1847,55.814102,37.500412,208.2,20.585,8150
0.047885,0.076617,9.866806,0.001632,-0.001117,-0.000586,-0.78,-10.32,15.72,174.0642,-0.4099,-0.1847,55.814102,37.500412,208.2,20.585,8163
0.047885,0.076617,9.866806,0.001632,-0.001117,-0.002418,-4.62,-8.94,12.96,174.0642,-0.4099,-0.1847,55.814102,37.500412,208.2,20.585,8171
0.040703,0.074223,9.818921,-0.000811,0.000105,-0.004251,-4.62,-8.94,12.96,174.0642,-0.4099,-0.1847,55.814102,37.500412,208.2,20.585,8181
0.026337,0.069434,9.835681,-0.0002,-0.001117,0.001247,-7.86,-8.22,10.92,135.1539,-0.4121,-0.1848,55.814102,37.500412,208.2,20.585,8190
0.028731,0.079011,9.830893,-0.000811,0.000105,-0.001808,-7.86,-8.22,10.92,135.1539,-0.4121,-0.1848,55.814102,37.500412,208.2,20.585,8201
0.03352,0.079011,9.862018,-0.000811,-0.001117,2.5E-05,-10.2,-7.92,10.14,135.1539,-0.4121,-0.1848,55.814102,37.500412,208.2,20.585,8211
0.03352,0.079011,9.862018,-0.001422,0.000716,0.000636,-10.2,-7.92,10.14,135.1539,-0.4121,-0.1848,55.814102,37.500412,208.2,20.585,8221
0.035914,0.079011,9.847652,-0.001422,0.000716,0.000636,-11.88,-6.6,9.48,120.4234,-0.41,-0.1846,55.814102,37.500412,208.2,20.585,8230
0.040703,0.071828,9.869201,0.003465,-0.001728,0.000636,-11.88,-6.6,9.48,120.4234,-0.41,-0.1846,55.814102,37.500412,208.2,20.585,8241
0.028731,0.069434,9.814133,0.001021,-0.002949,-0.001808,-13.5,-6.18,9.18,120.4234,-0.41,-0.1846,55.814102,37.500412,208.2,20.585,8251
0.03352,0.074223,9.924269,0.002854,-0.001117,-0.004862,-13.5,-6.18,9.18,120.4234,-0.41,-0.1846,55.814102,37.500412,208.2,20.585,8261
0.03352,0.074223,9.924269,-0.002644,0.002549,-0.001197,-15.36,-5.88,7.92,111.9543,-0.4112,-0.1861,55.814102,37.500412,208.2,20.585,8271
0.035914,0.055068,9.830893,0.001632,0.000105,-0.001808,-15.36,-5.88,7.92,111.9543,-0.4112,-0.1861,55.814102,37.500412,208.2,20.585,8281
0.009577,0.069434,9.787795,0.001021,-0.002949,2.5E-05,-16.68,-4.56,7.56,111.9543,-0.4112,-0.1861,55.814102,37.500412,208.2,20.585,8291
0.03352,0.06704,9.840469,0.004076,-0.001728,0.000636,-16.68,-4.56,7.74,111.9543,-0.4112,-0.1861,55.814102,37.500412,208.2,20.585,8301
0.03352,0.06704,9.840469,0.004076,-0.001728,0.000636,-16.68,-4.56,7.74,111.9543,-0.4112,-0.1861,55.814102,37.500412,208.2,20.585,8310
0.011971,0.052674,9.876384,-0.002033,0.001938,-0.003029,-17.82,-3.72,7.14,102.664,-0.4111,-0.1865,55.814102,37.500412,208.2,20.585,8321
0.021548,0.071828,9.842864,-0.0002,0.000105,-0.001197,-17.82,-3.72,7.14,102.664,-0.4111,-0.1865,55.814102,37.500412,208.2,20.585,8332
0.007183,0.071828,9.747093,-0.003866,-0.001117,-0.002418,-19.26,-3.78,7.62,102.664,-0.4111,-0.1865,55.814102,37.500412,208.2,20.585,8341
0.007183,0.071828,9.747093,0.001021,-0.001728,0.000636,-19.26,-3.78,7.62,102.664,-0.4111,-0.1865,55.814102,37.500412,208.2,20.585,8351
0.028731,0.086194,9.811738,-0.003866,-0.001728,2.5E-05,-18.9,-3.72,7.56,102.0375,-0.4125,-0.1845,55.814102,37.500412,208.2,20.585,8360
0.028731,0.05028,9.869201,0.002243,-0.000506,-0.000586,-18.9,-3.72,7.56,102.0375,-0.4125,-0.1845,55.814102,37.500412,208.2,20.585,8370
0.028731,0.05028,9.869201,-0.001422,0.001938,2.5E-05,-19.74,-3.36,7.14,102.0375,-0.4125,-0.1845,55.814102,37.500412,208.2,20.585,8381
0.026337,0.057463,9.828498,0.002243,0.000716,0.001858,-19.74,-3.36,7.14,102.0375,-0.4125,-0.1845,55.814102,37.500412,208.2,20.585,8391
0.01676,0.074223,9.842864,0.001021,-0.001117,2.5E-05,-20.64,-3,7.2,98.2561,-0.4159,-0.1777,55.814102,37.500412,208.2,20.585,8401
0.026337,0.088588,9.883567,0.002243,-0.000506,0.000636,-20.64,-3,7.2,98.2561,-0.4159,-0.1777,55.814102,37.500412,208.2,20.585,8411
0.026337,0.088588,9.883567,-0.003866,0.001327,2.5E-05,-20.16,-2.28,7.26,98.2561,-0.4159,-0.1777,55.814102,37.500412,208.2,20.585,8421
0.047885,0.064645,9.883567,0.001632,-0.000506,0.001858,-20.16,-2.28,7.26,98.2561,-0.4159,-0.1777,55.814102,37.500412,208.2,20.585,8431
0.028731,0.055068,9.885961,0.001632,-0.000506,0.001858,-20.52,-2.04,6.9,95.5709,-0.4169,-0.1772,55.814102,37.500412,208.2,20.585,8441
0.038308,0.052674,9.859624,-0.0002,-0.002338,-0.001197,-20.82,-1.74,7.26,95.5709,-0.4169,-0.1772,55.814102,37.500412,208.2,20.585,8450
0.038308,0.052674,9.859624,0.002243,-0.002338,0.000636,-20.82,-1.74,7.26,95.5709,-0.4169,-0.1772,55.814102,37.500412,208.2,20.585,8461
0.028731,0.081405,9.881172,0.001021,0.002549,2.5E-05,-21.42,-1.92,7.08,95.5709,-0.4169,-0.1772,55.814102,37.500412,208.2,20.585,8471
0.038308,0.069434,9.821315,0.000411,0.000105,0.002469,-21.42,-1.92,7.08,95.5709,-0.4169,-0.1772,55.814102,37.500412,208.2,20.585,8480
0.023943,0.06704,9.838076,0.001632,0.001327,2.5E-05,-21.42,-2.04,6.84,95.5705,-0.4153,-0.1753,55.814102,37.500412,208.2,20.585,8491
0.023943,0.06704,9.838076,0.000411,0.000105,-0.000586,-21.42,-2.04,6.54,95.5705,-0.4153,-0.1753,55.814102,37.500412,208.2,20.585,8501
0.01676,0.071828,9.842864,-0.000811,0.002549,-0.001197,-21.42,-2.04,6.54,95.5705,-0.4153,-0.1753,55.814102,37.500412,208.2,20.585,8511
0.028731,0.074223,9.873989,0.000411,-0.001728,-0.001197,-21.66,-1.74,6.96,95.5705,-0.4153,-0.1753,55.814102,37.500412,208.2,20.585,8521
0.023943,0.098165,9.859624,-0.002644,-0.000506,-0.002418,-21.66,-1.74,6.96,95.5705,-0.4153,-0.1753,55.814102,37.500412,208.2,20.585,8530
0.021548,0.071828,9.835681,-0.002644,-0.000506,-0.002418,-22.14,-1.5,7.56,92.7514,-0.4223,-0.1757,55.814102,37.500412,208.2,20.585,8541
0.040703,0.055068,9.835681,0.001632,-0.001117,-0.000586,-22.14,-1.5,7.56,92.7514,-0.4223,-0.1757,55.814102,37.500412,208.2,20.585,8551
0.040703,0.055068,9.835681,0.001632,-0.001117,-0.000586,-22.2,-2.16,7.62,92.7514,-0.4223,-0.1757,55.814102,37.500412,208.2,20.585,8560
0.045491,0.064645,9.873989,0.000411,-0.000506,-0.001808,-22.2,-2.16,7.62,92.7514,-0.4223,-0.1757,55.814102,37.500412,208.2,20.585,8571
0.03352,0.06704,9.842864,0.001021,0.001327,-0.001197,-21.9,-2.7,7.8,97.9062,-0.4234,-0.175,55.814102,37.500412,208.2,20.585,8581
0.035914,0.06704,9.869201,-0.0002,0.000716,-0.001197,-21.9,-2.7,7.8,97.9062,-0.4234,-0.175,55.814102,37.500412,208.2,20.585,8590
0.035914,0.06704,9.869201,0.000411,0.000716,-0.001808,-22.26,-2.1,7.56,97.9062,-0.4234,-0.175,55.814102,37.500412,208.2,20.585,8600
0.021548,0.059857,9.857229,0.000411,-0.001117,-0.001197,-22.26,-2.1,7.56,97.9062,-0.4234,-0.175,55.814102,37.500412,208.2,20.585,8611
0.021548,0.071828,9.852441,0.000411,-0.001117,-0.001197,-22.5,-1.86,6.96,95.3208,-0.4215,-0.1772,55.814102,37.500412,208.2,20.585,8620
0.035914,0.055068,9.847652,-0.0002,-0.001117,2.5E-05,-22.5,-1.86,6.96,95.3208,-0.4215,-0.1772,55.814102,37.500412,208.2,20.585,8631
0.028731,0.071828,9.866806,-0.000811,-0.001728,-0.001197,-21.84,-1.74,6.84,95.3208,-0.4215,-0.1772,55.814102,37.500412,208.2,20.585,8641
0.028731,0.071828,9.866806,-0.000811,-0.001728,-0.001197,-21.84,-1.74,6.84,95.3208,-0.4215,-0.1772,55.814102,37.500412,208.2,20.585,8650
0.026337,0.064645,9.857229,-0.000811,0.000105,2.5E-05,-22.08,-1.56,7.62,95.3387,-0.422,-0.1886,55.814102,37.500412,208.2,20.585,8660
0.019154,0.06704,9.859624,0.000411,0.001938,0.000636,-22.08,-1.56,7.62,95.3387,-0.422,-0.1886,55.814102,37.500412,208.2,20.585,8671
0.019154,0.06704,9.859624,0.000411,-0.001117,-0.000586,-21.9,-1.38,7.92,95.3387,-0.422,-0.1886,55.814102,37.500412,208.2,20.585,8681
0.035914,0.074223,9.857229,0.001021,-0.000506,-0.001808,-21.9,-1.38,7.92,95.3387,-0.422,-0.1886,55.814102,37.500412,208.2,20.585,8691
0.028731,0.06704,9.842864,-0.004476,0.002549,-0.000586,-21.6,-0.66,7.5,92.7484,-0.4149,-0.1889,55.814102,37.500412,208.2,20.585,8701
0.043097,0.057463,9.847652,-0.0002,-0.001117,2.5E-05,-21.6,-0.66,7.5,92.7484,-0.4149,-0.1889,55.814102,37.500412,208.2,20.585,8710
0.035914,0.074223,9.828498,-0.0002,-0.001117,2.5E-05,-22.14,-0.9,6.78,92.7484,-0.4149,-0.1889,55.814102,37.500412,208.2,20.585,8721
0.035914,0.074223,9.828498,0.001021,-0.004171,2.5E-05,-22.14,-0.9,6.78,92.7484,-0.4149,-0.1889,55.814102,37.500412,208.2,20.585,8730
0.047885,0.071828,9.854836,0.003465,-0.001728,0.004301,-22.2,-0.84,6.66,92.7291,-0.4117,-0.1872,55.814102,37.500412,208.2,20.585,8741
0.040703,0.079011,9.821315,0.002854,-0.00356,-0.001197,-22.2,-0.72,6.66,92.7291,-0.4117,-0.1872,55.814102,37.500412,208.2,20.585,8751
0.011971,0.079011,9.821315,0.002243,-0.005393,-0.001197,-22.2,-0.72,6.66,92.7291,-0.4117,-0.1872,55.814102,37.500412,208.2,20.585,8760
0.026337,0.071828,9.866806,0.003465,-0.004782,-0.002418,-22.62,-1.5,6.9,92.7291,-0.4117,-0.1872,55.814102,37.500412,208.2,20.585,8771
0.026337,0.071828,9.866806,0.003465,-0.004782,-0.002418,-22.62,-1.5,6.9,92.7291,-0.4117,-0.1872,55.814102,37.500412,208.2,20.585,8781
0.021548,0.090982,9.883567,0.003465,-0.004782,0.001247,-22.74,-1.08,6.96,92.613,-0.4199,-0.1908,55.814102,37.500412,208.2,20.585,8790
0.064645,0.069434,9.895537,0.001632,-0.001728,-0.001197,-22.38,-1.2,6.78,92.613,-0.4199,-0.1908,55.814102,37.500412,208.2,20.585,8801
0.064645,0.069434,9.895537,-0.0002,0.001327,-0.001808,-22.38,-1.2,6.78,92.613,-0.4199,-0.1908,55.814102,37.500412,208.2,20.585,8811
0.057463,0.0838,9.864412,-0.000811,0.003159,2.5E-05,-22.44,-0.9,6.6,92.613,-0.4199,-0.1908,55.814102,37.500412,208.2,20.585,8821
0.057463,0.086194,9.854836,-0.003866,-0.000506,0.000636,-22.44,-0.9,6.6,92.613,-0.4199,-0.1908,55.814102,37.500412,208.2,20.585,8831
0.045491,0.074223,9.826104,-0.003866,-0.000506,0.000636,-21.96,-0.84,6.3,92.716,-0.4317,-0.1955,55.814102,37.500412,208.2,20.585,8841
0.023943,0.0838,9.830893,-0.0002,0.003159,0.001858,-21.24,-1.08,6.78,92.716,-0.4317,-0.1955,55.814102,37.500412,208.2,20.585,8850
