ACCELEROMETER X (m/s²),ACCELEROMETER Y (m/s²),ACCELEROMETER Z (m/s²),GYROSCOPE X (rad/s),GYROSCOPE Y (rad/s),GYROSCOPE Z (rad/s),MAGNETIC FIELD X (μT),MAGNETIC FIELD Y (μT),MAGNETIC FIELD Z (μT),ORIENTATION Z (azimuth °),ORIENTATION X (pitch °),ORIENTATION Y (roll °),LOCATION Latitude : ,LOCATION Longitude : ,LOCATION Altitude ( m),LOCATION Speed ( m/s),Time since start in ms 
0.059857,0.086194,9.873989,-0.000664,-0.000708,-0.000751,-23.34,-7.02,7.62,107.0477,-0.4606,-0.2481,55.81397,37.50027,181.1981,0.2471,17
0.059857,0.086194,9.873989,-5.3E-05,0.004179,0.002914,-23.34,-7.02,7.62,107.0477,-0.4606,-0.2481,55.81397,37.50027,181.1981,0.2471,26
0.035914,0.069434,9.878778,0.001169,-0.00193,0.000471,-22.86,-7.08,7.5,107.048,-0.461,-0.2456,55.81397,37.50027,181.1981,0.2471,37
0.03352,0.062251,9.852441,-0.002497,-0.00193,0.001082,-22.86,-7.08,7.5,107.048,-0.461,-0.2456,55.81397,37.50027,181.1981,0.2471,46
0.040703,0.079011,9.852441,-5.3E-05,-9.7E-05,0.002914,-22.5,-7.26,7.5,107.048,-0.461,-0.2456,55.81397,37.50027,181.1981,0.2471,57
0.040703,0.079011,9.852441,0.001169,-0.001319,0.000471,-22.5,-7.26,7.5,107.048,-0.461,-0.2456,55.81397,37.50027,181.1981,0.2471,67
0.05028,0.090982,9.838076,-0.000664,-0.002541,0.001082,-22.86,-7.68,8.4,109.2908,-0.4546,-0.2492,55.81397,37.50027,181.1981,0.2471,76
0.05028,0.0838,9.845258,-5.3E-05,-0.001319,-0.000751,-22.86,-7.68,8.4,109.2908,-0.4546,-0.2492,55.81397,37.50027,181.1981,0.2471,87
0.035914,0.069434,9.842864,0.001169,-0.000708,0.000471,-22.74,-6.78,7.86,109.2908,-0.4546,-0.2492,55.81397,37.50027,181.1981,0.2471,97
0.035914,0.069434,9.842864,-0.000664,0.000514,0.001082,-22.92,-6.78,7.56,109.2908,-0.4546,-0.2492,55.81397,37.50027,181.1981,0.2471,107
0.043097,0.088588,9.850046,0.001169,0.001125,0.001082,-22.92,-6.78,7.56,109.2908,-0.4546,-0.2492,55.81397,37.50027,181.1981,0.2471,117
0.035914,0.071828,9.828498,0.00239,0.000514,0.000471,-23.16,-7.02,7.44,107.0311,-0.4559,-0.2487,55.81397,37.50027,181.1981,0.2471,127
0.028731,0.095771,9.818921,0.001169,-0.00193,-0.000751,-23.16,-7.02,7.44,107.0311,-0.4559,-0.2487,55.81397,37.50027,181.1981,0.2471,136
0.045491,0.074223,9.814133,0.000558,-0.000708,0.000471,-23.04,-7.14,7.86,107.0311,-0.4559,-0.2487,55.81397,37.50027,181.1981,0.2471,147
0.045491,0.074223,9.814133,-5.3E-05,0.001735,0.002304,-23.04,-7.14,7.86,107.0311,-0.4559,-0.2487,55.81397,37.50027,181.1981,0.2471,157
0.038308,0.074223,9.838076,-0.001275,-0.002541,-0.00014,-22.38,-6.96,8.1,107.7721,-0.4558,-0.2483,55.81397,37.50027,181.1981,0.2471,166
0.05028,0.071828,9.845258,-5.3E-05,-0.003151,-0.000751,-22.38,-6.96,8.1,107.7721,-0.4558,-0.2483,55.81397,37.50027,181.1981,0.2471,177
0.031126,0.081405,9.823709,-0.002497,-9.7E-05,0.002914,-22.44,-6.9,7.92,107.7721,-0.4558,-0.2483,55.81397,37.50027,181.1981,0.2471,186
0.031126,0.081405,9.823709,0.000558,-0.00193,0.003525,-22.44,-6.9,7.92,107.7721,-0.4558,-0.2483,55.81397,37.50027,181.1981,0.2471,197
0.045491,0.071828,9.814133,-0.001275,-0.003151,-0.00014,-22.56,-6.72,7.44,107.0317,-0.4564,-0.2428,55.81397,37.50027,181.1981,0.2471,206
0.035914,0.098165,9.80695,-0.002497,-0.002541,0.000471,-22.56,-6.72,7.44,107.0317,-0.4564,-0.2428,55.81397,37.50027,181.1981,0.2471,216
0.035914,0.071828,9.826104,-0.002497,-0.002541,0.000471,-22.44,-6.6,7.92,107.0317,-0.4564,-0.2428,55.81397,37.50027,181.1981,0.2471,226
0.045491,0.074223,9.840469,-0.000664,0.001125,0.001082,-22.44,-6.6,7.92,107.0317,-0.4564,-0.2428,55.81397,37.50027,181.1981,0.2471,237
0.045491,0.074223,9.840469,-0.000664,-0.001319,0.005358,-22.38,-6.84,8.82,107.7888,-0.4546,-0.2351,55.81397,37.50027,181.1981,0.2471,246
0.052674,0.074223,9.816526,-0.001886,-9.7E-05,-0.00014,-22.38,-6.84,8.82,107.7888,-0.4546,-0.2351,55.81397,37.50027,181.1981,0.2471,257
0.026337,0.095771,9.830893,0.001169,0.002346,0.002914,-22.8,-7.38,8.34,107.7888,-0.4546,-0.2351,55.81397,37.50027,181.1981,0.2471,266
0.040703,0.071828,9.811738,-0.000664,-0.00193,-0.00014,-22.8,-7.38,8.34,107.7888,-0.4546,-0.2351,55.81397,37.50027,181.1981,0.2471,277
0.040703,0.071828,9.811738,-0.000664,-0.001319,0.002304,-23.46,-7.74,7.62,109.2938,-0.4589,-0.2343,55.81397,37.50027,181.1981,0.2471,286
0.023943,0.076617,9.823709,0.001169,-9.7E-05,0.001693,-23.46,-7.74,7.62,109.2938,-0.4589,-0.2343,55.81397,37.50027,181.1981,0.2471,297
0.035914,0.10056,9.854836,0.001169,-0.000708,0.002914,-23.22,-7.86,7.8,109.2938,-0.4589,-0.2343,55.81397,37.50027,181.1981,0.2471,307
0.031126,0.088588,9.830893,-0.000664,-0.001319,0.001082,-23.22,-7.86,7.8,109.2938,-0.4589,-0.2343,55.81397,37.50027,181.1981,0.2471,317
0.055068,0.076617,9.828498,0.004223,-9.7E-05,0.001693,-22.8,-7.32,7.92,107.049,-0.4598,-0.2321,55.81397,37.50027,181.1981,0.2471,327
0.028731,0.074223,9.821315,0.001169,-0.000708,0.001082,-22.92,-6.72,8.4,107.049,-0.4598,-0.2321,55.81397,37.50027,181.1981,0.2471,337
0.028731,0.074223,9.821315,-0.001275,-0.001319,-0.002583,-22.92,-6.72,8.4,107.049,-0.4598,-0.2321,55.81397,37.50027,181.1981,0.2471,346
0.055068,0.090982,9.833286,0.00239,0.001125,0.001082,-23.4,-6.24,8.28,107.049,-0.4598,-0.2321,55.81397,37.50027,181.1981,0.2471,357
0.055068,0.059857,9.816526,0.003612,0.001125,0.000471,-23.4,-6.24,8.28,107.049,-0.4598,-0.2321,55.81397,37.50027,181.1981,0.2471,367
0.023943,0.074223,9.826104,-5.3E-05,0.000514,-0.00014,-22.98,-7.14,7.38,107.0355,-0.4658,-0.23,55.81397,37.50027,181.1981,0.2471,377
0.023943,0.074223,9.826104,-5.3E-05,0.000514,0.002914,-22.98,-7.02,7.44,107.0355,-0.4658,-0.23,55.81397,37.50027,181.1981,0.2471,386
0.035914,0.071828,9.823709,-0.000664,-9.7E-05,-0.001362,-22.98,-7.02,7.44,107.0355,-0.4658,-0.23,55.81397,37.50027,181.1981,0.2471,397
0.043097,0.076617,9.828498,-0.001275,-9.7E-05,0.001082,-23.1,-7.14,7.8,107.0355,-0.4658,-0.23,55.81397,37.50027,181.1981,0.2471,406
0.047885,0.0838,9.823709,0.001169,-9.7E-05,0.001693,-23.1,-7.14,7.8,107.0355,-0.4658,-0.23,55.81397,37.50027,181.1981,0.2471,417
0.047885,0.0838,9.823709,-0.000664,0.000514,0.000471,-22.98,-7.26,8.52,107.0661,-0.465,-0.2342,55.81397,37.50027,181.1981,0.2471,427
0.047885,0.086194,9.828498,-0.001275,0.000514,0.001693,-22.98,-7.26,8.52,107.0661,-0.465,-0.2342,55.81397,37.50027,181.1981,0.2471,436
0.038308,0.081405,9.869201,0.000558,-0.000708,0.000471,-22.32,-7.5,8.76,107.0661,-0.465,-0.2342,55.81397,37.50027,181.1981,0.2471,447
0.038308,0.081405,9.869201,-0.001275,-0.000708,-0.002583,-22.32,-7.5,8.76,107.0661,-0.465,-0.2342,55.81397,37.50027,181.1981,0.2471,456
0.05028,0.088588,9.862018,-5.3E-05,0.000514,0.001693,-22.68,-7.92,7.74,109.2948,-0.4638,-0.2385,55.81397,37.50027,181.1981,0.2471,467
0.035914,0.0838,9.854836,-0.001275,0.002957,-0.00014,-22.68,-7.92,7.74,109.2948,-0.4638,-0.2385,55.81397,37.50027,181.1981,0.2471,477
0.023943,0.071828,9.852441,-0.003107,0.001735,0.000471,-23.4,-7.62,7.86,109.2948,-0.4638,-0.2385,55.81397,37.50027,181.1981,0.2471,486
0.023943,0.071828,9.852441,-0.003107,0.001735,0.000471,-23.4,-7.62,7.86,109.2948,-0.4638,-0.2385,55.81397,37.50027,181.1981,0.2471,496
0.043097,0.079011,9.883567,-0.001275,-0.00193,0.002304,-22.98,-7.32,9.12,107.0657,-0.4651,-0.2373,55.81397,37.50027,181.1981,0.2471,507
0.040703,0.079011,9.862018,-0.001275,-0.00193,0.002304,-22.98,-7.32,9.12,107.0657,-0.4651,-0.2373,55.81397,37.50027,181.1981,0.2471,517
0.043097,0.0838,9.854836,-0.003107,-9.7E-05,0.001693,-22.68,-7.8,9.12,107.0657,-0.4651,-0.2373,55.81397,37.50027,181.1981,0.2471,527
0.052674,0.088588,9.840469,-0.000664,0.000514,-0.001362,-22.32,-8.1,8.58,107.0657,-0.4651,-0.2373,55.81397,37.50027,181.1981,0.2471,537
0.052674,0.088588,9.840469,-0.001886,-9.7E-05,0.003525,-22.32,-8.1,8.58,107.0657,-0.4651,-0.2373,55.81397,37.50027,181.1981,0.2471,546
0.038308,0.06704,9.869201,-0.000664,-0.000708,0.000471,-22.32,-8.22,8.7,110.1182,-0.4659,-0.2337,55.81397,37.50027,181.1981,0.2471,557
0.043097,0.071828,9.890749,0.001779,-0.00193,0.000471,-22.32,-8.22,8.7,110.1182,-0.4659,-0.2337,55.81397,37.50027,181.1981,0.2471,566
0.035914,0.079011,9.850046,-0.000664,0.000514,-0.001362,-22.44,-6.78,9.3,110.1182,-0.4659,-0.2337,55.81397,37.50027,181.1981,0.2471,576
0.043097,0.076617,9.850046,-5.3E-05,0.001735,0.000471,-22.62,-6.78,9.18,110.1182,-0.4659,-0.2337,55.81397,37.50027,181.1981,0.2471,587
0.043097,0.076617,9.850046,-5.3E-05,0.002346,0.001082,-22.62,-6.78,9.18,110.1182,-0.4659,-0.2337,55.81397,37.50027,181.1981,0.2471,597
0.040703,0.086194,9.873989,-5.3E-05,0.000514,-0.001362,-22.2,-7.32,8.16,107.7773,-0.4672,-0.2346,55.81397,37.50027,181.1981,0.2471,607
0.040703,0.076617,9.869201,0.001169,0.000514,0.002304,-22.2,-7.32,8.16,107.7773,-0.4672,-0.2346,55.81397,37.50027,181.1981,0.2471,617
0.01676,0.069434,9.854836,-0.003718,-0.002541,0.001082,-22.5,-7.08,7.98,107.7773,-0.4672,-0.2346,55.81397,37.50027,181.1981,0.2471,627
0.035914,0.090982,9.871595,-0.001275,-0.003762,0.001693,-22.5,-7.08,7.98,107.7773,-0.4672,-0.2346,55.81397,37.50027,181.1981,0.2471,637
0.035914,0.090982,9.871595,0.001169,-0.000708,0.001082,-22.2,-6.96,8.88,107.7932,-0.4651,-0.2309,55.81397,37.50027,181.1981,0.2471,646
0.031126,0.081405,9.857229,-0.000664,-0.00193,0.000471,-22.2,-6.96,8.88,107.7932,-0.4651,-0.2309,55.81397,37.50027,181.1981,0.2471,657
0.038308,0.079011,9.840469,-0.000664,-0.00193,0.000471,-21.54,-7.5,9,107.7932,-0.4651,-0.2309,55.81397,37.50027,181.1981,0.2471,667
0.043097,0.064645,9.833286,0.000558,0.001125,0.001693,-21.54,-7.5,9,107.7932,-0.4651,-0.2309,55.81397,37.50027,181.1981,0.2471,676
0.05028,0.071828,9.852441,-0.000664,0.000514,-0.001972,-22.02,-7.74,8.1,110.1042,-0.4658,-0.2242,55.81397,37.50027,181.1981,0.2471,688
0.05028,0.071828,9.852441,0.001169,0.000514,0.000471,-22.02,-7.74,8.1,110.1042,-0.4658,-0.2242,55.81397,37.50027,181.1981,0.2471,697
0.035914,0.076617,9.854836,-0.002497,-9.7E-05,0.000471,-22.62,-7.2,7.98,110.1042,-0.4658,-0.2242,55.81397,37.50027,181.1981,0.2471,707
0.047885,0.090982,9.840469,0.001779,0.001125,0.002304,-22.62,-7.2,7.98,110.1042,-0.4658,-0.2242,55.81397,37.50027,181.1981,0.2471,717
0.023943,0.071828,9.852441,-5.3E-05,0.001125,-0.00014,-22.62,-7.44,8.4,107.0508,-0.4637,-0.2269,55.81397,37.50027,181.1981,0.2471,727
0.023943,0.071828,9.852441,-0.001886,-0.001319,0.000471,-22.62,-7.44,8.4,107.0508,-0.4637,-0.2269,55.81397,37.50027,181.1981,0.2471,737
0.031126,0.076617,9.852441,-0.002497,-0.001319,-0.001362,-22.8,-8.04,8.16,107.0508,-0.4637,-0.2269,55.81397,37.50027,181.1981,0.2471,747
0.043097,0.086194,9.883567,-0.000664,0.001125,-0.001362,-22.74,-8.28,7.74,107.0508,-0.4637,-0.2269,55.81397,37.50027,181.1981,0.2471,757
0.031126,0.071828,9.854836,0.001779,-0.003151,0.000471,-22.74,-8.28,7.74,107.0508,-0.4637,-0.2269,55.81397,37.50027,181.1981,0.2471,766
0.043097,0.081405,9.852441,-5.3E-05,0.001125,0.000471,-22.02,-8.34,7.98,110.1035,-0.4642,-0.2258,55.81397,37.50027,181.1981,0.2471,777
0.043097,0.081405,9.852441,0.00239,-9.7E-05,-0.000751,-22.02,-8.34,7.98,110.1035,-0.4642,-0.2258,55.81397,37.50027,181.1981,0.2471,786
0.045491,0.071828,9.838076,-0.000664,-9.7E-05,0.002914,-21.3,-7.68,7.92,110.1035,-0.4642,-0.2258,55.81397,37.50027,181.1981,0.2471,797
0.040703,0.088588,9.869201,0.000558,-0.001319,0.002914,-21.18,-7.14,7.56,110.1035,-0.4642,-0.2258,55.81397,37.50027,181.1981,0.2471,806
0.045491,0.088588,9.850046,0.001779,0.001735,0.001693,-21.18,-7.14,7.56,110.1035,-0.4642,-0.2258,55.81397,37.50027,181.1981,0.2471,817
0.040703,0.095771,9.857229,-0.001275,-0.003151,0.001693,-20.94,-7.26,7.74,108.565,-0.4621,-0.228,55.81397,37.50027,181.1981,0.2471,827
0.031126,0.059857,9.871595,0.001779,-0.00193,0.001082,-20.94,-7.26,7.74,108.565,-0.4621,-0.228,55.81397,37.50027,181.1981,0.2471,838
0.031126,0.059857,9.871595,-5.3E-05,-0.00193,-0.001972,-21.12,-7.32,7.92,108.565,-0.4621,-0.228,55.81397,37.50027,181.1981,0.2471,847
0.047885,0.095771,9.862018,-0.001275,-0.000708,0.001693,-21.12,-7.32,7.92,108.565,-0.4621,-0.228,55.81397,37.50027,181.1981,0.2471,858
0.040703,0.076617,9.859624,-0.001275,-0.000708,0.001693,-21.78,-7.68,7.8,110.1043,-0.4695,-0.2331,55.81397,37.50027,181.1981,0.2471,868
0.043097,0.093377,9.859624,0.001169,0.001125,-0.00014,-21.78,-7.68,7.8,110.1043,-0.4695,-0.2331,55.81397,37.50027,181.1981,0.2471,876
0.043097,0.093377,9.859624,0.001169,-0.001319,0.000471,-21.48,-8.52,8.16,110.1043,-0.4695,-0.2331,55.813965,37.500275,182.2743,0.2432,888
0.03352,0.06704,9.850046,-5.3E-05,-0.001319,0.001693,-21.48,-8.52,8.16,110.1043,-0.4695,-0.2331,55.813965,37.500275,182.2743,0.2432,897
0.038308,0.071828,9.852441,0.001169,-0.001319,-0.001362,-21.06,-8.1,8.46,110.9787,-0.4704,-0.2351,55.813965,37.500275,182.2743,0.2432,907
0.031126,0.064645,9.859624,-0.000664,-0.002541,-0.00014,-21.06,-8.1,8.46,110.9787,-0.4704,-0.2351,55.813965,37.500275,182.2743,0.2432,917
0.031126,0.064645,9.859624,-0.003718,0.002957,0.001082,-21.12,-7.74,8.22,110.9787,-0.4704,-0.2351,55.813965,37.500275,182.2743,0.2432,927
0.043097,0.079011,9.830893,0.003612,-0.00193,-0.001362,-21.12,-7.74,8.22,110.9787,-0.4704,-0.2351,55.813965,37.500275,182.2743,0.2432,936
0.040703,0.090982,9.852441,0.001169,0.000514,0.001082,-21.66,-7.44,7.8,107.7784,-0.4717,-0.2382,55.813965,37.500275,182.2743,0.2432,947
0.047885,0.071828,9.881172,0.000558,0.000514,-0.000751,-21.66,-7.44,7.8,107.7784,-0.4717,-0.2382,55.813965,37.500275,182.2743,0.2432,957
0.035914,0.062251,9.847652,0.001779,0.002957,0.001082,-22.2,-7.02,7.68,107.7784,-0.4717,-0.2382,55.813965,37.500275,182.2743,0.2432,967
0.035914,0.079011,9.859624,-5.3E-05,-9.7E-05,0.001693,-22.2,-7.02,7.68,107.7784,-0.4717,-0.2382,55.813965,37.500275,182.2743,0.2432,977
0.035914,0.079011,9.859624,0.00239,0.002957,0.004136,-21.78,-6.9,8.4,107.7772,-0.4671,-0.2358,55.813965,37.500275,182.2743,0.2432,987
0.040703,0.074223,9.842864,-0.001886,0.001125,0.000471,-21.78,-6.9,8.4,107.7772,-0.4671,-0.2358,55.813965,37.500275,182.2743,0.2432,997
0.040703,0.0838,9.857229,0.001169,-9.7E-05,0.001693,-21.54,-6.9,8.16,107.7772,-0.4671,-0.2358,55.813965,37.500275,182.2743,0.2432,1007
0.052674,0.098165,9.871595,0.000558,0.000514,0.000471,-21.54,-6.9,8.16,107.7772,-0.4671,-0.2358,55.813965,37.500275,182.2743,0.2432,1017
0.052674,0.098165,9.871595,-0.001275,0.001125,-0.001972,-21.18,-7.2,7.86,108.5651,-0.4663,-0.2388,55.813965,37.500275,182.2743,0.2432,1027
0.043097,0.0838,9.854836,0.00239,-0.000708,0.004136,-21.18,-7.2,7.86,108.5651,-0.4663,-0.2388,55.813965,37.500275,182.2743,0.2432,1038
0.052674,0.081405,9.859624,0.00239,-0.000708,0.004136,-21.6,-7.26,7.92,108.5651,-0.4663,-0.2388,55.813965,37.500275,182.2743,0.2432,1046
0.059857,0.086194,9.852441,-5.3E-05,-0.000708,0.001693,-21.36,-6.96,7.92,108.5651,-0.4663,-0.2388,55.813965,37.500275,182.2743,0.2432,1057
0.059857,0.086194,9.852441,-5.3E-05,-0.000708,0.001693,-21.36,-6.96,7.92,108.5651,-0.4663,-0.2388,55.813965,37.500275,182.2743,0.2432,1067
0.038308,0.076617,9.840469,0.001169,0.001735,0.001693,-21.12,-6.9,8.16,108.5656,-0.4697,-0.2436,55.813965,37.500275,182.2743,0.2432,1077
0.026337,0.071828,9.816526,0.001779,0.003568,0.001693,-21.12,-6.9,8.16,108.5656,-0.4697,-0.2436,55.813965,37.500275,182.2743,0.2432,1086
0.021548,0.090982,9.830893,-0.000664,-9.7E-05,0.001082,-21.84,-7.08,8.22,108.5656,-0.4697,-0.2436,55.813965,37.500275,182.2743,0.2432,1097
0.021548,0.090982,9.830893,0.001779,0.001125,-0.00014,-22.14,-6.78,8.04,108.5656,-0.4697,-0.2436,55.813965,37.500275,182.2743,0.2432,1107
0.043097,0.06704,9.828498,-5.3E-05,-0.001319,0.002304,-22.14,-6.78,8.04,107.7771,-0.4709,-0.2476,55.813965,37.500275,182.2743,0.2432,1117
0.05028,0.081405,9.854836,-0.000664,-9.7E-05,-0.002583,-21.54,-6.9,7.32,107.7771,-0.4709,-0.2476,55.813965,37.500275,182.2743,0.2432,1127
0.05028,0.081405,9.854836,0.000558,0.001735,0.001082,-21.54,-6.9,7.32,107.7771,-0.4709,-0.2476,55.813965,37.500275,182.2743,0.2432,1137
0.045491,0.0838,9.847652,-0.000664,-0.001319,-0.004416,-20.88,-6.78,7.08,107.7771,-0.4709,-0.2476,55.813965,37.500275,182.2743,0.2432,1147
0.028731,0.079011,9.862018,-0.001886,-0.00193,-0.001362,-20.88,-6.78,7.08,107.7771,-0.4709,-0.2476,55.813965,37.500275,182.2743,0.2432,1157
0.038308,0.076617,9.859624,-0.001886,-0.000708,-0.000751,-21.78,-6.84,7.74,107.7769,-0.4689,-0.2437,55.813965,37.500275,182.2743,0.2432,1167
0.038308,0.076617,9.859624,-0.002497,0.001125,-0.000751,-21.78,-6.84,7.74,107.7769,-0.4689,-0.2437,55.813965,37.500275,182.2743,0.2432,1176
0.040703,0.0838,9.878778,-0.000664,-0.00193,-0.002583,-22.2,-7.08,7.5,107.7769,-0.4689,-0.2437,55.813965,37.500275,182.2743,0.2432,1187
0.038308,0.074223,9.840469,0.004223,-9.7E-05,0.003525,-22.2,-7.08,7.5,107.7769,-0.4689,-0.2437,55.813965,37.500275,182.2743,0.2432,1197
0.040703,0.074223,9.873989,-0.001275,-0.003151,0.001693,-22.02,-7.02,7.2,107.7591,-0.4634,-0.2444,55.813965,37.500275,182.2743,0.2432,1207
0.038308,0.081405,9.862018,0.003001,-0.001319,-0.001362,-22.02,-7.02,7.2,107.7591,-0.4634,-0.2444,55.813965,37.500275,182.2743,0.2432,1217
0.021548,0.069434,9.869201,-0.001886,0.002957,0.002304,-21.84,-7.44,7.44,107.7591,-0.4634,-0.2444,55.813965,37.500275,182.2743,0.2432,1227
0.021548,0.069434,9.869201,-0.001275,-9.7E-05,0.002914,-21.84,-7.44,7.44,107.7591,-0.4634,-0.2444,55.813965,37.500275,182.2743,0.2432,1237
0.057463,0.098165,9.862018,-0.001275,-9.7E-05,0.002914,-21.72,-7.08,7.32,107.7561,-0.4535,-0.2473,55.813965,37.500275,182.2743,0.2432,1246
0.043097,0.069434,9.840469,0.001779,0.000514,0.001082,-21.72,-7.08,7.32,107.7561,-0.4535,-0.2473,55.813965,37.500275,182.2743,0.2432,1257
0.035914,0.079011,9.857229,-5.3E-05,-0.001319,0.000471,-21.6,-6.72,7.62,107.7561,-0.4535,-0.2473,55.813965,37.500275,182.2743,0.2432,1267
0.035914,0.079011,9.857229,0.001169,-0.001319,-0.001972,-21.6,-6.72,7.62,107.7561,-0.4535,-0.2473,55.813965,37.500275,182.2743,0.2432,1277
0.038308,0.069434,9.866806,-5.3E-05,-9.7E-05,-0.001972,-21.3,-6.84,7.62,108.5586,-0.4492,-0.2452,55.813965,37.500275,182.2743,0.2432,1287
0.031126,0.074223,9.859624,0.000558,-0.002541,-0.000751,-21.3,-6.84,7.62,108.5586,-0.4492,-0.2452,55.813965,37.500275,182.2743,0.2432,1296
0.064645,0.081405,9.854836,-0.001275,-0.003762,0.000471,-21.36,-6.96,7.32,108.5586,-0.4492,-0.2452,55.813965,37.500275,182.2743,0.2432,1307
0.03352,0.079011,9.859624,-5.3E-05,-0.001319,0.001082,-21.36,-6.96,7.32,108.5586,-0.4492,-0.2452,55.813965,37.500275,182.2743,0.2432,1316
0.035914,0.0838,9.828498,-5.3E-05,0.000514,0.002914,-21.6,-7.32,7.56,107.7695,-0.4476,-0.2479,55.813965,37.500275,182.2743,0.2432,1327
0.035914,0.0838,9.828498,-0.003718,0.003568,0.002914,-21.6,-7.32,7.56,107.7695,-0.4476,-0.2479,55.813965,37.500275,182.2743,0.2432,1336
0.047885,0.074223,9.828498,-5.3E-05,-0.004984,-0.00014,-21.72,-6.84,7.32,107.7695,-0.4476,-0.2479,55.813965,37.500275,182.2743,0.2432,1347
0.038308,0.074223,9.847652,-5.3E-05,-0.004984,-0.00014,-21.72,-6.84,7.32,107.7695,-0.4476,-0.2479,55.813965,37.500275,182.2743,0.2432,1356
0.038308,0.074223,9.847652,-0.000664,-9.7E-05,0.001693,-21.48,-7.08,7.56,108.5579,-0.4482,-0.2479,55.813965,37.500275,182.2743,0.2432,1368
0.038308,0.105348,9.859624,0.001779,0.000514,0.004136,-21.48,-7.08,7.56,108.5579,-0.4482,-0.2479,55.813965,37.500275,182.2743,0.2432,1376
0.045491,0.090982,9.859624,0.003001,0.000514,0.001693,-21.36,-8.04,8.22,108.5579,-0.4482,-0.2479,55.813965,37.500275,182.2743,0.2432,1387
0.064645,0.059857,9.842864,-0.001886,-0.003151,-0.001972,-21.36,-8.04,8.22,108.5579,-0.4482,-0.2479,55.813965,37.500275,182.2743,0.2432,1396
0.038308,0.086194,9.850046,0.00239,-0.001319,-0.002583,-21.78,-7.92,7.98,110.0974,-0.4526,-0.2457,55.813965,37.500275,182.2743,0.2432,1407
0.038308,0.086194,9.850046,0.001169,-0.001319,0.001082,-21.78,-7.92,7.98,110.0974,-0.4526,-0.2457,55.813965,37.500275,182.2743,0.2432,1417
0.021548,0.095771,9.869201,0.001169,-0.000708,0.001082,-21.36,-7.44,7.56,110.0974,-0.4526,-0.2457,55.813965,37.500275,182.2743,0.2432,1427
0.03352,0.064645,9.854836,0.001169,-0.000708,0.001082,-21.36,-7.44,7.56,110.0974,-0.4526,-0.2457,55.813965,37.500275,182.2743,0.2432,1436
0.03352,0.076617,9.873989,0.001169,-0.00193,-0.000751,-21.48,-7.68,6.9,110.9576,-0.4585,-0.2519,55.813965,37.500275,182.2743,0.2432,1447
0.03352,0.076617,9.873989,-5.3E-05,-0.00193,-0.000751,-21.3,-7.26,6.84,110.9576,-0.4585,-0.2519,55.813965,37.500275,182.2743,0.2432,1457
0.03352,0.071828,9.804555,0.001169,-9.7E-05,0.002304,-21.3,-7.26,6.84,110.9576,-0.4585,-0.2519,55.813965,37.500275,182.2743,0.2432,1467
0.043097,0.074223,9.792584,-0.000664,-0.000708,0.000471,-21.66,-7.44,7.14,110.9576,-0.4585,-0.2519,55.813965,37.500275,182.2743,0.2432,1477
0.045491,0.071828,9.873989,-0.000664,-0.000708,0.000471,-21.66,-7.44,7.14,110.9576,-0.4585,-0.2519,55.813965,37.500275,182.2743,0.2432,1487
0.045491,0.086194,9.873989,-0.001275,0.002346,0.001693,-21.54,-7.92,7.68,110.0988,-0.4591,-0.2504,55.813965,37.500275,182.2743,0.2432,1497
0.045491,0.086194,9.873989,-0.001275,-9.7E-05,-0.001362,-21.18,-7.68,7.68,110.0988,-0.4591,-0.2504,55.813965,37.500275,182.2743,0.2432,1507
0.035914,0.074223,9.852441,0.001779,-0.001319,-0.001362,-21.18,-7.68,7.68,110.0988,-0.4591,-0.2504,55.813965,37.500275,182.2743,0.2432,1516
0.05028,0.059857,9.845258,-0.002497,0.000514,0.000471,-21.54,-7.32,7.62,110.0988,-0.4591,-0.2504,55.813965,37.500275,182.2743,0.2432,1527
0.028731,0.079011,9.828498,0.00239,0.002346,0.001082,-21.54,-7.32,7.62,110.0988,-0.4591,-0.2504,55.813965,37.500275,182.2743,0.2432,1537
0.021548,0.088588,9.871595,-0.004329,-0.002541,0.002304,-21.3,-7.98,7.5,110.974,-0.4615,-0.2489,55.813965,37.500275,182.2743,0.2432,1547
0.038308,0.069434,9.842864,0.001779,-0.00193,-0.002583,-20.64,-8.1,7.32,110.974,-0.4615,-0.2489,55.813965,37.500275,182.2743,0.2432,1556
0.040703,0.086194,9.873989,0.000558,-0.000708,0.002914,-20.64,-8.1,7.32,110.974,-0.4615,-0.2489,55.813965,37.500275,182.2743,0.2432,1567
0.040703,0.086194,9.873989,-0.000664,-0.000708,0.001693,-20.58,-7.8,7.5,110.974,-0.4615,-0.2489,55.813965,37.500275,182.2743,0.2432,1577
0.045491,0.0838,9.840469,-0.002497,-0.000708,0.001082,-20.58,-7.8,7.5,110.974,-0.4615,-0.2489,55.813965,37.500275,182.2743,0.2432,1587
0.055068,0.095771,9.845258,0.001169,0.003568,0.000471,-20.76,-7.26,8.04,108.5635,-0.4608,-0.236,55.813965,37.500275,182.2743,0.2432,1597
0.023943,0.079011,9.818921,-0.001275,-0.000708,-0.000751,-20.76,-7.26,8.04,108.5635,-0.4608,-0.236,55.813965,37.500275,182.2743,0.2432,1607
0.023943,0.079011,9.818921,0.003001,0.000514,0.001082,-20.82,-6.84,8.58,108.5635,-0.4608,-0.236,55.813965,37.500275,182.2743,0.2432,1616
0.038308,0.093377,9.823709,0.000558,-0.000708,-0.000751,-20.82,-6.84,8.58,108.5635,-0.4608,-0.236,55.813965,37.500275,182.2743,0.2432,1627
0.052674,0.081405,9.862018,0.000558,0.000514,-0.001362,-20.64,-7.08,8.7,108.5806,-0.4623,-0.2343,55.813965,37.500275,182.2743,0.2432,1637
0.038308,0.088588,9.838076,0.000558,0.000514,-0.001362,-20.64,-7.08,8.7,108.5806,-0.4623,-0.2343,55.813965,37.500275,182.2743,0.2432,1647
0.052674,0.0838,9.854836,-0.001886,-0.00193,0.000471,-20.22,-7.44,7.98,108.5806,-0.4623,-0.2343,55.813965,37.500275,182.2743,0.2432,1657
0.052674,0.0838,9.854836,0.000558,-9.7E-05,0.001693,-20.22,-7.44,7.98,108.5806,-0.4623,-0.2343,55.813965,37.500275,182.2743,0.2432,1667
0.035914,0.06704,9.845258,-5.3E-05,-0.004373,0.000471,-20.34,-7.74,7.32,111.9106,-0.4636,-0.2349,55.813965,37.500275,182.2743,0.2432,1676
0.040703,0.086194,9.869201,0.000558,0.001125,-0.00014,-20.34,-7.74,7.32,111.9106,-0.4636,-0.2349,55.813965,37.500275,182.2743,0.2432,1687
0.035914,0.071828,9.857229,0.000558,-0.002541,0.002304,-20.04,-8.22,7.44,111.9106,-0.4636,-0.2349,55.813965,37.500275,182.2743,0.2432,1696
0.035914,0.088588,9.854836,0.000558,0.002346,-0.001972,-20.04,-8.22,7.44,111.9106,-0.4636,-0.2349,55.813965,37.500275,182.2743,0.2432,1707
0.035914,0.088588,9.854836,0.000558,-0.00193,-0.003805,-19.68,-8.7,8.04,114.3439,-0.4632,-0.2376,55.813965,37.500275,182.2743,0.2432,1717
0.031126,0.06704,9.840469,-0.001886,0.000514,0.001693,-19.68,-8.7,8.04,114.3439,-0.4632,-0.2376,55.813965,37.500275,182.2743,0.2432,1726
0.026337,0.093377,9.878778,0.001169,-0.00193,0.003525,-19.26,-9.06,8.28,114.3439,-0.4632,-0.2376,55.813965,37.500275,182.2743,0.2432,1737
0.043097,0.06704,9.859624,-0.001275,0.001735,0.000471,-19.26,-9.06,8.28,114.3439,-0.4632,-0.2376,55.813965,37.500275,182.2743,0.2432,1747
0.035914,0.076617,9.804555,-5.3E-05,0.001125,0.002914,-19.14,-9.12,8.16,115.4646,-0.4626,-0.235,55.813965,37.500275,182.2743,0.2432,1757
0.035914,0.076617,9.804555,-5.3E-05,0.001125,0.002914,-19.14,-9.12,8.16,115.4646,-0.4626,-0.235,55.813965,37.500275,182.2743,0.2432,1767
0.035914,0.069434,9.878778,-5.3E-05,-0.003151,0.002304,-18.9,-9.42,8.22,115.4646,-0.4626,-0.235,55.813965,37.500275,182.2743,0.2432,1777
0.040703,0.06704,9.845258,-5.3E-05,0.000514,-0.001362,-18.9,-9.42,8.22,115.4646,-0.4626,-0.235,55.813965,37.500275,182.2743,0.2432,1787
0.038308,0.086194,9.857229,0.001169,0.000514,-0.001972,-18.12,-10.32,8.16,119.1654,-0.4626,-0.2328,55.813965,37.500275,182.2743,0.2432,1797
0.038308,0.086194,9.857229,0.001779,0.000514,0.002304,-18.12,-10.32,8.16,119.1654,-0.4626,-0.2328,55.813965,37.500275,182.2743,0.2432,1807
0.055068,0.081405,9.823709,-0.000664,0.000514,0.003525,-16.98,-10.92,8.04,119.1654,-0.4626,-0.2328,55.813965,37.500275,182.2743,0.2432,1817
0.045491,0.081405,9.842864,0.003001,0.002957,0.005358,-16.98,-10.92,8.04,119.1654,-0.4626,-0.2328,55.813965,37.500275,182.2743,0.2432,1827
0.052674,0.076617,9.835681,0.001779,-9.7E-05,0.002914,-16.8,-11.34,8.4,123.0066,-0.4641,-0.2344,55.813965,37.500275,182.2743,0.2432,1839
0.035914,0.086194,9.821315,0.001779,-9.7E-05,0.002914,-16.8,-11.34,8.4,123.0066,-0.4641,-0.2344,55.813965,37.500275,182.2743,0.2432,1847
0.026337,0.086194,9.811738,-0.004329,0.002957,0.002304,-16.68,-11.94,8.16,123.0066,-0.4641,-0.2344,55.813965,37.500275,182.2743,0.2432,1857
0.026337,0.086194,9.811738,-0.000664,0.000514,0.001693,-16.68,-11.94,8.16,123.0066,-0.4641,-0.2344,55.813965,37.500275,182.2743,0.2432,1867
0.043097,0.071828,9.845258,0.001779,0.000514,0.001693,-15.06,-12.42,8.82,128.7597,-0.4636,-0.2306,55.813965,37.500275,182.2743,0.2432,1877
0.043097,0.071828,9.845258,-5.3E-05,0.001735,-0.000751,-15.06,-12.42,8.82,128.7597,-0.4636,-0.2306,55.813965,37.500275,182.2743,0.2432,1886
0.040703,0.088588,9.840469,-0.001275,-0.00193,-0.000751,-14.04,-13.32,10.32,128.7597,-0.4636,-0.2306,55.813965,37.500275,182.2743,0.2432,1897
0.035914,0.081405,9.823709,-0.000664,-9.7E-05,0.001082,-14.04,-13.32,10.32,128.7597,-0.4636,-0.2306,55.813965,37.500275,182.2743,0.2432,1907
0.03352,0.081405,9.850046,0.000558,-0.004373,0.000471,-12.84,-13.56,10.44,137.1949,-0.4628,-0.2325,55.81396,37.500267,183.455,0.3286,1916
0.023943,0.076617,9.862018,0.001169,-9.7E-05,0.001082,-12.84,-13.56,10.44,137.1949,-0.4628,-0.2325,55.81396,37.500267,183.455,0.3286,1927
0.023943,0.076617,9.862018,0.001779,0.001735,-0.000751,-11.1,-15.12,10.38,137.1949,-0.4628,-0.2325,55.81396,37.500267,183.455,0.3286,1936
0.05028,0.071828,9.840469,-0.003718,-9.7E-05,0.002304,-11.1,-15.12,10.38,137.1949,-0.4628,-0.2325,55.81396,37.500267,183.455,0.3286,1947
0.043097,0.064645,9.845258,-0.003718,-9.7E-05,0.002304,-9.9,-16.26,11.52,148.022,-0.4604,-0.2345,55.81396,37.500267,183.455,0.3286,1956
0.043097,0.071828,9.840469,0.000558,-0.00193,-0.000751,-9.9,-16.26,11.52,148.022,-0.4604,-0.2345,55.81396,37.500267,183.455,0.3286,1967
0.043097,0.071828,9.840469,-0.000664,-0.002541,0.000471,-7.92,-17.16,13.74,148.022,-0.4604,-0.2345,55.81396,37.500267,183.455,0.3286,1977
0.045491,0.086194,9.866806,-0.001275,-0.000708,-0.001972,-7.92,-17.16,13.74,148.022,-0.4604,-0.2345,55.81396,37.500267,183.455,0.3286,1986
0.047885,0.069434,9.840469,-0.000664,-0.000708,0.001082,-4.5,-20.7,16.8,169.0974,-0.4635,-0.2404,55.81396,37.500267,183.455,0.3286,1997
0.05028,0.076617,9.823709,-5.3E-05,-9.7E-05,0.002304,-4.5,-20.7,16.8,169.0974,-0.4635,-0.2404,55.81396,37.500267,183.455,0.3286,2007
0.05028,0.06704,9.842864,0.001169,0.001125,0.001693,-1.02,-23.7,20.52,169.0974,-0.4635,-0.2404,55.81396,37.500267,183.455,0.3286,2017
0.05028,0.06704,9.842864,-0.000664,-0.001319,-0.00014,-1.02,-23.7,20.52,169.0974,-0.4635,-0.2404,55.81396,37.500267,183.455,0.3286,2027
0.06704,0.081405,9.859624,-0.001275,-0.00193,0.001082,3.06,-27.9,25.38,185.8577,-0.4593,-0.2449,55.81396,37.500267,183.455,0.3286,2037
0.03352,0.071828,9.809344,-0.000664,0.000514,0.001693,3.06,-27.9,25.38,185.8577,-0.4593,-0.2449,55.81396,37.500267,183.455,0.3286,2047
0.021548,0.06704,9.857229,0.00239,0.002346,0.002914,8.22,-33.3,33.54,185.8577,-0.4593,-0.2449,55.81396,37.500267,183.455,0.3286,2057
0.038308,0.069434,9.857229,0.000558,-0.000708,0.003525,8.22,-33.3,33.54,185.8577,-0.4593,-0.2449,55.81396,37.500267,183.455,0.3286,2067
0.038308,0.069434,9.857229,0.00239,-9.7E-05,0.001693,11.28,-35.94,39.6,196.605,-0.4578,-0.2426,55.81396,37.500267,183.455,0.3286,2077
0.064645,0.076617,9.850046,-0.001886,0.001125,0.003525,11.28,-35.94,39.6,196.605,-0.4578,-0.2426,55.81396,37.500267,183.455,0.3286,2087
0.047885,0.0838,9.826104,0.003001,-0.001319,-0.000751,19.2,-44.22,65.52,196.605,-0.4578,-0.2426,55.81396,37.500267,183.455,0.3286,2097
0.038308,0.086194,9.828498,0.001169,0.000514,0.000471,19.2,-44.22,65.52,196.605,-0.4578,-0.2426,55.81396,37.500267,183.455,0.3286,2107
0.038308,0.086194,9.828498,-5.3E-05,0.002346,0.003525,26.34,-45.06,89.4,209.2781,-0.4589,-0.2384,55.81396,37.500267,183.455,0.3286,2117
0.040703,0.090982,9.821315,-0.000664,-9.7E-05,0.001082,26.34,-45.06,89.4,209.2781,-0.4589,-0.2384,55.81396,37.500267,183.455,0.3286,2127
0.040703,0.086194,9.821315,0.001169,0.002346,0.002914,32.82,-38.34,114.48,209.2781,-0.4589,-0.2384,55.81396,37.500267,183.455,0.3286,2137
0.026337,0.081405,9.804555,-0.000664,0.000514,-0.001972,32.82,-38.34,114.48,209.2781,-0.4589,-0.2384,55.81396,37.500267,183.455,0.3286,2147
0.045491,0.076617,9.816526,0.00239,-0.001319,0.001693,37.56,-23.46,136.68,237.211,-0.4615,-0.2434,55.81396,37.500267,183.455,0.3286,2157
0.045491,0.076617,9.816526,0.001779,-0.00193,0.001693,37.56,-23.46,136.68,237.211,-0.4615,-0.2434,55.81396,37.500267,183.455,0.3286,2167
0.021548,0.079011,9.830893,0.001779,-0.00193,0.001693,39.96,0.06,148.26,237.211,-0.4615,-0.2434,55.81396,37.500267,183.455,0.3286,2176
0.057463,0.057463,9.826104,0.000558,0.001125,0.001082,39.96,0.06,148.26,237.211,-0.4615,-0.2434,55.81396,37.500267,183.455,0.3286,2187
0.05028,0.064645,9.816526,-0.003718,-0.002541,-0.00014,38.22,25.08,143.28,302.5283,-0.46,-0.2419,55.81396,37.500267,183.455,0.3286,2197
0.05028,0.064645,9.816526,-5.3E-05,0.000514,0.002304,38.22,25.08,143.28,302.5283,-0.46,-0.2419,55.81396,37.500267,183.455,0.3286,2206
0.03352,0.055068,9.864412,-5.3E-05,-0.002541,0.004136,31.98,42.18,124.5,302.5283,-0.46,-0.2419,55.81396,37.500267,183.455,0.3286,2217
0.052674,0.059857,9.833286,-0.001275,-0.000708,0.001693,28.32,46.62,112.56,302.5283,-0.46,-0.2419,55.81396,37.500267,183.455,0.3286,2227
0.03352,0.10056,9.826104,-0.003718,0.001125,0.001693,28.32,46.62,112.56,302.5283,-0.46,-0.2419,55.81396,37.500267,183.455,0.3286,2237
0.035914,0.074223,9.811738,-0.000664,0.002346,-0.000751,22.08,49.8,88.02,336.3138,-0.4602,-0.2453,55.81396,37.500267,183.455,0.3286,2247
0.045491,0.074223,9.864412,0.000558,-0.001319,-0.000751,22.08,49.8,88.02,336.3138,-0.4602,-0.2453,55.81396,37.500267,183.455,0.3286,2257
0.045491,0.074223,9.864412,-0.001886,-0.00193,-0.000751,17.58,47.64,66.96,336.3138,-0.4602,-0.2453,55.81396,37.500267,183.455,0.3286,2267
0.03352,0.0838,9.847652,-0.001275,-0.002541,0.002304,17.58,47.64,66.96,336.3138,-0.4602,-0.2453,55.81396,37.500267,183.455,0.3286,2277
0.045491,0.06704,9.821315,0.00239,-9.7E-05,0.001082,13.56,43.32,51.24,342.07,-0.4577,-0.2458,55.81396,37.500267,183.455,0.3286,2287
0.028731,0.081405,9.833286,-0.001886,0.002346,-0.001362,13.56,43.32,51.24,342.07,-0.4577,-0.2458,55.81396,37.500267,183.455,0.3286,2297
0.028731,0.081405,9.833286,-0.000664,0.001125,0.001693,10.62,38.52,40.62,342.07,-0.4577,-0.2458,55.81396,37.500267,183.455,0.3286,2307
0.038308,0.074223,9.857229,0.000558,-0.000708,-0.00014,10.62,38.52,40.62,342.07,-0.4577,-0.2458,55.81396,37.500267,183.455,0.3286,2316
0.038308,0.06704,9.862018,-0.001275,0.000514,-0.000751,8.52,34.56,32.82,345.6971,-0.4544,-0.2495,55.81396,37.500267,183.455,0.3286,2327
0.035914,0.06704,9.818921,-5.3E-05,-9.7E-05,0.003525,8.52,34.56,32.82,345.6971,-0.4544,-0.2495,55.81396,37.500267,183.455,0.3286,2337
0.038308,0.093377,9.818921,0.00239,-0.000708,0.002914,7.38,31.68,26.7,345.6971,-0.4544,-0.2495,55.81396,37.500267,183.455,0.3286,2347
0.038308,0.093377,9.818921,-0.000664,-9.7E-05,0.002914,7.38,31.68,26.7,345.6971,-0.4544,-0.2495,55.81396,37.500267,183.455,0.3286,2357
0.045491,0.079011,9.835681,-0.000664,0.000514,0.002914,6.3,28.32,22.26,348.0196,-0.4529,-0.2486,55.81396,37.500267,183.455,0.3286,2366
0.043097,0.090982,9.845258,-0.000664,0.000514,0.002914,6.3,28.32,22.26,348.0196,-0.4529,-0.2486,55.81396,37.500267,183.455,0.3286,2376
0.040703,0.086194,9.833286,-0.001886,0.001735,0.001082,5.04,26.82,19.26,348.0196,-0.4529,-0.2486,55.81396,37.500267,183.455,0.3286,2387
0.03352,0.074223,9.809344,-0.001275,0.001125,0.001693,5.04,26.82,19.26,348.0196,-0.4529,-0.2486,55.81396,37.500267,183.455,0.3286,2397
0.03352,0.074223,9.809344,0.000558,-9.7E-05,-0.000751,5.16,26.16,18,349.2236,-0.4479,-0.2491,55.81396,37.500267,183.455,0.3286,2406
0.026337,0.088588,9.823709,0.001169,-0.002541,0.000471,5.16,26.16,18,349.2236,-0.4479,-0.2491,55.81396,37.500267,183.455,0.3286,2417
0.040703,0.086194,9.850046,0.001779,-9.7E-05,-0.000751,6.6,25.56,16.8,349.2236,-0.4479,-0.2491,55.81396,37.500267,183.455,0.3286,2427
0.045491,0.076617,9.823709,0.004834,-9.7E-05,0.000471,6.6,25.56,16.8,349.2236,-0.4479,-0.2491,55.81396,37.500267,183.455,0.3286,2437
0.045491,0.076617,9.823709,0.001169,-0.001319,0.001693,7.38,26.4,15.6,345.0076,-0.4465,-0.2528,55.81396,37.500267,183.455,0.3286,2447
0.045491,0.105348,9.821315,-0.002497,0.002957,-0.001972,7.38,26.4,15.6,345.0076,-0.4465,-0.2528,55.81396,37.500267,183.455,0.3286,2457
0.043097,0.071828,9.828498,-5.3E-05,0.001125,-0.001972,8.22,28.32,14.82,345.0076,-0.4465,-0.2528,55.81396,37.500267,183.455,0.3286,2467
0.043097,0.088588,9.842864,0.000558,-9.7E-05,0.001082,8.22,28.32,14.82,345.0076,-0.4465,-0.2528,55.81396,37.500267,183.455,0.3286,2477
0.038308,0.06704,9.821315,-0.001886,0.001125,-0.000751,10.08,31.2,15,342.1672,-0.4509,-0.2509,55.81396,37.500267,183.455,0.3286,2487
0.038308,0.06704,9.821315,0.001169,-0.001319,0.000471,10.08,31.2,15,342.1672,-0.4509,-0.2509,55.81396,37.500267,183.455,0.3286,2497
0.040703,0.093377,9.802161,-0.001275,-0.001319,0.001693,12.66,33.84,15.3,342.1672,-0.4509,-0.2509,55.81396,37.500267,183.455,0.3286,2507
0.057463,0.086194,9.850046,-0.001275,-0.001319,0.001693,12.66,33.84,15.3,342.1672,-0.4509,-0.2509,55.81396,37.500267,183.455,0.3286,2516
0.040703,0.079011,9.864412,-0.002497,-0.001319,0.001082,16.14,37.2,14.7,336.6286,-0.4629,-0.243,55.81396,37.500267,183.455,0.3286,2527
0.040703,0.079011,9.864412,-5.3E-05,0.001735,0.000471,16.14,37.2,14.7,336.6286,-0.4629,-0.243,55.81396,37.500267,183.455,0.3286,2538
0.045491,0.081405,9.818921,-5.3E-05,-0.000708,0.001082,20.88,40.86,15.6,336.6286,-0.4629,-0.243,55.81396,37.500267,183.455,0.3286,2547
0.026337,0.076617,9.854836,0.001779,0.000514,0.000471,20.88,40.86,15.6,336.6286,-0.4629,-0.243,55.81396,37.500267,183.455,0.3286,2557
0.047885,0.079011,9.857229,-0.000664,0.001125,-0.00014,25.74,44.22,17.64,329.4097,-0.4648,-0.2418,55.81396,37.500267,183.455,0.3286,2566
0.035914,0.076617,9.854836,-0.001275,-0.001319,0.001693,27.42,46.08,17.94,329.4097,-0.4648,-0.2418,55.81396,37.500267,183.455,0.3286,2577
0.035914,0.076617,9.854836,-0.003107,-0.000708,0.000471,27.42,46.08,17.94,329.4097,-0.4648,-0.2418,55.81396,37.500267,183.455,0.3286,2587
0.043097,0.090982,9.826104,0.003001,-9.7E-05,0.001693,30.96,47.46,18.78,329.4097,-0.4648,-0.2418,55.81396,37.500267,183.455,0.3286,2597
0.05028,0.069434,9.833286,-5.3E-05,-0.001319,0.000471,30.96,47.46,18.78,329.4097,-0.4648,-0.2418,55.81396,37.500267,183.455,0.3286,2607
0.047885,0.0838,9.842864,0.003612,0.001735,0.001082,34.2,46.2,20.64,323.496,-0.4623,-0.229,55.81396,37.500267,183.455,0.3286,2617
0.047885,0.0838,9.842864,0.003612,0.001735,0.001082,34.2,46.2,20.64,323.496,-0.4623,-0.229,55.81396,37.500267,183.455,0.3286,2627
0.043097,0.086194,9.840469,0.001169,-9.7E-05,0.001693,35.7,43.56,21.84,323.496,-0.4623,-0.229,55.81396,37.500267,183.455,0.3286,2637
0.045491,0.071828,9.826104,-0.001886,-0.000708,-0.000751,35.7,43.56,21.84,323.496,-0.4623,-0.229,55.81396,37.500267,183.455,0.3286,2647
0.043097,0.06704,9.823709,0.001779,-0.001319,0.001082,35.16,38.76,22.38,318.0349,-0.4583,-0.2273,55.81396,37.500267,183.455,0.3286,2658
0.045491,0.093377,9.816526,-0.000664,0.000514,0.001082,35.16,38.76,22.38,318.0349,-0.4583,-0.2273,55.81396,37.500267,183.455,0.3286,2667
0.028731,0.093377,9.840469,-0.001886,-0.000708,-0.000751,33.06,32.82,22.38,318.0349,-0.4583,-0.2273,55.81396,37.500267,183.455,0.3286,2677
0.028731,0.093377,9.840469,-5.3E-05,-0.001319,0.002304,33.06,32.82,22.38,318.0349,-0.4583,-0.2273,55.81396,37.500267,183.455,0.3286,2687
0.043097,0.074223,9.811738,-0.000664,-0.000708,0.001693,28.92,26.34,21.78,311.7688,-0.4596,-0.2292,55.81396,37.500267,183.455,0.3286,2697
0.05028,0.086194,9.816526,-0.000664,-0.000708,0.001693,28.92,26.34,21.78,311.7688,-0.4596,-0.2292,55.81396,37.500267,183.455,0.3286,2706
0.035914,0.079011,9.818921,-0.001886,-9.7E-05,-0.000751,23.58,20.04,20.76,311.7688,-0.4596,-0.2292,55.81396,37.500267,183.455,0.3286,2717
0.035914,0.069434,9.821315,0.001169,0.001735,-0.00014,21.12,16.5,19.44,311.7688,-0.4596,-0.2292,55.81396,37.500267,183.455,0.3286,2727
0.035914,0.069434,9.821315,0.001779,0.000514,-0.000751,21.12,16.5,19.44,311.7688,-0.4596,-0.2292,55.81396,37.500267,183.455,0.3286,2736
0.040703,0.079011,9.828498,-0.004329,0.000514,0.001693,15.18,10.92,17.34,306.0455,-0.4515,-0.2364,55.81396,37.500267,183.455,0.3286,2747
0.035914,0.062251,9.823709,-0.003107,-0.001319,0.000471,15.18,10.92,17.34,306.0455,-0.4515,-0.2364,55.81396,37.500267,183.455,0.3286,2757
0.045491,0.06704,9.821315,0.001779,-9.7E-05,0.000471,9.78,6.18,15.36,306.0455,-0.4515,-0.2364,55.81396,37.500267,183.455,0.3286,2767
0.045491,0.06704,9.821315,0.000558,0.001735,0.001082,7.86,4.14,14.64,306.0455,-0.4515,-0.2364,55.81396,37.500267,183.455,0.3286,2777
0.040703,0.079011,9.811738,-0.001275,0.000514,0.002304,7.86,4.14,14.64,306.0455,-0.4515,-0.2364,55.81396,37.500267,183.455,0.3286,2786
0.040703,0.06704,9.847652,0.001779,0.001125,0.002914,4.14,1.44,14.1,282.7191,-0.4511,-0.2395,55.81396,37.500267,183.455,0.3286,2797
0.038308,0.069434,9.835681,-5.3E-05,0.002346,0.000471,4.14,1.44,14.1,282.7191,-0.4511,-0.2395,55.81396,37.500267,183.455,0.3286,2807
0.038308,0.069434,9.835681,-5.3E-05,0.001125,-0.000751,1.32,-0.66,13.26,282.7191,-0.4511,-0.2395,55.81396,37.500267,183.455,0.3286,2817
0.03352,0.071828,9.835681,-5.3E-05,0.001125,-0.000751,1.32,-0.66,13.26,282.7191,-0.4511,-0.2395,55.81396,37.500267,183.455,0.3286,2827
0.021548,0.064645,9.864412,0.001169,0.001125,0.001082,-1.38,-2.76,11.82,161.2768,-0.4482,-0.2319,55.81396,37.500267,183.455,0.3286,2837
0.045491,0.088588,9.799767,-5.3E-05,-9.7E-05,0.000471,-1.38,-2.76,11.82,161.2768,-0.4482,-0.2319,55.81396,37.500267,183.455,0.3286,2847
0.045491,0.088588,9.804555,0.000558,0.002957,-0.00014,-3.9,-3.84,11.28,161.2768,-0.4482,-0.2319,55.81396,37.500267,183.455,0.3286,2858
0.045491,0.088588,9.804555,-5.3E-05,-0.00193,-0.000751,-3.9,-3.84,11.28,161.2768,-0.4482,-0.2319,55.81396,37.500267,183.455,0.3286,2867
0.026337,0.0838,9.809344,-5.3E-05,-0.00193,-0.000751,-3.9,-3.84,11.28,161.2768,-0.4482,-0.2319,55.81396,37.500267,183.455,0.3286,2876
0.05028,0.071828,9.835681,0.000558,-9.7E-05,-0.00014,-5.52,-5.58,10.98,135.186,-0.4384,-0.2317,55.81396,37.500267,183.455,0.3286,2887
0.05028,0.071828,9.835681,0.000558,0.001125,0.002304,-6.84,-6.66,10.38,135.186,-0.4384,-0.2317,55.813946,37.500298,181.0085,0.3152,2897
0.057463,0.071828,9.866806,-0.001886,-0.003151,0.000471,-6.84,-6.66,10.38,135.186,-0.4384,-0.2317,55.813946,37.500298,181.0085,0.3152,2907
0.038308,0.086194,9.93624,-0.002497,-0.003762,-0.001972,-7.74,-7.14,10.2,135.186,-0.4384,-0.2317,55.813946,37.500298,181.0085,0.3152,2917
0.031126,0.076617,9.885961,0.000558,-0.004373,-0.00014,-7.74,-7.14,10.2,135.186,-0.4384,-0.2317,55.813946,37.500298,181.0085,0.3152,2926
0.040703,0.076617,9.873989,0.000558,-0.004373,0.001082,-8.7,-8.46,10.02,131.7722,-0.4341,-0.2325,55.813946,37.500298,181.0085,0.3152,2937
0.040703,0.076617,9.873989,-0.001275,0.001125,0.000471,-8.7,-8.46,10.02,131.7722,-0.4341,-0.2325,55.813946,37.500298,181.0085,0.3152,2946
0.052674,0.074223,9.883567,-0.001275,0.001125,0.000471,-8.88,-9.66,9.36,131.7722,-0.4341,-0.2325,55.813946,37.500298,181.0085,0.3152,2957
0.043097,0.086194,9.862018,-0.000664,-0.001319,0.003525,-8.88,-9.66,9.36,131.7722,-0.4341,-0.2325,55.813946,37.500298,181.0085,0.3152,2966
0.055068,0.0838,9.878778,0.001779,0.000514,0.002914,-9.66,-11.28,9.36,137.7982,-0.436,-0.232,55.813946,37.500298,181.0085,0.3152,2977
0.055068,0.0838,9.878778,-0.001275,-0.002541,0.000471,-9.66,-11.28,9.36,137.7982,-0.436,-0.232,55.813946,37.500298,181.0085,0.3152,2986
0.031126,0.086194,9.871595,0.000558,0.000514,0.002304,-11.28,-12.6,9.42,137.7982,-0.436,-0.232,55.813946,37.500298,181.0085,0.3152,2997
0.031126,0.079011,9.840469,-0.000664,-0.000708,-0.001362,-11.28,-12.6,9.42,137.7982,-0.436,-0.232,55.813946,37.500298,181.0085,0.3152,3007
0.03352,0.093377,9.912297,0.001169,0.001735,-0.000751,-11.7,-13.92,9,139.4502,-0.4449,-0.238,55.813946,37.500298,181.0085,0.3152,3017
0.023943,0.090982,9.885961,0.001169,-0.004373,-0.00014,-11.7,-13.92,9,139.4502,-0.4449,-0.238,55.813946,37.500298,181.0085,0.3152,3027
0.038308,0.062251,9.900327,-0.001275,-0.002541,0.001693,-13.2,-16.14,8.34,139.4502,-0.4449,-0.238,55.813946,37.500298,181.0085,0.3152,3037
0.038308,0.062251,9.900327,-5.3E-05,0.001125,0.000471,-13.2,-16.14,8.34,139.4502,-0.4449,-0.238,55.813946,37.500298,181.0085,0.3152,3046
0.052674,0.095771,9.859624,0.001779,-0.006206,-0.00014,-15.6,-18.18,6.36,138.3957,-0.4505,-0.2356,55.813946,37.500298,181.0085,0.3152,3057
0.035914,0.088588,9.883567,0.00239,0.001735,0.001082,-15.6,-18.18,6.36,138.3957,-0.4505,-0.2356,55.813946,37.500298,181.0085,0.3152,3067
0.047885,0.081405,9.876384,0.000558,-0.001319,0.002304,-17.46,-19.74,5.94,138.3957,-0.4505,-0.2356,55.813946,37.500298,181.0085,0.3152,3077
0.045491,0.076617,9.890749,-0.001886,0.000514,-0.002583,-17.46,-19.74,5.94,138.3957,-0.4505,-0.2356,55.813946,37.500298,181.0085,0.3152,3087
0.045491,0.076617,9.890749,-0.001886,0.000514,-0.002583,-19.86,-20.7,6.24,136.4249,-0.4531,-0.2361,55.813946,37.500298,181.0085,0.3152,3096
0.05028,0.079011,9.866806,-0.000664,-9.7E-05,0.001082,-19.86,-20.7,6.24,136.4249,-0.4531,-0.2361,55.813946,37.500298,181.0085,0.3152,3107
0.023943,0.076617,9.869201,-0.000664,-9.7E-05,0.001082,-23.04,-21.24,4.8,136.4249,-0.4531,-0.2361,55.813946,37.500298,181.0085,0.3152,3116
0.038308,0.071828,9.852441,0.00239,-0.00193,0.000471,-23.04,-21.24,4.8,136.4249,-0.4531,-0.2361,55.813946,37.500298,181.0085,0.3152,3127
0.035914,0.086194,9.869201,-5.3E-05,-0.000708,-0.001972,-26.4,-21.18,3.9,128.9501,-0.4547,-0.2389,55.813946,37.500298,181.0085,0.3152,3137
0.035914,0.086194,9.869201,-5.3E-05,-0.000708,-0.000751,-26.4,-21.18,3.9,128.9501,-0.4547,-0.2389,55.813946,37.500298,181.0085,0.3152,3147
0.05028,0.076617,9.871595,-0.002497,-0.002541,-0.000751,-29.4,-20.94,4.62,128.9501,-0.4547,-0.2389,55.813946,37.500298,181.0085,0.3152,3157
0.026337,0.076617,9.857229,-0.002497,-0.002541,-0.001362,-29.4,-20.94,4.62,128.9501,-0.4547,-0.2389,55.813946,37.500298,181.0085,0.3152,3167
0.023943,0.076617,9.835681,0.001169,-9.7E-05,0.000471,-32.7,-19.92,4.44,121.2443,-0.4535,-0.2308,55.813946,37.500298,181.0085,0.3152,3177
0.03352,0.079011,9.859624,-0.001886,-0.00193,0.000471,-32.7,-19.92,4.44,121.2443,-0.4535,-0.2308,55.813946,37.500298,181.0085,0.3152,3187
0.03352,0.079011,9.859624,0.000558,-9.7E-05,0.000471,-35.46,-18.66,3.3,121.2443,-0.4535,-0.2308,55.813946,37.500298,181.0085,0.3152,3197
0.031126,0.0838,9.859624,-0.001886,-0.00193,0.001693,-35.46,-18.66,3.3,121.2443,-0.4535,-0.2308,55.813946,37.500298,181.0085,0.3152,3207
0.028731,0.071828,9.873989,-0.003107,0.001735,-0.00014,-36.48,-17.28,3.72,115.3068,-0.4492,-0.2265,55.813946,37.500298,181.0085,0.3152,3217
0.055068,0.088588,9.862018,0.001169,0.001735,-0.000751,-36.48,-17.28,3.72,115.3068,-0.4492,-0.2265,55.813946,37.500298,181.0085,0.3152,3227
0.055068,0.088588,9.862018,0.00239,0.000514,0.001082,-36.42,-15.24,4.02,115.3068,-0.4492,-0.2265,55.813946,37.500298,181.0085,0.3152,3237
0.035914,0.088588,9.873989,-0.000664,-9.7E-05,-0.002583,-36.48,-14.22,3.36,115.3068,-0.4492,-0.2265,55.813946,37.500298,181.0085,0.3152,3247
0.045491,0.074223,9.835681,-0.000664,-9.7E-05,-0.002583,-36.48,-14.22,3.36,115.3068,-0.4492,-0.2265,55.813946,37.500298,181.0085,0.3152,3257
0.03352,0.076617,9.838076,0.000558,-0.001319,-0.003194,-36.9,-13.02,3.3,109.3842,-0.4554,-0.2237,55.813946,37.500298,181.0085,0.3152,3267
0.03352,0.076617,9.838076,0.001169,0.001735,0.000471,-36.9,-13.02,3.3,109.3842,-0.4554,-0.2237,55.813946,37.500298,181.0085,0.3152,3277
0.03352,0.079011,9.862018,-0.003107,-0.002541,-0.001362,-35.76,-11.58,3,109.3842,-0.4554,-0.2237,55.813946,37.500298,181.0085,0.3152,3286
0.062251,0.093377,9.854836,0.00239,-0.001319,0.001693,-35.76,-11.58,3,109.3842,-0.4554,-0.2237,55.813946,37.500298,181.0085,0.3152,3297
0.05028,0.057463,9.864412,-0.001886,-0.001319,-0.000751,-34.68,-9.66,3.66,105.9846,-0.4552,-0.2278,55.813946,37.500298,181.0085,0.3152,3307
0.05028,0.057463,9.864412,-0.001886,0.002346,0.000471,-34.68,-9.66,3.66,105.9846,-0.4552,-0.2278,55.813946,37.500298,181.0085,0.3152,3316
0.059857,0.086194,9.854836,-5.3E-05,-0.00193,0.001082,-34.38,-7.92,4.86,105.9846,-0.4552,-0.2278,55.813946,37.500298,181.0085,0.3152,3327
0.038308,0.079011,9.835681,0.001169,0.001125,0.001693,-34.38,-7.92,4.86,105.9846,-0.4552,-0.2278,55.813946,37.500298,181.0085,0.3152,3337
0.045491,0.098165,9.854836,0.001169,0.001125,0.001693,-33.96,-7.14,4.98,101.6891,-0.4563,-0.2337,55.813946,37.500298,181.0085,0.3152,3347
0.026337,0.069434,9.864412,0.000558,-0.002541,0.001082,-33.96,-7.14,4.98,101.6891,-0.4563,-0.2337,55.813946,37.500298,181.0085,0.3152,3357
0.045491,0.071828,9.842864,0.000558,0.006012,-0.00014,-32.52,-6.6,4.26,101.6891,-0.4563,-0.2337,55.813946,37.500298,181.0085,0.3152,3367
0.045491,0.071828,9.842864,0.001779,-0.002541,0.000471,-32.52,-6.6,4.26,101.6891,-0.4563,-0.2337,55.813946,37.500298,181.0085,0.3152,3376
0.05028,0.098165,9.852441,-0.001275,0.001735,0.001693,-31.74,-5.76,5.22,100.68,-0.4588,-0.2395,55.813946,37.500298,181.0085,0.3152,3387
0.035914,0.074223,9.857229,-0.000664,0.000514,-0.001362,-31.74,-5.76,5.22,100.68,-0.4588,-0.2395,55.813946,37.500298,181.0085,0.3152,3397
0.035914,0.074223,9.857229,-0.001275,-0.003151,0.000471,-31.26,-5.52,5.94,100.68,-0.4588,-0.2395,55.813946,37.500298,181.0085,0.3152,3407
0.047885,0.079011,9.854836,-5.3E-05,-9.7E-05,0.001693,-31.26,-5.52,5.94,100.68,-0.4588,-0.2395,55.813946,37.500298,181.0085,0.3152,3418
0.052674,0.088588,9.814133,-0.000664,-9.7E-05,0.002914,-30.78,-5.28,5.58,99.2399,-0.4619,-0.2435,55.813946,37.500298,181.0085,0.3152,3427
0.047885,0.079011,9.814133,0.000558,-0.001319,0.000471,-30.78,-5.28,5.58,99.2399,-0.4619,-0.2435,55.813946,37.500298,181.0085,0.3152,3437
0.019154,0.088588,9.821315,-0.000664,-0.00193,-0.000751,-30.66,-4.62,6.12,99.2399,-0.4619,-0.2435,55.813946,37.500298,181.0085,0.3152,3446
0.019154,0.088588,9.821315,-0.000664,-0.00193,-0.000751,-30.66,-4.62,6.12,99.2399,-0.4619,-0.2435,55.813946,37.500298,181.0085,0.3152,3457
0.028731,0.074223,9.818921,-0.000664,-0.00193,-0.003194,-30.66,-4.26,6.54,97.4457,-0.461,-0.2406,55.813946,37.500298,181.0085,0.3152,3467
0.047885,0.081405,9.823709,0.000558,-0.001319,0.002304,-30.66,-4.26,6.54,97.4457,-0.461,-0.2406,55.813946,37.500298,181.0085,0.3152,3477
0.043097,0.069434,9.821315,-0.001275,-0.001319,0.001082,-30.84,-4.56,7.02,97.4457,-0.461,-0.2406,55.813946,37.500298,181.0085,0.3152,3487
0.043097,0.069434,9.821315,0.000558,0.002346,-0.003194,-30.84,-4.56,7.02,97.4457,-0.461,-0.2406,55.813946,37.500298,181.0085,0.3152,3497
0.040703,0.074223,9.818921,-0.001275,-0.002541,0.002914,-30.66,-4.5,6.54,97.4466,-0.4657,-0.2435,55.813946,37.500298,181.0085,0.3152,3507
0.045491,0.064645,9.816526,-0.000664,-0.004984,0.001082,-30.66,-4.5,6.54,97.4466,-0.4657,-0.2435,55.813946,37.500298,181.0085,0.3152,3517
0.043097,0.081405,9.845258,-0.001275,-9.7E-05,-0.002583,-30.36,-4.02,6.06,97.4466,-0.4657,-0.2435,55.813946,37.500298,181.0085,0.3152,3527
0.038308,0.086194,9.830893,-0.000664,0.003568,0.000471,-30.36,-4.02,6.06,97.4466,-0.4657,-0.2435,55.813946,37.500298,181.0085,0.3152,3537
0.038308,0.086194,9.830893,-0.001275,-0.001319,-0.001972,-30.78,-4.32,6.36,97.4318,-0.4608,-0.2469,55.813946,37.500298,181.0085,0.3152,3546
0.038308,0.071828,9.809344,-5.3E-05,-0.000708,0.001693,-30.78,-4.32,6.36,97.4318,-0.4608,-0.2469,55.813946,37.500298,181.0085,0.3152,3557
0.040703,0.079011,9.840469,0.001169,0.000514,0.004136,-31.08,-5.22,6.18,97.4318,-0.4608,-0.2469,55.813946,37.500298,181.0085,0.3152,3567
0.038308,0.086194,9.802161,-0.002497,-0.000708,0.001082,-31.08,-5.22,6.18,97.4318,-0.4608,-0.2469,55.813946,37.500298,181.0085,0.3152,3577
0.038308,0.086194,9.802161,-0.002497,-0.000708,0.001082,-31.68,-6.06,6.3,100.6918,-0.4571,-0.2477,55.813946,37.500298,181.0085,0.3152,3587
0.05028,0.076617,9.814133,-0.000664,0.000514,-0.000751,-31.68,-6.06,6.3,100.6918,-0.4571,-0.2477,55.813946,37.500298,181.0085,0.3152,3597
0.043097,0.06704,9.830893,-0.000664,0.000514,-0.00014,-33.24,-6.66,6.6,100.6918,-0.4571,-0.2477,55.813946,37.500298,181.0085,0.3152,3607
0.040703,0.081405,9.842864,0.001169,0.001125,0.003525,-33.24,-6.66,6.6,100.6918,-0.4571,-0.2477,55.813946,37.500298,181.0085,0.3152,3616
0.028731,0.074223,9.833286,0.000558,-0.001319,0.000471,-34.68,-7.2,6.18,101.3748,-0.4558,-0.2459,55.813946,37.500298,181.0085,0.3152,3627
0.028731,0.074223,9.833286,-0.000664,-0.003762,-0.001362,-34.68,-7.2,6.18,101.3748,-0.4558,-0.2459,55.813946,37.500298,181.0085,0.3152,3636
0.040703,0.081405,9.823709,-0.000664,-0.001319,-0.001972,-35.64,-7.92,4.86,101.3748,-0.4558,-0.2459,55.813946,37.500298,181.0085,0.3152,3648
0.057463,0.081405,9.845258,0.003612,0.001125,0.000471,-35.64,-7.92,4.86,101.3748,-0.4558,-0.2459,55.813946,37.500298,181.0085,0.3152,3657
0.035914,0.076617,9.840469,0.000558,-0.004984,0.001082,-36.3,-9.36,4.08,104.0754,-0.4572,-0.2463,55.813946,37.500298,181.0085,0.3152,3667
0.028731,0.0838,9.833286,-0.001275,0.000514,0.001693,-36.3,-9.36,4.08,104.0754,-0.4572,-0.2463,55.813946,37.500298,181.0085,0.3152,3677
0.028731,0.0838,9.833286,-5.3E-05,-0.001319,-0.00014,-37.38,-12.3,4.56,104.0754,-0.4572,-0.2463,55.813946,37.500298,181.0085,0.3152,3687
0.055068,0.074223,9.873989,0.000558,-0.001319,0.004747,-37.38,-12.3,4.56,104.0754,-0.4572,-0.2463,55.813946,37.500298,181.0085,0.3152,3697
0.038308,0.076617,9.859624,-5.3E-05,0.004179,0.000471,-38.16,-14.22,3.6,110.2564,-0.4545,-0.2472,55.813946,37.500298,181.0085,0.3152,3706
0.038308,0.076617,9.859624,-0.001886,0.001735,-0.000751,-38.16,-14.22,3.6,110.2564,-0.4545,-0.2472,55.813946,37.500298,181.0085,0.3152,3717
0.026337,0.081405,9.859624,0.001169,0.001125,-0.000751,-39.24,-15.42,2.1,110.2564,-0.4545,-0.2472,55.813946,37.500298,181.0085,0.3152,3727
0.031126,0.062251,9.835681,-0.002497,0.001125,-0.003194,-39.24,-15.42,2.1,110.2564,-0.4545,-0.2472,55.813946,37.500298,181.0085,0.3152,3737
0.043097,0.088588,9.838076,-0.001275,-0.001319,0.000471,-39.18,-17.34,1.8,113.5651,-0.4594,-0.2563,55.813946,37.500298,181.0085,0.3152,3747
0.043097,0.088588,9.838076,0.001169,0.001125,-0.00014,-39.18,-17.34,1.8,113.5651,-0.4594,-0.2563,55.813946,37.500298,181.0085,0.3152,3757
0.05028,0.076617,9.873989,0.000558,-0.001319,-0.000751,-38.04,-19.14,2.16,113.5651,-0.4594,-0.2563,55.813946,37.500298,181.0085,0.3152,3767
0.03352,0.079011,9.864412,-5.3E-05,0.000514,0.001082,-38.04,-19.14,2.16,113.5651,-0.4594,-0.2563,55.813946,37.500298,181.0085,0.3152,3776
0.040703,0.069434,9.866806,-5.3E-05,-0.001319,0.000471,-36.9,-20.94,1.98,119.5884,-0.4563,-0.2575,55.813946,37.500298,181.0085,0.3152,3787
0.045491,0.086194,9.850046,-5.3E-05,-0.001319,0.000471,-36.9,-20.94,1.98,119.5884,-0.4563,-0.2575,55.813946,37.500298,181.0085,0.3152,3797
0.045491,0.086194,9.850046,0.004223,-0.000708,0.002304,-34.8,-21.66,1.26,119.5884,-0.4563,-0.2575,55.813946,37.500298,181.0085,0.3152,3807
0.047885,0.071828,9.859624,-0.000664,-0.000708,0.000471,-34.8,-21.66,1.26,119.5884,-0.4563,-0.2575,55.813946,37.500298,181.0085,0.3152,3817
0.031126,0.0838,9.881172,0.00239,0.001125,-0.00014,-33,-22.2,1.14,123.6941,-0.4529,-0.2505,55.813946,37.500298,181.0085,0.3152,3828
0.03352,0.071828,9.878778,-0.001886,-9.7E-05,-0.003194,-33,-22.2,1.14,123.6941,-0.4529,-0.2505,55.813946,37.500298,181.0085,0.3152,3837
0.021548,0.093377,9.871595,0.000558,0.001735,0.004747,-30.6,-22.8,2.4,123.6941,-0.4529,-0.2505,55.813946,37.500298,181.0085,0.3152,3847
0.035914,0.076617,9.888355,-0.001886,0.003568,0.001082,-30.6,-22.8,2.4,123.6941,-0.4529,-0.2505,55.813946,37.500298,181.0085,0.3152,3857
0.035914,0.076617,9.888355,0.000558,0.000514,-0.001362,-28.32,-23.4,2.76,129.4147,-0.4517,-0.2483,55.813946,37.500298,181.0085,0.3152,3866
0.040703,0.0838,9.862018,-5.3E-05,0.001125,0.000471,-28.32,-23.4,2.76,129.4147,-0.4517,-0.2483,55.813946,37.500298,181.0085,0.3152,3877
0.03352,0.071828,9.881172,0.000558,0.001735,0.000471,-26.4,-23.22,2.7,129.4147,-0.4517,-0.2483,55.813946,37.500298,181.0085,0.3152,3886
0.03352,0.071828,9.881172,0.000558,0.001735,0.000471,-25.08,-22.92,3.18,129.4147,-0.4517,-0.2483,55.813946,37.500298,168.8667,0,3897
0.043097,0.071828,9.881172,-5.3E-05,0.000514,-0.000751,-25.08,-22.92,3.18,129.4147,-0.4517,-0.2483,55.81389,37.500305,168.8667,0,3907
0.043097,0.071828,9.881172,-5.3E-05,0.000514,-0.000751,-25.08,-22.92,3.18,129.4147,-0.4517,-0.2483,55.81389,37.500305,168.8667,0,3917
0.040703,0.081405,9.871595,0.000558,-0.004984,-0.001362,-23.7,-23.16,2.52,133.7946,-0.4586,-0.2358,55.81389,37.500305,168.8667,0,3927
0.031126,0.06704,9.852441,-0.003107,-9.7E-05,0.001082,-23.94,-23.52,2.52,133.7946,-0.4586,-0.2358,55.81389,37.500305,168.8667,0,3937
0.05028,0.088588,9.847652,-5.3E-05,0.000514,-0.000751,-23.16,-23.22,3,133.7946,-0.4586,-0.2358,55.81389,37.500305,168.8667,0,3947
0.031126,0.069434,9.852441,-0.000664,0.001735,0.000471,-23.16,-23.22,3,133.7946,-0.4586,-0.2358,55.81389,37.500305,168.8667,0,3957
0.031126,0.069434,9.852441,-0.001275,0.001125,-0.003194,-22.2,-24.72,2.52,138.6622,-0.4644,-0.238,55.81389,37.500305,168.8667,0,3967
0.03352,0.079011,9.845258,-0.002497,-0.000708,-0.001362,-22.2,-24.72,2.52,138.6622,-0.4644,-0.238,55.81389,37.500305,168.8667,0,3976
0.055068,0.081405,9.842864,-5.3E-05,-9.7E-05,0.001693,-22.44,-26.88,0.6,138.6622,-0.4644,-0.238,55.81389,37.500305,168.8667,0,3987
0.043097,0.088588,9.840469,-0.000664,-0.00193,0.001082,-22.44,-26.88,0.6,138.6622,-0.4644,-0.238,55.81389,37.500305,168.8667,0,3996
0.043097,0.088588,9.840469,-0.000664,0.001125,0.002914,-22.56,-28.2,0.54,140.6009,-0.4611,-0.2368,55.81389,37.500305,168.8667,0,4007
0.043097,0.076617,9.847652,0.000558,-0.003151,0.002914,-22.56,-28.2,0.54,140.6009,-0.4611,-0.2368,55.81389,37.500305,168.8667,0,4016
0.05028,0.074223,9.876384,0.000558,-0.002541,0.001693,-22.44,-29.58,1.74,140.6009,-0.4611,-0.2368,55.81389,37.500305,168.8667,0,4027
0.040703,0.079011,9.873989,0.001169,0.000514,0.002914,-22.44,-29.58,1.74,140.6009,-0.4611,-0.2368,55.81389,37.500305,168.8667,0,4037
0.040703,0.079011,9.873989,0.001169,0.000514,0.002914,-21.48,-31.14,2.22,145.8876,-0.4589,-0.2367,55.81389,37.500305,168.8667,0,4047
0.035914,0.069434,9.869201,-5.3E-05,-0.000708,-0.003194,-21.48,-31.14,2.22,145.8876,-0.4589,-0.2367,55.81389,37.500305,168.8667,0,4057
0.045491,0.079011,9.852441,0.000558,-9.7E-05,-0.000751,-19.56,-30.54,1.92,145.8876,-0.4589,-0.2367,55.81389,37.500305,168.8667,0,4067
0.031126,0.06704,9.866806,-5.3E-05,-0.001319,0.002304,-19.56,-30.54,1.92,145.8876,-0.4589,-0.2367,55.81389,37.500305,168.8667,0,4077
0.040703,0.064645,9.847652,-0.001275,0.001125,0.001082,-16.74,-29.34,1.38,149.6206,-0.4517,-0.2366,55.81389,37.500305,168.8667,0,4086
0.040703,0.064645,9.847652,-0.000664,0.000514,-0.000751,-16.74,-29.34,1.38,149.6206,-0.4517,-0.2366,55.81389,37.500305,168.8667,0,4097
0.043097,0.086194,9.859624,-0.001886,0.002957,0.001082,-14.64,-29.28,1.2,149.6206,-0.4517,-0.2366,55.81389,37.500305,168.8667,0,4107
0.023943,0.064645,9.881172,-0.003718,0.001735,-0.00014,-14.64,-29.28,1.2,149.6206,-0.4517,-0.2366,55.81389,37.500305,168.8667,0,4117
0.055068,0.071828,9.859624,-5.3E-05,-0.000708,0.001082,-12.54,-29.04,1.26,155.8529,-0.4474,-0.2292,55.81389,37.500305,168.8667,0,4127
0.055068,0.071828,9.859624,0.000558,-0.00193,0.001082,-12.54,-29.04,1.26,155.8529,-0.4474,-0.2292,55.81389,37.500305,168.8667,0,4137
0.045491,0.071828,9.854836,0.00239,-9.7E-05,0.002304,-9.48,-28.2,0.36,155.8529,-0.4474,-0.2292,55.81389,37.500305,168.8667,0,4147
0.043097,0.05028,9.850046,0.00239,-9.7E-05,0.002304,-9.48,-28.2,0.36,155.8529,-0.4474,-0.2292,55.81389,37.500305,168.8667,0,4157
0.026337,0.069434,9.830893,-5.3E-05,0.001735,-0.001362,-6.78,-28.32,-0.54,165.9673,-0.4454,-0.2294,55.81389,37.500305,168.8667,0,4167
0.026337,0.069434,9.830893,0.001169,-0.00193,0.000471,-6.78,-28.32,-0.54,165.9673,-0.4454,-0.2294,55.81389,37.500305,168.8667,0,4177
0.03352,0.06704,9.852441,0.00239,-0.000708,-0.00014,-4.14,-28.68,-1.38,165.9673,-0.4454,-0.2294,55.81389,37.500305,168.8667,0,4186
0.028731,0.06704,9.866806,0.001779,0.000514,0.001693,-4.14,-28.68,-1.38,165.9673,-0.4454,-0.2294,55.81389,37.500305,168.8667,0,4197
0.035914,0.064645,9.850046,-0.001275,0.000514,-0.00014,-1.8,-27.3,-2.82,175.7844,-0.4381,-0.2213,55.81389,37.500305,168.8667,0,4207
0.035914,0.064645,9.850046,-0.003107,-0.000708,-0.001972,-1.8,-27.3,-2.82,175.7844,-0.4381,-0.2213,55.81389,37.500305,168.8667,0,4217
0.047885,0.090982,9.852441,0.001169,-0.003762,0.001082,-0.3,-26.22,-3.06,175.7844,-0.4381,-0.2213,55.81389,37.500305,168.8667,0,4227
0.045491,0.088588,9.842864,0.001169,-0.003762,0.001082,-0.3,-26.22,-3.06,175.7844,-0.4381,-0.2213,55.81389,37.500305,168.8667,0,4237
0.05028,0.076617,9.823709,0.001169,-0.000708,-0.00014,2.16,-25.62,-2.94,184.4281,-0.4398,-0.2211,55.81389,37.500305,168.8667,0,4247
0.052674,0.074223,9.811738,0.00239,-0.002541,-0.001362,2.16,-25.62,-2.94,184.4281,-0.4398,-0.2211,55.81389,37.500305,168.8667,0,4257
0.052674,0.074223,9.811738,0.001169,-0.001319,0.003525,4.5,-23.88,-2.82,184.4281,-0.4398,-0.2211,55.81389,37.500305,168.8667,0,4267
0.045491,0.079011,9.826104,0.001169,-9.7E-05,0.000471,4.5,-23.88,-2.82,184.4281,-0.4398,-0.2211,55.81389,37.500305,168.8667,0,4277
0.03352,0.074223,9.840469,0.000558,-0.001319,0.001082,5.94,-22.5,-3.18,195.2996,-0.4424,-0.228,55.81389,37.500305,168.8667,0,4287
0.028731,0.079011,9.818921,-0.001886,-0.00193,-0.001972,5.94,-22.5,-3.18,195.2996,-0.4424,-0.228,55.81389,37.500305,168.8667,0,4298
0.028731,0.079011,9.818921,-0.000664,-9.7E-05,0.001082,8.94,-22.5,-4.32,195.2996,-0.4424,-0.228,55.81389,37.500305,168.8667,0,4306
0.023943,0.071828,9.830893,0.001169,0.000514,-0.000751,8.94,-22.5,-4.32,195.2996,-0.4424,-0.228,55.81389,37.500305,168.8667,0,4317
0.035914,0.088588,9.838076,-0.000664,-0.001319,-0.002583,13.5,-22.08,-5.7,212.5711,-0.445,-0.2305,55.81389,37.500305,168.8667,0,4327
0.047885,0.090982,9.852441,-0.001275,0.001735,0.003525,13.5,-22.08,-5.7,212.5711,-0.445,-0.2305,55.81389,37.500305,168.8667,0,4337
0.043097,0.071828,9.840469,-5.3E-05,-0.000708,0.004747,19.08,-20.28,-7.86,212.5711,-0.445,-0.2305,55.81389,37.500305,168.8667,0,4347
0.043097,0.071828,9.840469,-5.3E-05,-0.000708,0.004747,19.08,-20.28,-7.86,212.5711,-0.445,-0.2305,55.81389,37.500305,168.8667,0,4356
0.035914,0.059857,9.830893,0.000558,-0.001319,0.002304,25.98,-16.44,-9.96,238.5552,-0.4442,-0.2301,55.81389,37.500305,168.8667,0,4367
0.035914,0.064645,9.869201,-0.001275,-0.000708,-0.003194,25.98,-16.44,-9.96,238.5552,-0.4442,-0.2301,55.81389,37.500305,168.8667,0,4377
0.047885,0.076617,9.816526,0.000558,-9.7E-05,-0.001972,34.98,-11.22,-12.48,238.5552,-0.4442,-0.2301,55.81389,37.500305,168.8667,0,4387
0.043097,0.081405,9.835681,0.000558,0.000514,0.000471,34.98,-11.22,-12.48,238.5552,-0.4442,-0.2301,55.81389,37.500305,168.8667,0,4397
0.043097,0.081405,9.835681,0.001779,-0.000708,-0.001972,44.58,-3.3,-16.26,266.3466,-0.4442,-0.2248,55.81389,37.500305,168.8667,0,4406
0.035914,0.064645,9.830893,-0.001886,-0.001319,-0.001362,44.58,-3.3,-16.26,266.3466,-0.4442,-0.2248,55.81389,37.500305,168.8667,0,4416
0.035914,0.0838,9.845258,0.00239,-0.001319,0.001082,52.5,9.78,-19.56,266.3466,-0.4442,-0.2248,55.81389,37.500305,168.8667,0,4427
0.03352,0.076617,9.850046,-5.3E-05,-0.001319,-0.00014,52.5,9.78,-19.56,266.3466,-0.4442,-0.2248,55.81389,37.500305,168.8667,0,4437
0.03352,0.086194,9.828498,-0.001886,0.003568,0.000471,55.26,27.6,-18.78,297.0684,-0.4452,-0.228,55.81389,37.500305,168.8667,0,4447
0.03352,0.086194,9.828498,-0.001886,-0.002541,-0.00014,55.26,27.6,-18.78,297.0684,-0.4452,-0.228,55.81389,37.500305,168.8667,0,4457
0.035914,0.079011,9.842864,-5.3E-05,-0.00193,0.001693,49.38,47.04,-14.22,297.0684,-0.4452,-0.228,55.81389,37.500305,168.8667,0,4467
0.040703,0.090982,9.845258,-0.002497,-0.003762,0.000471,49.38,47.04,-14.22,297.0684,-0.4452,-0.228,55.81389,37.500305,168.8667,0,4478
0.05028,0.069434,9.850046,-0.002497,-0.003762,0.000471,36.06,64.26,-6.6,330.6432,-0.4476,-0.2285,55.81389,37.500305,168.8667,0,4487
0.043097,0.062251,9.859624,0.001169,-0.001319,-0.000751,36.06,64.26,-6.6,330.6432,-0.4476,-0.2285,55.81389,37.500305,168.8667,0,4497
0.043097,0.062251,9.859624,-5.3E-05,0.001735,0.000471,16.8,76.68,4.14,330.6432,-0.4476,-0.2285,55.81389,37.500305,168.8667,0,4506
0.047885,0.0838,9.833286,0.000558,0.000514,0.000471,16.8,76.68,4.14,330.6432,-0.4476,-0.2285,55.81389,37.500305,168.8667,0,4517
0.035914,0.071828,9.847652,-5.3E-05,0.001125,0.000471,-5.52,80.46,15.84,4.3417,-0.4489,-0.2299,55.81389,37.500305,168.8667,0,4526
0.045491,0.064645,9.823709,-0.002497,0.001735,0.000471,-5.52,80.46,15.84,4.3417,-0.4489,-0.2299,55.81389,37.500305,168.8667,0,4537
0.045491,0.064645,9.823709,-0.000664,0.000514,-0.001972,-26.76,75.96,26.1,4.3417,-0.4489,-0.2299,55.81389,37.500305,168.8667,0,4546
0.038308,0.081405,9.828498,-5.3E-05,-9.7E-05,-0.000751,-26.76,75.96,26.1,4.3417,-0.4489,-0.2299,55.81389,37.500305,168.8667,0,4557
0.05028,0.071828,9.859624,-0.001275,-0.00193,0.001693,-44.52,66.84,34.14,34.0713,-0.4466,-0.226,55.81389,37.500305,168.8667,0,4567
0.05028,0.071828,9.859624,-0.001275,0.001125,0.000471,-44.52,66.84,34.14,34.0713,-0.4466,-0.226,55.81389,37.500305,168.8667,0,4577
0.045491,0.086194,9.859624,-0.003718,0.000514,-0.001362,-57.54,55.68,40.2,34.0713,-0.4466,-0.226,55.81389,37.500305,168.8667,0,4587
0.035914,0.081405,9.835681,-0.002497,-0.000708,0.001082,-57.54,55.68,40.2,34.0713,-0.4466,-0.226,55.81389,37.500305,168.8667,0,4597
0.043097,0.074223,9.878778,-0.002497,-0.000708,0.001082,-66.24,43.74,44.22,56.5863,-0.4474,-0.2285,55.81389,37.500305,168.8667,0,4607
0.038308,0.079011,9.852441,-5.3E-05,-9.7E-05,0.001693,-66.24,43.74,44.22,56.5863,-0.4474,-0.2285,55.81389,37.500305,168.8667,0,4616
0.038308,0.079011,9.852441,-0.001886,-9.7E-05,-0.001362,-71.7,31.86,46.02,56.5863,-0.4474,-0.2285,55.81389,37.500305,168.8667,0,4626
0.03352,0.081405,9.833286,0.001779,0.001125,-0.00014,-71.7,31.86,46.02,56.5863,-0.4474,-0.2285,55.81389,37.500305,168.8667,0,4636
0.038308,0.093377,9.823709,-0.001886,-0.001319,0.002304,-74.52,19.86,45.24,75.3547,-0.4516,-0.2333,55.81389,37.500305,168.8667,0,4647
0.057463,0.06704,9.852441,0.001169,-0.000708,-0.000751,-74.52,19.86,45.24,75.3547,-0.4516,-0.2333,55.81389,37.500305,168.8667,0,4657
0.035914,0.079011,9.873989,0.000558,0.000514,0.001082,-74.94,8.46,44.28,75.3547,-0.4516,-0.2333,55.81389,37.500305,168.8667,0,4667
0.035914,0.079011,9.873989,-5.3E-05,-9.7E-05,-0.00014,-74.94,8.46,44.28,75.3547,-0.4516,-0.2333,55.81389,37.500305,168.8667,0,4676
0.03352,0.074223,9.878778,0.001169,0.001125,0.001082,-72.96,-1.2,43.08,91.0468,-0.4522,-0.234,55.81389,37.500305,168.8667,0,4687
0.031126,0.069434,9.864412,-0.002497,-0.002541,-0.00014,-72.96,-1.2,43.08,91.0468,-0.4522,-0.234,55.81389,37.500305,168.8667,0,4698
0.05028,0.081405,9.818921,0.001169,-0.000708,-0.001362,-68.7,-8.82,39.96,91.0468,-0.4522,-0.234,55.81389,37.500305,168.8667,0,4706
0.05028,0.081405,9.818921,0.001169,-0.000708,-0.001362,-68.7,-8.82,39.96,91.0468,-0.4522,-0.234,55.81389,37.500305,168.8667,0,4717
0.05028,0.081405,9.818921,0.001169,-0.000708,-0.001362,-68.7,-8.82,39.96,91.0468,-0.4522,-0.234,55.81389,37.500305,168.8667,0,4727
0.047885,0.074223,9.821315,0.001779,-0.000708,0.001082,-66.54,-12.24,37.98,100.3765,-0.4514,-0.2354,55.81389,37.500305,168.8667,0,4737
0.057463,0.088588,9.888355,-0.002497,0.003568,-0.001972,-66.54,-12.24,37.98,100.3765,-0.4514,-0.2354,55.81389,37.500305,168.8667,0,4746
0.035914,0.095771,9.862018,-0.000664,0.003568,-0.00014,-55.08,-19.98,28.2,100.3765,-0.4514,-0.2354,55.81389,37.500305,168.8667,0,4757
0.03352,0.081405,9.857229,-5.3E-05,0.002346,0.004136,-55.08,-19.98,28.2,100.3765,-0.4514,-0.2354,55.81389,37.500305,168.8667,0,4767
0.03352,0.081405,9.857229,0.001169,-0.00193,0.004136,-48.9,-21.78,24.42,114.3196,-0.4538,-0.2299,55.81389,37.500305,168.8667,0,4777
0.055068,0.086194,9.859624,-0.000664,-0.000708,-0.00014,-48.9,-21.78,24.42,114.3196,-0.4538,-0.2299,55.81389,37.500305,168.8667,0,4787
0.03352,0.090982,9.890749,0.001779,-0.002541,0.002304,-43.56,-21.72,19.92,114.3196,-0.4538,-0.2299,55.81389,37.500305,168.8667,0,4797
0.045491,0.086194,9.883567,0.001169,0.000514,0.001693,-43.56,-21.72,19.92,114.3196,-0.4538,-0.2299,55.81389,37.500305,168.8667,0,4807
0.045491,0.086194,9.883567,0.001169,0.000514,0.001693,-38.76,-20.88,17.04,118.4112,-0.4609,-0.236,55.81389,37.500305,168.8667,0,4816
0.047885,0.059857,9.869201,-0.002497,0.001125,0.004747,-38.76,-20.88,17.04,118.4112,-0.4609,-0.236,55.81389,37.500305,168.8667,0,4827
0.045491,0.074223,9.859624,-0.002497,0.000514,-0.001362,-34.2,-19.14,14.4,118.4112,-0.4609,-0.236,55.81389,37.500305,168.8667,0,4836
0.035914,0.090982,9.869201,-0.001275,-0.004373,-0.001972,-34.2,-19.14,14.4,118.4112,-0.4609,-0.236,55.81389,37.500305,168.8667,0,4847
0.035914,0.090982,9.869201,-0.001275,-0.001319,0.002304,-31.44,-17.52,12.18,120.2339,-0.4663,-0.2388,55.81389,37.500305,168.8667,0,4857
0.031126,0.086194,9.857229,-0.001275,-0.000708,0.000471,-31.44,-17.52,12.18,120.2339,-0.4663,-0.2388,55.81389,37.500305,168.8667,0,4867
0.043097,0.093377,9.890749,-0.004329,0.002346,0.001082,-30.24,-16.02,11.22,120.2339,-0.4663,-0.2388,55.81389,37.500305,168.8667,0,4877
0.05028,0.069434,9.881172,-0.002497,0.002346,-0.000751,-29.64,-15.72,10.5,120.2339,-0.4663,-0.2388,55.813873,37.500336,178.374,0,4887
0.05028,0.069434,9.881172,-5.3E-05,0.000514,0.001693,-29.64,-15.72,10.5,120.2339,-0.4663,-0.2388,55.813873,37.500336,178.374,0,4897
0.035914,0.057463,9.854836,-5.3E-05,0.000514,0.001693,-27.84,-14.82,9.24,118.2608,-0.467,-0.2405,55.813873,37.500336,178.374,0,4907
0.035914,0.062251,9.866806,-0.002497,-0.002541,-0.000751,-27.06,-14.22,8.22,118.2608,-0.467,-0.2405,55.813873,37.500336,178.374,0,4916
0.035914,0.076617,9.869201,-0.001275,-0.000708,0.001082,-27.06,-14.22,8.22,118.2608,-0.467,-0.2405,55.813873,37.500336,178.374,0,4927
0.035914,0.076617,9.869201,0.000558,-0.000708,0.001082,-25.92,-13.5,7.86,118.2608,-0.467,-0.2405,55.813873,37.500336,178.374,0,4937
0.021548,0.076617,9.830893,-5.3E-05,-0.000708,-0.000751,-25.92,-13.5,7.86,118.2608,-0.467,-0.2405,55.813873,37.500336,178.374,0,4947
0.038308,0.069434,9.833286,0.000558,0.002346,-0.00014,-25.8,-13.32,8.82,116.6566,-0.459,-0.2402,55.813873,37.500336,178.374,0,4957
0.047885,0.079011,9.828498,0.001169,0.000514,0.001693,-25.8,-13.32,8.82,116.6566,-0.459,-0.2402,55.813873,37.500336,178.374,0,4966
0.038308,0.076617,9.821315,0.003001,0.001125,0.002304,-25.68,-12.96,8.94,116.6566,-0.459,-0.2402,55.813873,37.500336,178.374,0,4977
0.038308,0.076617,9.821315,-0.001886,-0.000708,0.000471,-24.9,-13.02,8.82,116.6566,-0.459,-0.2402,55.813873,37.500336,178.374,0,4987
0.026337,0.062251,9.828498,-5.3E-05,0.002346,0.002304,-24.9,-13.02,8.82,116.6566,-0.459,-0.2402,55.813873,37.500336,178.374,0,4997
0.03352,0.064645,9.852441,-0.001886,-0.001319,0.000471,-25.32,-12.72,7.74,117.5562,-0.4588,-0.2413,55.813873,37.500336,178.374,0,5007
0.043097,0.069434,9.862018,-0.002497,0.000514,0.002304,-24.84,-12.48,7.5,117.5562,-0.4588,-0.2413,55.813873,37.500336,178.374,0,5017
0.03352,0.081405,9.833286,-0.002497,0.000514,0.002304,-24.84,-12.48,7.5,117.5562,-0.4588,-0.2413,55.813873,37.500336,178.374,0,5027
0.03352,0.081405,9.833286,-0.002497,-9.7E-05,0.001082,-24.72,-12.24,7.5,117.5562,-0.4588,-0.2413,55.813873,37.500336,178.374,0,5037
0.057463,0.079011,9.826104,0.001169,-9.7E-05,-0.001362,-24.72,-12.24,7.5,117.5562,-0.4588,-0.2413,55.813873,37.500336,178.374,0,5047
0.021548,0.076617,9.842864,-0.000664,0.000514,0.001082,-25.02,-12.12,7.62,115.7272,-0.4565,-0.2423,55.813873,37.500336,178.374,0,5056
0.038308,0.074223,9.854836,-0.001275,-0.001319,0.002914,-25.02,-12.12,7.62,115.7272,-0.4565,-0.2423,55.813873,37.500336,178.374,0,5067
0.052674,0.081405,9.840469,0.001779,-0.001319,-0.001972,22.62,-30.96,-12.36,115.7272,-0.4565,-0.2423,55.813873,37.500336,178.374,0,5077
0.052674,0.081405,9.840469,-0.001275,-0.00193,0.001693,22.8,-30.72,-12.36,115.7272,-0.4565,-0.2423,55.813873,37.500336,178.374,0,5086
0.038308,0.071828,9.833286,-0.000664,-9.7E-05,0.001082,22.8,-30.72,-12.36,115.7272,-0.4565,-0.2423,55.813873,37.500336,178.374,0,5096
0.019154,0.069434,9.845258,-0.001886,0.001125,0.000471,23.28,-31.02,-12.24,216.7171,-0.4539,-0.2399,55.813873,37.500336,178.374,0,5106
0.026337,0.064645,9.847652,-0.000664,0.001735,0.001693,23.28,-31.02,-12.24,216.7171,-0.4539,-0.2399,55.813873,37.500336,178.374,0,5117
0.026337,0.064645,9.847652,-0.000664,0.001735,0.001693,22.86,-31.92,-12.36,216.7171,-0.4539,-0.2399,55.813873,37.500336,178.374,0,5127
0.03352,0.069434,9.833286,0.000558,0.002346,0.002914,22.86,-31.92,-12.36,216.7171,-0.4539,-0.2399,55.813873,37.500336,178.374,0,5137
0.035914,0.081405,9.864412,-0.001886,-0.00193,-0.00014,22.86,-32.7,-12.66,215.0213,-0.4503,-0.2359,55.813873,37.500336,178.374,0,5147
0.035914,0.081405,9.864412,0.001169,-0.000708,0.001693,22.86,-32.7,-12.66,215.0213,-0.4503,-0.2359,55.813873,37.500336,178.374,0,5156
0.045491,0.086194,9.835681,0.004223,-0.000708,-0.001972,22.2,-33.96,-12.06,215.0213,-0.4503,-0.2359,55.813873,37.500336,178.374,0,5167
0.040703,0.079011,9.857229,-0.00494,0.000514,0.004136,22.2,-33.96,-12.06,215.0213,-0.4503,-0.2359,55.813873,37.500336,178.374,0,5177
0.038308,0.076617,9.821315,-0.003107,0.000514,0.001693,20.76,-35.16,-11.7,211.0909,-0.4485,-0.2343,55.813873,37.500336,178.374,0,5187
0.03352,0.0838,9.850046,-5.3E-05,-0.000708,-0.001362,20.76,-35.16,-11.7,211.0909,-0.4485,-0.2343,55.813873,37.500336,178.374,0,5197
0.03352,0.0838,9.850046,-5.3E-05,-0.000708,-0.001362,19.56,-35.46,-11.16,211.0909,-0.4485,-0.2343,55.813873,37.500336,178.374,0,5207
0.05028,0.088588,9.883567,0.001169,0.000514,0.002304,19.56,-35.46,-11.16,211.0909,-0.4485,-0.2343,55.813873,37.500336,178.374,0,5217
0.045491,0.090982,9.955395,-0.003107,-0.002541,0.001693,17.58,-36.78,-10.32,206.042,-0.4503,-0.2358,55.813873,37.500336,178.374,0,5227
0.052674,0.079011,9.933846,0.003001,0.001735,0.001693,17.58,-36.78,-10.32,206.042,-0.4503,-0.2358,55.813873,37.500336,178.374,0,5236
0.052674,0.079011,9.933846,0.00239,0.000514,0.002304,14.46,-38.76,-9.3,206.042,-0.4503,-0.2358,55.813873,37.500336,178.374,0,5247
0.031126,0.064645,9.802161,-0.001886,-0.001319,0.003525,14.46,-38.76,-9.3,206.042,-0.4503,-0.2358,55.813873,37.500336,178.374,0,5257
0.035914,0.088588,9.833286,0.001169,0.001125,-0.00014,11.7,-39.78,-5.7,196.7516,-0.4583,-0.2408,55.813873,37.500336,178.374,0,5267
0.047885,0.088588,9.873989,0.001169,-0.001319,0.000471,11.7,-39.78,-5.7,196.7516,-0.4583,-0.2408,55.813873,37.500336,178.374,0,5277
0.047885,0.088588,9.873989,-0.001275,-0.000708,0.000471,5.82,-39.06,-3.48,196.7516,-0.4583,-0.2408,55.813873,37.500336,178.374,0,5287
0.05028,0.088588,9.905115,0.00239,0.00479,0.000471,5.82,-39.06,-3.48,196.7516,-0.4583,-0.2408,55.813873,37.500336,178.374,0,5296
0.021548,0.059857,9.828498,0.000558,0.000514,0.001082,-0.6,-38.04,-0.24,178.4925,-0.462,-0.2422,55.813873,37.500336,178.374,0,5307
0.043097,0.0838,9.809344,0.000558,0.000514,0.001082,-0.6,-38.04,-0.24,178.4925,-0.462,-0.2422,55.813873,37.500336,178.374,0,5316
0.043097,0.0838,9.809344,-0.001886,-0.003151,-0.001972,-7.74,-35.94,4.44,178.4925,-0.462,-0.2422,55.813873,37.500336,178.374,0,5326
0.031126,0.090982,9.850046,-0.001886,-9.7E-05,-0.000751,-7.74,-35.94,4.44,178.4925,-0.462,-0.2422,55.813873,37.500336,178.374,0,5336
0.040703,0.095771,9.876384,0.001169,-0.000708,0.001082,-13.62,-32.52,9.36,156.9988,-0.4594,-0.2456,55.813873,37.500336,178.374,0,5347
0.038308,0.074223,9.907509,-0.001275,0.000514,-0.000751,-13.62,-32.52,9.36,156.9988,-0.4594,-0.2456,55.813873,37.500336,178.374,0,5357
0.038308,0.074223,9.907509,0.003001,-0.000708,-0.001362,-17.28,-26.1,13.32,156.9988,-0.4594,-0.2456,55.813873,37.500336,178.374,0,5367
0.047885,0.047885,9.816526,-0.002497,-0.003762,0.001082,-17.28,-26.1,13.32,156.9988,-0.4594,-0.2456,55.813873,37.500336,178.374,0,5377
0.03352,0.105348,9.854836,0.001169,-9.7E-05,0.001082,-18.48,-17.76,15.96,135.096,-0.4651,-0.2443,55.813873,37.500336,178.374,0,5387
0.035914,0.076617,9.876384,0.001779,-0.00193,0.002914,-18.48,-17.76,15.96,135.096,-0.4651,-0.2443,55.813873,37.500336,178.374,0,5397
0.03352,0.086194,9.866806,0.000558,0.001125,0.001082,-16.32,-10.26,16.8,135.096,-0.4651,-0.2443,55.813873,37.500336,178.374,0,5407
0.03352,0.086194,9.866806,0.001169,-9.7E-05,0.000471,-16.32,-10.26,16.8,135.096,-0.4651,-0.2443,55.813873,37.500336,178.374,0,5417
0.045491,0.081405,9.79019,-0.002497,-0.002541,0.001082,-11.28,-3.42,15.48,105.7584,-0.4685,-0.2456,55.813873,37.500336,178.374,0,5427
0.026337,0.090982,9.830893,0.000558,0.002957,0.002304,-11.28,-3.42,15.48,105.7584,-0.4685,-0.2456,55.813873,37.500336,178.374,0,5437
0.004789,0.074223,9.862018,0.001169,-0.000708,0.002304,-3.72,1.74,12.6,105.7584,-0.4685,-0.2456,55.813873,37.500336,178.374,0,5447
0.035914,0.079011,9.857229,-0.001275,0.000514,-0.001362,-3.72,1.74,12.6,105.7584,-0.4685,-0.2456,55.813873,37.500336,178.374,0,5457
0.035914,0.079011,9.857229,-0.001275,0.002346,-0.005027,4.8,4.38,9.24,308.349,-0.4672,-0.2363,55.813873,37.500336,178.374,0,5466
0.040703,0.064645,9.754275,-0.001275,-0.000708,0.001693,4.8,4.38,9.24,308.349,-0.4672,-0.2363,55.813873,37.500336,178.374,0,5477
0.040703,0.090982,9.909904,-0.000664,0.002346,0.000471,12.42,4.92,4.86,308.349,-0.4672,-0.2363,55.813873,37.500336,178.374,0,5486
0.03352,0.095771,9.869201,-0.000664,-0.003151,0.001082,12.42,4.92,4.86,308.349,-0.4672,-0.2363,55.813873,37.500336,178.374,0,5497
0.03352,0.095771,9.869201,-0.001886,-0.002541,0.001082,18.84,3.42,1.08,278.949,-0.4585,-0.2348,55.813873,37.500336,178.374,0,5507
0.026337,0.0838,9.842864,-0.000664,-0.003151,-0.001362,18.84,3.42,1.08,278.949,-0.4585,-0.2348,55.813873,37.500336,178.374,0,5517
0.043097,0.06704,9.794978,-0.000664,-0.001319,0.001693,23.34,1.08,-1.32,278.949,-0.4585,-0.2348,55.813873,37.500336,178.374,0,5526
0.038308,0.06704,9.79019,-0.001275,0.003568,-0.000751,23.34,1.08,-1.32,278.949,-0.4585,-0.2348,55.813873,37.500336,178.374,0,5536
0.038308,0.06704,9.79019,-0.001275,0.003568,-0.000751,27.12,-1.62,-4.08,265.8319,-0.458,-0.2343,55.813873,37.500336,178.374,0,5546
0.03352,0.093377,9.881172,0.001779,-0.000708,0.000471,27.12,-1.62,-4.08,265.8319,-0.458,-0.2343,55.813873,37.500336,178.374,0,5557
0.03352,0.0838,9.924269,-0.003107,-0.006206,0.001082,30.9,-4.38,-6.9,265.8319,-0.458,-0.2343,55.813873,37.500336,178.374,0,5567
0.040703,0.071828,9.878778,-0.000664,0.000514,-0.003805,30.9,-4.38,-6.9,265.8319,-0.458,-0.2343,55.813873,37.500336,178.374,0,5576
0.05028,0.079011,9.785401,0.00239,-0.002541,0.000471,33.36,-6.78,-8.94,258.1547,-0.4578,-0.2346,55.813873,37.500336,178.374,0,5587
0.05028,0.079011,9.785401,-0.003107,-0.004373,0.002304,33.36,-6.78,-8.94,258.1547,-0.4578,-0.2346,55.813873,37.500336,178.374,0,5596
0.031126,0.0838,9.890749,-5.3E-05,-0.00193,-0.000751,34.5,-9.36,-9.78,258.1547,-0.4578,-0.2346,55.813873,37.500336,178.374,0,5607
0.026337,0.071828,9.90272,0.003001,-0.006206,-0.00014,34.5,-9.36,-9.78,258.1547,-0.4578,-0.2346,55.813873,37.500336,178.374,0,5617
0.040703,0.062251,9.835681,-0.004329,0.001125,-0.00014,35.16,-11.28,-9.42,252.6755,-0.4565,-0.2349,55.813873,37.500336,178.374,0,5626
0.05028,0.0838,9.797373,-0.002497,0.002346,0.002304,35.16,-11.28,-9.42,252.6755,-0.4565,-0.2349,55.813873,37.500336,178.374,0,5637
0.05028,0.0838,9.797373,-0.000664,0.000514,-0.001972,35.16,-13.08,-9.96,252.6755,-0.4565,-0.2349,55.813873,37.500336,178.374,0,5647
0.045491,0.081405,9.845258,-0.002497,-0.000708,0.001082,35.16,-13.08,-9.96,252.6755,-0.4565,-0.2349,55.813873,37.500336,178.374,0,5656
0.023943,0.098165,9.852441,-0.000664,0.001735,0.001082,34.8,-14.64,-11.22,246.9462,-0.4491,-0.2343,55.813873,37.500336,178.374,0,5666
0.052674,0.064645,9.866806,-0.002497,-0.000708,0.000471,34.8,-14.64,-11.22,246.9462,-0.4491,-0.2343,55.813873,37.500336,178.374,0,5677
0.052674,0.076617,9.821315,-0.002497,-0.000708,0.000471,34.56,-15.6,-11.16,246.9462,-0.4491,-0.2343,55.813873,37.500336,178.374,0,5687
0.038308,0.076617,9.821315,0.001169,0.000514,-0.001362,34.56,-15.6,-11.16,246.9462,-0.4491,-0.2343,55.813873,37.500336,178.374,0,5696
0.057463,0.079011,9.818921,0.000558,-9.7E-05,-0.00014,34.74,-16.74,-10.68,244.2352,-0.4478,-0.233,55.813873,37.500336,178.374,0,5707
0.045491,0.079011,9.881172,-5.3E-05,-0.001319,0.002914,34.74,-16.74,-10.68,244.2352,-0.4478,-0.233,55.813873,37.500336,178.374,0,5717
0.045491,0.079011,9.881172,0.000558,0.000514,0.004136,34.38,-17.88,-10.26,244.2352,-0.4478,-0.233,55.813873,37.500336,178.374,0,5727
0.019154,0.055068,9.859624,0.001779,-0.002541,0.000471,34.38,-17.88,-10.26,244.2352,-0.4478,-0.233,55.813873,37.500336,178.374,0,5737
0.03352,0.090982,9.847652,0.001779,0.001735,-0.001362,34.14,-18.12,-9.9,242.2341,-0.4522,-0.2334,55.813873,37.500336,178.374,0,5747
0.038308,0.0838,9.842864,-0.000664,-0.000708,0.002304,34.14,-18.12,-9.9,242.2341,-0.4522,-0.2334,55.813873,37.500336,178.374,0,5756
0.038308,0.064645,9.890749,0.003612,-0.000708,0.001693,34.26,-17.16,-9.6,242.2341,-0.4522,-0.2334,55.813873,37.500336,178.374,0,5767
0.038308,0.064645,9.890749,0.001169,-9.7E-05,0.002304,34.26,-17.16,-9.6,242.2341,-0.4522,-0.2334,55.813873,37.500336,178.374,0,5777
0.05028,0.064645,9.862018,-5.3E-05,0.002957,0.000471,33.78,-17.58,-9.6,242.2346,-0.4541,-0.2341,55.813873,37.500336,178.374,0,5786
0.03352,0.062251,9.854836,-0.000664,-0.003762,0.001082,33.78,-17.58,-9.6,242.2346,-0.4541,-0.2341,55.813873,37.500336,178.374,0,5797
0.03352,0.062251,9.854836,-5.3E-05,-0.00193,-0.001362,34.26,-18.6,-9.48,242.2346,-0.4541,-0.2341,55.813873,37.500336,178.374,0,5807
0.043097,0.079011,9.845258,-5.3E-05,-9.7E-05,0.001693,34.26,-18.6,-9.48,242.2346,-0.4541,-0.2341,55.813873,37.500336,178.374,0,5817
0.05028,0.069434,9.823709,-5.3E-05,0.001735,0.001082,35.16,-19.02,-9.66,241.6306,-0.452,-0.2284,55.813873,37.500336,178.374,0,5827
0.031126,0.086194,9.840469,-5.3E-05,0.001735,0.001082,35.16,-19.02,-9.66,241.6306,-0.452,-0.2284,55.813873,37.500336,178.374,0,5837
0.031126,0.086194,9.840469,-5.3E-05,-0.002541,0.000471,35.82,-19.2,-10.2,241.6306,-0.452,-0.2284,55.813873,37.500336,178.374,0,5847
0.021548,0.079011,9.818921,-0.000664,-9.7E-05,-0.001972,35.82,-19.2,-10.2,241.6306,-0.452,-0.2284,55.813873,37.500336,178.374,0,5857
0.05028,0.090982,9.816526,-5.3E-05,-0.00193,-0.00014,36.78,-19.44,-10.32,242.9389,-0.445,-0.2346,55.813873,37.500336,178.374,0,5867
0.043097,0.06704,9.828498,0.000558,-0.00193,0.002914,36.78,-19.44,-10.32,242.9389,-0.445,-0.2346,55.813873,37.500336,178.374,0,5877
0.028731,0.093377,9.830893,0.001169,0.002346,-0.00014,36.48,-20.16,-10.68,242.9389,-0.445,-0.2346,55.813873,37.500336,178.374,0,5887
0.028731,0.093377,9.830893,-0.003718,0.001125,0.000471,36.48,-20.16,-10.68,242.9389,-0.445,-0.2346,55.813873,37.500336,178.374,0,5897
0.043097,0.071828,9.852441,0.001779,-0.001319,0.002304,36.18,-20.4,-10.98,241.0792,-0.4458,-0.2354,55.813873,37.500336,178.374,0,5907
0.047885,0.069434,9.840469,-0.003718,-9.7E-05,-0.001362,36.18,-20.4,-10.98,241.0792,-0.4458,-0.2354,55.813873,37.500336,178.374,0,5917
0.028731,0.0838,9.835681,-5.3E-05,-9.7E-05,-0.001362,37.08,-20.58,-10.62,241.0792,-0.4458,-0.2354,55.813873,37.500336,178.374,0,5927
0.028731,0.0838,9.835681,0.001779,-0.00193,0.002914,37.08,-20.58,-10.62,241.0792,-0.4458,-0.2354,55.813873,37.500336,178.374,0,5937
0.031126,0.071828,9.80695,0.001779,-0.00193,0.002914,37.56,-20.58,-10.5,241.189,-0.4467,-0.2358,55.813873,37.500336,178.374,0,5947
0.038308,0.079011,9.833286,0.001779,0.001125,-0.00014,37.56,-20.58,-10.5,241.189,-0.4467,-0.2358,55.813866,37.500305,182.9668,0,5957
0.057463,0.06704,9.850046,-0.000664,-0.000708,0.002304,37.62,-21.06,-10.14,241.189,-0.4467,-0.2358,55.813866,37.500305,182.9668,0,5966
0.057463,0.06704,9.850046,-5.3E-05,-9.7E-05,-0.00014,37.62,-21.06,-10.14,241.189,-0.4467,-0.2358,55.813866,37.500305,182.9668,0,5977
0.03352,0.069434,9.838076,-0.001275,0.002957,0.002304,38.22,-21.9,-10.2,240.0448,-0.4432,-0.2352,55.813866,37.500305,182.9668,0,5987
0.035914,0.079011,9.833286,-0.001886,-0.003151,-0.000751,38.22,-21.9,-10.2,240.0448,-0.4432,-0.2352,55.813866,37.500305,182.9668,0,5997
0.055068,0.074223,9.852441,0.001779,-0.004373,-0.001362,38.82,-22.44,-10.62,240.0448,-0.4432,-0.2352,55.813866,37.500305,182.9668,0,6007
0.035914,0.079011,9.869201,-0.003718,-0.001319,-0.00014,38.82,-22.44,-10.62,240.0448,-0.4432,-0.2352,55.813866,37.500305,182.9668,0,6016
0.035914,0.079011,9.869201,0.000558,-0.000708,0.002914,39.84,-22.8,-10.62,240.2193,-0.441,-0.2344,55.813866,37.500305,182.9668,0,6027
0.038308,0.079011,9.857229,-0.000664,-0.003151,0.002304,39.84,-22.8,-10.62,240.2193,-0.441,-0.2344,55.813866,37.500305,182.9668,0,6036
0.05028,0.074223,9.850046,-0.000664,-0.003151,0.002304,40.62,-23.82,-10.86,240.2193,-0.441,-0.2344,55.813866,37.500305,182.9668,0,6046
0.045491,0.081405,9.876384,0.000558,-0.00193,-0.001972,40.62,-23.82,-10.86,240.2193,-0.441,-0.2344,55.813866,37.500305,182.9668,0,6056
0.045491,0.081405,9.876384,-0.000664,0.002346,0.000471,41.1,-25.02,-10.98,238.7411,-0.4442,-0.2345,55.813866,37.500305,182.9668,0,6066
0.031126,0.081405,9.924269,0.001779,0.000514,0.001082,41.1,-25.02,-10.98,238.7411,-0.4442,-0.2345,55.813866,37.500305,182.9668,0,6077
0.031126,0.093377,9.905115,-0.00494,-0.00193,0.000471,41.76,-25.62,-11.58,238.7411,-0.4442,-0.2345,55.813866,37.500305,182.9668,0,6087
0.059857,0.074223,9.907509,0.00239,-0.001319,0.001693,41.76,-25.62,-11.58,238.7411,-0.4442,-0.2345,55.813866,37.500305,182.9668,0,6096
0.059857,0.074223,9.907509,0.004834,-0.007428,-0.000751,42.78,-25.92,-11.46,238.9509,-0.45,-0.2352,55.813866,37.500305,182.9668,0,6107
0.028731,0.081405,9.883567,-0.001275,-0.00193,0.002914,42.78,-25.92,-11.46,238.9509,-0.45,-0.2352,55.813866,37.500305,182.9668,0,6117
0.047885,0.059857,9.850046,0.00239,0.001125,0.002304,43.68,-26.4,-11.34,238.9509,-0.45,-0.2352,55.813866,37.500305,182.9668,0,6126
0.059857,0.0838,9.909904,-0.000664,-0.000708,-0.001362,43.98,-26.76,-12,238.9509,-0.45,-0.2352,55.813866,37.500305,182.9668,0,6137
0.026337,0.071828,9.909904,-0.000664,-0.001319,0.000471,43.98,-26.76,-12,238.9509,-0.45,-0.2352,55.813866,37.500305,182.9668,0,6147
0.026337,0.071828,9.909904,0.001169,-0.000708,0.004136,43.02,-27.48,-11.88,237.9943,-0.4534,-0.2329,55.813866,37.500305,182.9668,0,6156
0.052674,0.0838,9.888355,-0.000664,0.000514,0.002304,43.02,-27.48,-11.88,237.9943,-0.4534,-0.2329,55.813866,37.500305,182.9668,0,6167
0.045491,0.088588,9.893144,-0.003107,0.003568,0.000471,42.96,-27.72,-11.34,237.9943,-0.4534,-0.2329,55.813866,37.500305,182.9668,0,6177
0.031126,0.079011,9.876384,-0.001275,-9.7E-05,-0.001362,42.9,-27.72,-11.1,237.9943,-0.4534,-0.2329,55.813866,37.500305,182.9668,0,6187
0.038308,0.071828,9.893144,-0.001886,-0.003762,-0.00014,42.9,-27.72,-11.1,237.9943,-0.4534,-0.2329,55.813866,37.500305,182.9668,0,6197
0.038308,0.071828,9.893144,-0.000664,0.000514,0.000471,42.42,-28.08,-11.22,236.4198,-0.4528,-0.2348,55.813866,37.500305,182.9668,0,6206
0.057463,0.079011,9.895537,0.000558,0.001735,0.000471,42.42,-28.08,-11.22,236.4198,-0.4528,-0.2348,55.813866,37.500305,182.9668,0,6217
0.05028,0.079011,9.859624,-0.001275,-0.001319,0.000471,42.24,-28.74,-11.46,236.4198,-0.4528,-0.2348,55.813866,37.500305,182.9668,0,6227
0.035914,0.076617,9.842864,-0.001886,0.000514,0.001082,42.24,-28.74,-11.46,236.4198,-0.4528,-0.2348,55.813866,37.500305,182.9668,0,6237
0.031126,0.076617,9.897932,0.00239,-0.003762,-0.000751,41.7,-29.34,-11.7,235.4958,-0.4583,-0.2389,55.813866,37.500305,182.9668,0,6247
0.031126,0.076617,9.897932,-0.001275,-0.000708,-0.00014,41.7,-29.34,-11.7,235.4958,-0.4583,-0.2389,55.813866,37.500305,182.9668,0,6257
0.05028,0.086194,9.864412,-0.001275,-0.000708,-0.00014,40.26,-30.24,-11.04,235.4958,-0.4583,-0.2389,55.813866,37.500305,182.9668,0,6266
0.038308,0.069434,9.876384,0.003001,-0.00193,-0.00014,40.26,-30.24,-11.04,235.4958,-0.4583,-0.2389,55.813866,37.500305,182.9668,0,6277
0.026337,0.086194,9.845258,-0.000664,0.001735,0.003525,39.66,-31.32,-11.76,232.3448,-0.4593,-0.2399,55.813866,37.500305,182.9668,0,6287
0.026337,0.086194,9.845258,-5.3E-05,0.001125,0.000471,39.66,-31.32,-11.76,232.3448,-0.4593,-0.2399,55.813866,37.500305,182.9668,0,6296
0.043097,0.079011,9.883567,0.001169,-0.000708,0.000471,38.94,-32.52,-12.9,232.3448,-0.4593,-0.2399,55.813866,37.500305,182.9668,0,6307
0.03352,0.069434,9.866806,0.001779,-0.001319,-0.00014,38.94,-32.52,-12.9,232.3448,-0.4593,-0.2399,55.813866,37.500305,182.9668,0,6316
0.023943,0.086194,9.854836,-0.001275,0.001125,-0.000751,37.32,-33.18,-12.84,228.4013,-0.4578,-0.2382,55.813866,37.500305,182.9668,0,6327
0.023943,0.079011,9.857229,-5.3E-05,-0.00193,-0.000751,37.2,-33.54,-13.32,228.4013,-0.4578,-0.2382,55.813866,37.500305,182.9668,0,6336
0.023943,0.079011,9.857229,-0.002497,0.001125,-0.000751,37.2,-33.54,-13.32,228.4013,-0.4578,-0.2382,55.813866,37.500305,182.9668,0,6347
0.035914,0.079011,9.883567,0.001169,-0.00193,-0.000751,36.18,-34.74,-15.18,228.4013,-0.4578,-0.2382,55.813866,37.500305,182.9668,0,6357
0.028731,0.071828,9.878778,0.001169,-0.00193,-0.000751,36.18,-34.74,-15.18,228.4013,-0.4578,-0.2382,55.813866,37.500305,182.9668,0,6367
0.040703,0.086194,9.847652,0.001169,-0.001319,0.001082,34.44,-35.16,-16.38,224.3285,-0.4549,-0.2336,55.813866,37.500305,182.9668,0,6377
0.040703,0.086194,9.847652,-0.003718,-0.000708,0.000471,34.44,-35.16,-16.38,224.3285,-0.4549,-0.2336,55.813866,37.500305,182.9668,0,6387
0.023943,0.081405,9.840469,0.004223,-0.003151,0.000471,32.52,-35.7,-16.86,224.3285,-0.4549,-0.2336,55.813866,37.500305,182.9668,0,6396
0.062251,0.088588,9.883567,0.001779,-9.7E-05,-0.00014,32.52,-35.7,-16.86,224.3285,-0.4549,-0.2336,55.813866,37.500305,182.9668,0,6407
0.03352,0.074223,9.873989,0.001169,-0.001319,0.001082,30.72,-36.9,-18.12,220.1309,-0.4521,-0.2272,55.813866,37.500305,182.9668,0,6417
0.038308,0.095771,9.852441,-0.002497,0.001735,-0.000751,30.72,-36.9,-18.12,220.1309,-0.4521,-0.2272,55.813866,37.500305,182.9668,0,6427
0.038308,0.071828,9.862018,-5.3E-05,-0.000708,-0.001972,29.16,-37.26,-18.78,220.1309,-0.4521,-0.2272,55.813866,37.500305,182.9668,0,6437
0.038308,0.071828,9.862018,-0.000664,-0.001319,0.001693,29.16,-37.26,-18.78,220.1309,-0.4521,-0.2272,55.813866,37.500305,182.9668,0,6447
0.059857,0.079011,9.881172,-5.3E-05,-0.001319,0.002304,27.72,-37.38,-19.56,217.3118,-0.4496,-0.2261,55.813866,37.500305,182.9668,0,6457
0.031126,0.064645,9.909904,-5.3E-05,-0.001319,0.002304,27.72,-37.38,-19.56,217.3118,-0.4496,-0.2261,55.813866,37.500305,182.9668,0,6467
0.026337,0.090982,9.873989,-0.001275,-0.001319,-0.000751,25.74,-37.92,-21.48,217.3118,-0.4496,-0.2261,55.813866,37.500305,182.9668,0,6477
0.026337,0.090982,9.873989,-0.001886,0.000514,-0.00014,24.84,-38.1,-21.54,217.3118,-0.4496,-0.2261,55.813866,37.500305,182.9668,0,6487
0.023943,0.074223,9.871595,-0.001275,-0.002541,-0.00014,24.84,-38.1,-21.54,217.3118,-0.4496,-0.2261,55.813866,37.500305,182.9668,0,6496
0.043097,0.074223,9.885961,0.001779,-0.001319,-0.001362,22.5,-38.04,-23.46,211.4103,-0.45,-0.2348,55.813866,37.500305,182.9668,0,6507
0.040703,0.088588,9.857229,-0.001275,-9.7E-05,-0.00014,22.5,-38.04,-23.46,211.4103,-0.45,-0.2348,55.813866,37.500305,182.9668,0,6517
0.040703,0.088588,9.857229,-0.000664,0.001125,0.000471,19.92,-37.38,-23.76,211.4103,-0.45,-0.2348,55.813866,37.500305,182.9668,0,6527
0.047885,0.055068,9.802161,-5.3E-05,-0.002541,-0.000751,19.92,-37.38,-23.76,211.4103,-0.45,-0.2348,55.813866,37.500305,182.9668,0,6537
0.040703,0.0838,9.799767,-0.003107,-0.003762,-0.001972,18,-36.96,-23.16,206.1701,-0.4492,-0.2331,55.813866,37.500305,182.9668,0,6547
0.043097,0.0838,9.852441,0.001169,-0.000708,0.000471,18,-36.96,-23.16,206.1701,-0.4492,-0.2331,55.813866,37.500305,182.9668,0,6557
0.043097,0.0838,9.852441,0.000558,-0.000708,-0.00014,17.1,-35.7,-23.16,206.1701,-0.4492,-0.2331,55.813866,37.500305,182.9668,0,6567
0.043097,0.076617,9.857229,0.000558,-0.000708,-0.00014,17.1,-35.7,-23.16,206.1701,-0.4492,-0.2331,55.813866,37.500305,182.9668,0,6577
0.028731,0.079011,9.814133,-0.002497,0.001125,-0.001972,15.48,-33.84,-22.2,204.0388,-0.449,-0.2301,55.813866,37.500305,182.9668,0,6586
0.059857,0.098165,9.833286,0.001169,-0.003762,-0.001972,15.48,-33.84,-22.2,204.0388,-0.449,-0.2301,55.813866,37.500305,182.9668,0,6597
0.052674,0.088588,9.883567,-0.001886,-0.001319,0.001082,14.4,-32.76,-21.36,204.0388,-0.449,-0.2301,55.813866,37.500305,182.9668,0,6606
0.047885,0.088588,9.907509,-0.001275,-0.001319,-0.001362,14.4,-32.76,-21.36,204.0388,-0.449,-0.2301,55.813866,37.500305,182.9668,0,6617
0.047885,0.088588,9.907509,-0.003718,0.000514,-0.00014,14.58,-31.02,-20.88,206.0664,-0.4458,-0.2295,55.813866,37.500305,182.9668,0,6627
0.05028,0.086194,9.847652,-5.3E-05,0.002957,-0.000751,14.58,-31.02,-20.88,206.0664,-0.4458,-0.2295,55.813866,37.500305,182.9668,0,6637
0.038308,0.071828,9.847652,0.000558,-0.005595,0.001082,15,-30.06,-20.64,206.0664,-0.4458,-0.2295,55.813866,37.500305,182.9668,0,6647
0.038308,0.081405,9.842864,0.000558,-0.000708,-0.000751,15,-30.06,-20.64,206.0664,-0.4458,-0.2295,55.813866,37.500305,182.9668,0,6657
0.038308,0.081405,9.842864,-0.002497,0.001125,-0.001972,14.1,-29.28,-20.28,206.0228,-0.4515,-0.2335,55.813866,37.500305,182.9668,0,6667
0.028731,0.071828,9.859624,-5.3E-05,-0.003762,0.001082,14.1,-29.28,-20.28,206.0228,-0.4515,-0.2335,55.813866,37.500305,182.9668,0,6677
0.028731,0.069434,9.826104,-5.3E-05,-0.003762,0.001082,13.68,-28.32,-20.1,206.0228,-0.4515,-0.2335,55.813866,37.500305,182.9668,0,6687
0.03352,0.062251,9.811738,-0.000664,-0.000708,0.002304,13.68,-28.32,-20.1,206.0228,-0.4515,-0.2335,55.813866,37.500305,182.9668,0,6697
0.03352,0.062251,9.811738,-0.001275,-0.000708,0.001693,13.86,-27.12,-19.92,207.687,-0.454,-0.2415,55.813866,37.500305,182.9668,0,6707
0.040703,0.0838,9.828498,-5.3E-05,0.001125,-0.00014,13.86,-27.12,-19.92,207.687,-0.454,-0.2415,55.813866,37.500305,182.9668,0,6717
0.03352,0.079011,9.821315,0.000558,0.002346,0.001082,13.38,-26.34,-19.68,207.687,-0.454,-0.2415,55.813866,37.500305,182.9668,0,6727
0.03352,0.069434,9.816526,-0.001275,-9.7E-05,0.001082,13.38,-26.34,-19.68,207.687,-0.454,-0.2415,55.813866,37.500305,182.9668,0,6737
0.03352,0.069434,9.840469,-5.3E-05,-0.000708,0.000471,13.38,-26.1,-19.5,206.8395,-0.4521,-0.2417,55.813866,37.500305,182.9668,0,6746
0.03352,0.069434,9.840469,-0.001275,0.000514,0.001082,13.38,-26.1,-19.5,206.8395,-0.4521,-0.2417,55.813866,37.500305,182.9668,0,6757
0.028731,0.086194,9.842864,-0.001886,-0.000708,0.001693,13.62,-24.72,-18.78,206.8395,-0.4521,-0.2417,55.813866,37.500305,182.9668,0,6768
0.026337,0.086194,9.80695,-0.001886,-0.003151,0.000471,13.62,-24.72,-18.78,206.8395,-0.4521,-0.2417,55.813866,37.500305,182.9668,0,6777
0.047885,0.10056,9.818921,0.000558,-9.7E-05,0.004747,13.92,-24.18,-18.48,210.5399,-0.4502,-0.2423,55.813866,37.500305,182.9668,0,6787
0.047885,0.10056,9.818921,0.000558,-0.00193,0.001693,13.92,-24.18,-18.48,210.5399,-0.4502,-0.2423,55.813866,37.500305,182.9668,0,6797
0.045491,0.088588,9.845258,0.000558,-0.000708,0.002914,13.56,-23.28,-18.48,210.5399,-0.4502,-0.2423,55.813866,37.500305,182.9668,0,6807
0.047885,0.074223,9.823709,-0.002497,0.000514,0.003525,13.56,-23.28,-18.48,210.5399,-0.4502,-0.2423,55.813866,37.500305,182.9668,0,6817
0.055068,0.079011,9.838076,-0.002497,-0.001319,0.002304,13.44,-22.68,-18.24,209.7728,-0.4509,-0.2439,55.813866,37.500305,182.9668,0,6827
0.028731,0.079011,9.823709,-0.001275,0.002346,0.002304,13.44,-22.68,-18.24,209.7728,-0.4509,-0.2439,55.813866,37.500305,182.9668,0,6837
0.028731,0.079011,9.823709,-0.000664,-0.002541,-0.003194,14.16,-23.34,-17.76,209.7728,-0.4509,-0.2439,55.813866,37.500305,182.9668,0,6847
0.047885,0.076617,9.845258,-0.000664,-0.001319,-0.000751,14.16,-23.34,-17.76,209.7728,-0.4509,-0.2439,55.813866,37.500305,182.9668,0,6857
0.023943,0.081405,9.842864,0.001169,-9.7E-05,0.002914,14.76,-23.28,-17.64,213.4061,-0.4476,-0.2435,55.813866,37.500305,182.9668,0,6867
0.043097,0.062251,9.80695,-0.000664,-0.00193,-0.00014,14.76,-23.28,-17.64,213.4061,-0.4476,-0.2435,55.813866,37.500305,182.9668,0,6877
0.043097,0.062251,9.80695,-0.000664,-0.000708,0.000471,13.8,-23.76,-18.84,213.4061,-0.4476,-0.2435,55.813866,37.500305,182.9668,0,6887
0.047885,0.076617,9.818921,-0.003718,-0.005595,-0.002583,13.8,-23.76,-18.84,213.4061,-0.4476,-0.2435,55.813866,37.500305,182.9668,0,6896
0.045491,0.062251,9.835681,-5.3E-05,-0.001319,-0.000751,12.96,-24.42,-19.38,208.7433,-0.4471,-0.2468,55.813866,37.500305,182.9668,0,6907
0.045491,0.088588,9.833286,-0.001886,-9.7E-05,0.001082,12.96,-24.42,-19.38,208.7433,-0.4471,-0.2468,55.813866,37.500305,182.9668,0,6916
0.045491,0.088588,9.833286,-0.000664,-0.001319,-0.001972,12.72,-24.6,-18.48,208.7433,-0.4471,-0.2468,55.813866,37.500305,182.9668,0,6927
0.019154,0.074223,9.840469,-0.000664,-0.001319,-0.001972,12.72,-24.6,-18.48,208.7433,-0.4471,-0.2468,55.813866,37.500305,182.9668,0,6936
0.062251,0.074223,9.828498,-0.001275,0.000514,-0.002583,12.06,-25.44,-18.42,205.9136,-0.4435,-0.2512,55.813866,37.500305,182.9668,0,6946
0.038308,0.088588,9.854836,0.000558,-0.001319,-0.001362,12.06,-25.44,-18.42,205.9136,-0.4435,-0.2512,55.813866,37.500305,182.9668,0,6958
0.038308,0.088588,9.854836,-5.3E-05,-9.7E-05,-0.001362,11.94,-26.04,-19.68,205.9136,-0.4435,-0.2512,55.813866,37.500305,182.9668,0,6967
0.035914,0.074223,9.838076,-0.000664,-0.002541,0.001082,11.94,-26.04,-19.68,205.9136,-0.4435,-0.2512,55.813877,37.50029,188.9184,0,6976
0.040703,0.074223,9.883567,0.00239,-0.000708,-0.000751,11.34,-27.06,-21.12,202.454,-0.4429,-0.249,55.813877,37.50029,188.9184,0,6987
0.047885,0.059857,9.885961,-5.3E-05,-0.003762,0.000471,11.34,-27.06,-21.12,202.454,-0.4429,-0.249,55.813877,37.50029,188.9184,0,6996
0.047885,0.059857,9.885961,-5.3E-05,-9.7E-05,0.001693,11.34,-28.02,-21.96,202.454,-0.4429,-0.249,55.813877,37.50029,188.9184,0,7007
0.064645,0.0838,9.866806,-0.001275,0.001735,-0.000751,11.34,-28.02,-21.96,202.454,-0.4429,-0.249,55.813877,37.50029,188.9184,0,7018
0.028731,0.064645,9.845258,-0.002497,-0.001319,-0.00014,11.1,-29.16,-22.56,201.0612,-0.4422,-0.247,55.813877,37.50029,188.9184,0,7027
0.028731,0.064645,9.845258,-0.002497,-0.001319,-0.00014,11.1,-29.16,-22.56,201.0612,-0.4422,-0.247,55.813877,37.50029,188.9184,0,7037
0.031126,0.076617,9.864412,-0.000664,0.001735,0.000471,10.26,-30.78,-23.7,201.0612,-0.4422,-0.247,55.813877,37.50029,188.9184,0,7047
0.031126,0.076617,9.864412,-0.000664,0.001735,0.000471,10.26,-30.78,-23.7,201.0612,-0.4422,-0.247,55.813877,37.50029,188.9184,0,7057
0.052674,0.069434,9.850046,-0.003107,-0.001319,-0.000751,10.38,-31.5,-24.66,198.1661,-0.4408,-0.2492,55.813877,37.50029,188.9184,0,7066
0.035914,0.076617,9.871595,0.001169,-0.001319,-0.00014,11.94,-33.78,-25.08,198.1661,-0.4408,-0.2492,55.813877,37.50029,188.9184,0,7077
0.035914,0.076617,9.871595,-0.000664,-9.7E-05,0.001693,11.94,-33.78,-25.08,198.1661,-0.4408,-0.2492,55.813877,37.50029,188.9184,0,7086
0.043097,0.069434,9.826104,-0.000664,-0.000708,-0.001362,14.22,-35.64,-24.96,201.5055,-0.4378,-0.2508,55.813877,37.50029,188.9184,0,7097
0.040703,0.088588,9.850046,-5.3E-05,-0.001319,-0.001972,14.22,-35.64,-24.96,201.5055,-0.4378,-0.2508,55.813877,37.50029,188.9184,0,7106
0.040703,0.088588,9.850046,0.001169,0.001735,-0.000751,15.6,-37.2,-24.96,201.5055,-0.4378,-0.2508,55.813877,37.50029,188.9184,0,7119
0.043097,0.086194,9.857229,-5.3E-05,0.001735,-0.00014,15.6,-37.2,-24.96,201.5055,-0.4378,-0.2508,55.813877,37.50029,188.9184,0,7127
0.03352,0.062251,9.876384,0.003001,-0.001319,0.004136,18,-38.34,-25.14,205.5956,-0.4405,-0.2541,55.813877,37.50029,188.9184,0,7137
0.03352,0.062251,9.876384,0.00239,-0.001319,0.004136,18,-38.34,-25.14,205.5956,-0.4405,-0.2541,55.813877,37.50029,188.9184,0,7147
0.028731,0.062251,9.842864,-0.000664,-0.000708,0.001082,20.76,-39.3,-24.84,205.5956,-0.4405,-0.2541,55.813877,37.50029,188.9184,0,7157
0.038308,0.071828,9.833286,-0.002497,-0.000708,-0.001972,20.76,-39.3,-24.84,205.5956,-0.4405,-0.2541,55.813877,37.50029,188.9184,0,7166
0.026337,0.076617,9.840469,-0.002497,-0.000708,-0.001972,21.72,-40.26,-24.36,209.0364,-0.4435,-0.2444,55.813877,37.50029,188.9184,0,7177
0.026337,0.076617,9.840469,-0.001886,-0.00193,-0.000751,21.72,-40.26,-24.36,209.0364,-0.4435,-0.2444,55.813877,37.50029,188.9184,0,7186
0.047885,0.086194,9.840469,-0.000664,-0.002541,0.001693,22.86,-39.72,-24.96,209.0364,-0.4435,-0.2444,55.813877,37.50029,188.9184,0,7197
0.031126,0.079011,9.835681,-0.000664,0.001735,0.001693,22.86,-39.72,-24.96,209.0364,-0.4435,-0.2444,55.813877,37.50029,188.9184,0,7207
0.059857,0.081405,9.814133,-0.001275,-0.000708,0.001082,25.08,-39.36,-24.9,212.896,-0.4424,-0.2326,55.813877,37.50029,188.9184,0,7216
0.023943,0.076617,9.802161,0.001169,-0.000708,-0.001362,25.08,-39.36,-24.9,212.896,-0.4424,-0.2326,55.813877,37.50029,188.9184,0,7227
0.023943,0.076617,9.802161,-0.000664,-0.000708,-0.002583,26.94,-40.08,-23.82,212.896,-0.4424,-0.2326,55.813877,37.50029,188.9184,0,7237
0.040703,0.052674,9.835681,0.001169,-9.7E-05,-0.00014,26.94,-40.08,-23.82,212.896,-0.4424,-0.2326,55.813877,37.50029,188.9184,0,7247
0.040703,0.081405,9.838076,0.000558,-0.000708,0.002914,27.6,-39.96,-22.14,215.1891,-0.4422,-0.2233,55.813877,37.50029,188.9184,0,7257
0.040703,0.081405,9.838076,-0.001275,-9.7E-05,0.000471,27.6,-39.96,-22.14,215.1891,-0.4422,-0.2233,55.813877,37.50029,188.9184,0,7267
0.035914,0.095771,9.830893,-0.000664,-0.003151,0.000471,28.44,-39.84,-20.64,215.1891,-0.4422,-0.2233,55.813877,37.50029,188.9184,0,7277
0.03352,0.071828,9.840469,-5.3E-05,-0.001319,0.000471,28.44,-39.84,-20.64,215.1891,-0.4422,-0.2233,55.813877,37.50029,188.9184,0,7287
0.047885,0.088588,9.873989,-0.001275,0.001125,0.001082,29.58,-40.26,-21.06,217.0563,-0.4454,-0.2197,55.813877,37.50029,188.9184,0,7296
0.047885,0.088588,9.873989,-0.001275,0.001125,0.001082,29.88,-40.44,-21.66,217.0563,-0.4454,-0.2197,55.813877,37.50029,188.9184,0,7307
0.026337,0.093377,9.890749,-0.000664,-0.000708,0.002914,29.88,-40.44,-21.66,217.0563,-0.4454,-0.2197,55.813877,37.50029,188.9184,0,7316
0.019154,0.0838,9.840469,-0.001275,0.001125,0.001082,30.42,-42.06,-21.96,217.0563,-0.4454,-0.2197,55.813877,37.50029,188.9184,0,7327
0.023943,0.090982,9.859624,-0.000664,-9.7E-05,0.003525,30.42,-42.06,-21.96,217.0563,-0.4454,-0.2197,55.813877,37.50029,188.9184,0,7337
0.047885,0.0838,9.859624,-0.001886,-0.001319,0.000471,30.42,-44.82,-22.62,213.8732,-0.4475,-0.2179,55.813877,37.50029,188.9184,0,7347
0.047885,0.071828,9.842864,-0.001275,-0.001319,-0.00014,30.18,-46.74,-23.94,213.8732,-0.4475,-0.2179,55.813877,37.50029,188.9184,0,7357
0.047885,0.071828,9.842864,0.001169,-9.7E-05,0.002914,30.18,-46.74,-23.94,213.8732,-0.4475,-0.2179,55.813877,37.50029,188.9184,0,7366
0.059857,0.095771,9.835681,-0.000664,0.000514,-0.000751,31.14,-51.12,-26.82,213.8732,-0.4475,-0.2179,55.813877,37.50029,188.9184,0,7377
0.047885,0.079011,9.840469,-0.000664,0.000514,-0.000751,31.14,-51.12,-26.82,213.8732,-0.4475,-0.2179,55.813877,37.50029,188.9184,0,7386
0.064645,0.0838,9.873989,-5.3E-05,-0.004373,-0.003805,32.58,-56.7,-28.92,210.2499,-0.451,-0.2131,55.813877,37.50029,188.9184,0,7397
0.064645,0.0838,9.873989,-0.003107,-0.001319,-0.001972,33.48,-59.7,-30.06,210.2499,-0.451,-0.2131,55.813877,37.50029,188.9184,0,7407
0.038308,0.090982,9.840469,-0.001275,0.002957,0.002304,33.48,-59.7,-30.06,210.2499,-0.451,-0.2131,55.813877,37.50029,188.9184,0,7417
0.045491,0.071828,9.842864,-0.001886,-0.002541,-0.000751,35.88,-65.46,-31.86,210.2499,-0.451,-0.2131,55.813877,37.50029,188.9184,0,7426
0.03352,0.079011,9.842864,-5.3E-05,0.001125,-0.001362,35.88,-65.46,-31.86,210.2499,-0.451,-0.2131,55.813877,37.50029,188.9184,0,7437
0.031126,0.069434,9.857229,0.001779,-0.000708,0.001082,39.72,-71.88,-33.9,209.2282,-0.4579,-0.2253,55.813877,37.50029,188.9184,0,7447
0.03352,0.071828,9.838076,0.000558,-0.004373,-0.000751,43.32,-74.34,-34.86,209.2282,-0.4579,-0.2253,55.813877,37.50029,188.9184,0,7457
0.03352,0.071828,9.838076,-0.000664,0.001125,-0.001362,43.32,-74.34,-34.86,209.2282,-0.4579,-0.2253,55.813877,37.50029,188.9184,0,7466
0.031126,0.064645,9.842864,-0.001275,-0.000708,-0.000751,51.66,-77.34,-37.2,209.2282,-0.4579,-0.2253,55.813877,37.50029,188.9184,0,7477
0.021548,0.06704,9.830893,-0.001275,-0.000708,-0.000751,51.66,-77.34,-37.2,209.2282,-0.4579,-0.2253,55.813877,37.50029,188.9184,0,7486
0.03352,0.059857,9.840469,0.00239,0.000514,0.002914,61.74,-76.92,-39.36,219.0249,-0.4562,-0.2311,55.813877,37.50029,188.9184,0,7497
0.03352,0.059857,9.840469,0.000558,-0.00193,-0.001972,67.08,-76.14,-39,219.0249,-0.4562,-0.2311,55.813877,37.50029,188.9184,0,7507
0.035914,0.079011,9.830893,0.000558,-9.7E-05,-0.000751,67.08,-76.14,-39,219.0249,-0.4562,-0.2311,55.813877,37.50029,188.9184,0,7516
0.052674,0.076617,9.799767,-0.000664,-0.000708,-0.002583,78.84,-70.56,-38.4,219.0249,-0.4562,-0.2311,55.813877,37.50029,188.9184,0,7527
0.035914,0.076617,9.814133,-0.000664,-0.000708,-0.002583,78.84,-70.56,-38.4,219.0249,-0.4562,-0.2311,55.813877,37.50029,188.9184,0,7536
0.052674,0.071828,9.852441,-0.001886,-0.003762,-0.003194,89.28,-61.8,-36.96,235.3099,-0.4544,-0.2334,55.813877,37.50029,188.9184,0,7547
0.052674,0.071828,9.852441,-5.3E-05,0.001125,0.001082,93.96,-56.82,-35.88,235.3099,-0.4544,-0.2334,55.813877,37.50029,188.9184,0,7557
0.038308,0.088588,9.840469,-0.000664,-9.7E-05,0.001082,93.96,-56.82,-35.88,235.3099,-0.4544,-0.2334,55.813877,37.50029,188.9184,0,7567
0.035914,0.074223,9.816526,-0.001886,-0.001319,-0.00014,101.64,-44.46,-33.6,235.3099,-0.4544,-0.2334,55.813877,37.50029,188.9184,0,7577
0.040703,0.076617,9.830893,0.001779,0.000514,0.002914,101.64,-44.46,-33.6,235.3099,-0.4544,-0.2334,55.813877,37.50029,188.9184,0,7587
0.040703,0.071828,9.838076,0.000558,0.000514,0.002304,106.32,-28.98,-29.1,254.8285,-0.4501,-0.2332,55.813877,37.50029,188.9184,0,7597
0.040703,0.071828,9.838076,-0.005551,0.001735,-0.000751,106.98,-19.26,-26.58,254.8285,-0.4501,-0.2332,55.813877,37.50029,188.9184,0,7607
0.047885,0.076617,9.835681,0.00239,-0.000708,0.001082,106.98,-19.26,-26.58,254.8285,-0.4501,-0.2332,55.813877,37.50029,188.9184,0,7617
0.03352,0.071828,9.823709,0.001169,-0.001319,0.001693,104.58,1.5,-20.58,254.8285,-0.4501,-0.2332,55.813877,37.50029,188.9184,0,7627
0.043097,0.074223,9.866806,-0.000664,-0.000708,-0.00014,104.58,1.5,-20.58,254.8285,-0.4501,-0.2332,55.813877,37.50029,188.9184,0,7637
0.043097,0.074223,9.866806,-0.001886,-0.000708,-0.000751,95.82,23.04,-13.38,283.521,-0.4449,-0.2315,55.813877,37.50029,188.9184,0,7646
0.028731,0.088588,9.883567,-0.001886,-0.000708,-0.000751,88.08,33.18,-9,283.521,-0.4449,-0.2315,55.813877,37.50029,188.9184,0,7657
0.031126,0.0838,9.854836,-0.001275,0.000514,-0.001362,88.08,33.18,-9,283.521,-0.4449,-0.2315,55.813877,37.50029,188.9184,0,7667
0.038308,0.076617,9.852441,-5.3E-05,-0.002541,0.002304,67.92,48.42,1.44,283.521,-0.4449,-0.2315,55.813877,37.50029,188.9184,0,7677
0.038308,0.076617,9.852441,0.000558,0.001125,0.001693,67.92,48.42,1.44,283.521,-0.4449,-0.2315,55.813877,37.50029,188.9184,0,7686
0.040703,0.0838,9.862018,0.000558,0.000514,0.003525,41.88,53.4,12.36,321.5867,-0.445,-0.2321,55.813877,37.50029,188.9184,0,7697
0.028731,0.074223,9.883567,0.00239,-0.001319,0.000471,41.88,53.4,12.36,321.5867,-0.445,-0.2321,55.813877,37.50029,188.9184,0,7707
0.045491,0.071828,9.852441,0.001779,-0.000708,0.000471,16.98,48.36,19.92,321.5867,-0.445,-0.2321,55.813877,37.50029,188.9184,0,7717
0.045491,0.071828,9.852441,0.001779,-0.000708,0.000471,16.98,48.36,19.92,321.5867,-0.445,-0.2321,55.813877,37.50029,188.9184,0,7727
0.03352,0.06704,9.854836,0.001169,-0.000708,-0.00014,-2.76,36.6,24.3,4.8104,-0.447,-0.2338,55.813877,37.50029,188.9184,0,7737
0.021548,0.0838,9.885961,-0.001886,-0.000708,0.002914,-2.76,36.6,24.3,4.8104,-0.447,-0.2338,55.813877,37.50029,188.9184,0,7747
0.038308,0.093377,9.864412,0.000558,-0.002541,-0.000751,-16.2,22.74,27,4.8104,-0.447,-0.2338,55.813877,37.50029,188.9184,0,7757
0.038308,0.093377,9.864412,0.001779,-0.003151,0.001693,-16.2,22.74,27,4.8104,-0.447,-0.2338,55.813877,37.50029,188.9184,0,7767
0.043097,0.074223,9.826104,-5.3E-05,0.000514,-0.000751,-24.42,8.76,27.78,69.9881,-0.4462,-0.2336,55.813877,37.50029,188.9184,0,7776
0.043097,0.076617,9.826104,-5.3E-05,0.000514,-0.000751,-24.42,8.76,27.78,69.9881,-0.4462,-0.2336,55.813877,37.50029,188.9184,0,7787
0.043097,0.076617,9.826104,-0.001275,-0.00193,0.001082,-28.62,-5.22,27.06,69.9881,-0.4462,-0.2336,55.813877,37.50029,188.9184,0,7797
0.052674,0.086194,9.840469,0.000558,-9.7E-05,0.000471,-28.62,-5.22,27.06,69.9881,-0.4462,-0.2336,55.813877,37.50029,188.9184,0,7807
0.047885,0.081405,9.845258,-5.3E-05,0.000514,0.001082,-29.46,-17.94,24.3,122.0082,-0.4508,-0.2309,55.813877,37.50029,188.9184,0,7817
0.038308,0.081405,9.862018,0.001169,0.001125,-0.00014,-29.46,-17.94,24.3,122.0082,-0.4508,-0.2309,55.813877,37.50029,188.9184,0,7827
0.038308,0.081405,9.862018,-5.3E-05,-0.000708,0.001693,-26.94,-28.5,19.98,122.0082,-0.4508,-0.2309,55.813877,37.50029,188.9184,0,7838
0.05028,0.088588,9.883567,0.000558,0.000514,0.001082,-26.94,-28.5,19.98,122.0082,-0.4508,-0.2309,55.813877,37.50029,188.9184,0,7847
0.043097,0.0838,9.885961,0.000558,0.000514,-0.00014,-20.76,-36.84,15.12,150.4258,-0.4467,-0.2386,55.813877,37.50029,188.9184,0,7857
0.043097,0.0838,9.885961,-0.001275,-9.7E-05,0.000471,-20.76,-36.84,15.12,150.4258,-0.4467,-0.2386,55.813877,37.50029,188.9184,0,7867
0.045491,0.06704,9.838076,-0.001275,-9.7E-05,0.000471,-12.78,-42.9,9.9,150.4258,-0.4467,-0.2386,55.813877,37.50029,188.9184,0,7877
0.040703,0.074223,9.842864,0.000558,-0.00193,-0.001362,-12.78,-42.9,9.9,150.4258,-0.4467,-0.2386,55.813877,37.50029,188.9184,0,7887
0.052674,0.088588,9.833286,-0.000664,-0.00193,0.000471,-4.62,-45.48,4.62,173.6383,-0.4488,-0.2442,55.813877,37.50029,188.9184,0,7896
0.052674,0.088588,9.833286,-5.3E-05,-0.004984,-0.000751,-4.62,-45.48,4.62,173.6383,-0.4488,-0.2442,55.813877,37.50029,188.9184,0,7907
0.023943,0.071828,9.830893,0.001779,-0.00193,0.002914,3.3,-45,-0.78,173.6383,-0.4488,-0.2442,55.813877,37.50029,188.9184,0,7916
0.059857,0.071828,9.838076,-0.002497,0.000514,0.000471,3.3,-45,-0.78,173.6383,-0.4488,-0.2442,55.813877,37.50029,188.9184,0,7927
0.047885,0.079011,9.862018,0.001779,-0.001319,0.000471,10.02,-42.72,-5.34,193.1306,-0.448,-0.2448,55.813877,37.50029,188.9184,0,7937
0.043097,0.06704,9.869201,-5.3E-05,-0.001319,0.001693,10.02,-42.72,-5.34,193.1306,-0.448,-0.2448,55.813877,37.50029,188.9184,0,7947
0.043097,0.06704,9.869201,-0.001275,-9.7E-05,-0.001362,15.06,-40.44,-8.1,193.1306,-0.448,-0.2448,55.813877,37.50029,188.9184,0,7956
0.045491,0.090982,9.842864,-0.001886,-0.004984,-0.001972,15.06,-40.44,-8.1,193.1306,-0.448,-0.2448,55.813877,37.50029,188.9184,0,7967
0.035914,0.079011,9.840469,0.001169,-9.7E-05,0.004747,18.96,-37.98,-9.36,206.6556,-0.4502,-0.2519,55.813877,37.50029,188.9184,0,7977
0.021548,0.074223,9.842864,-0.000664,-0.003151,0.001693,18.96,-37.98,-9.36,206.6556,-0.4502,-0.2519,55.813877,37.50029,188.9184,0,7986
0.035914,0.079011,9.854836,0.001169,0.001735,-0.001972,21.66,-34.62,-9.48,206.6556,-0.4502,-0.2519,55.813877,37.50029,188.9184,0,7997
0.035914,0.079011,9.854836,-0.001275,0.001125,0.002914,21.66,-34.62,-9.48,206.6556,-0.4502,-0.2519,55.813877,37.50029,188.9184,0,8006
0.052674,0.055068,9.857229,-5.3E-05,-0.00193,0.000471,22.68,-32.82,-10.2,214.9898,-0.4459,-0.2504,55.813877,37.50029,188.9184,0,8017
0.047885,0.079011,9.862018,-5.3E-05,-0.00193,0.000471,22.68,-32.82,-10.2,214.9898,-0.4459,-0.2504,55.813877,37.50029,188.9184,0,8027
0.059857,0.088588,9.881172,0.000558,0.001125,-0.00014,23.34,-31.26,-11.58,214.9898,-0.4459,-0.2504,55.813877,37.50029,188.9184,0,8036
0.038308,0.081405,9.876384,0.001169,-0.003151,-0.00014,23.34,-31.26,-11.58,214.9898,-0.4459,-0.2504,55.813877,37.50029,188.9184,0,8047
0.031126,0.06704,9.878778,-0.001886,0.005401,0.000471,23.82,-30.18,-11.52,218.8055,-0.4489,-0.2381,55.813877,37.50029,188.9184,0,8057
0.031126,0.06704,9.878778,-0.002497,0.002346,0.000471,23.82,-30.18,-11.52,218.8055,-0.4489,-0.2381,55.813877,37.50029,188.9184,0,8067
0.038308,0.076617,9.862018,0.001169,-9.7E-05,0.004747,24.12,-30.36,-11.22,218.8055,-0.4489,-0.2381,55.813877,37.50029,188.9184,0,8076
0.055068,0.079011,9.897932,-5.3E-05,-0.002541,0.000471,24.12,-30.36,-11.22,218.8055,-0.4489,-0.2381,55.813877,37.50029,188.9184,0,8087
0.043097,0.064645,9.873989,-0.000664,-9.7E-05,0.002914,23.7,-29.52,-10.74,218.794,-0.4505,-0.2397,55.813877,37.50029,188.9184,0,8097
0.055068,0.074223,9.864412,0.000558,-9.7E-05,0.001693,23.7,-29.52,-10.74,218.794,-0.4505,-0.2397,55.813877,37.50029,188.9184,0,8107
0.055068,0.074223,9.864412,-0.001886,-0.001319,0.001082,23.94,-28.14,-10.5,218.794,-0.4505,-0.2397,55.813877,37.50029,188.9184,0,8116
0.038308,0.071828,9.842864,0.000558,-0.001319,-0.000751,23.94,-28.14,-10.5,218.794,-0.4505,-0.2397,55.813877,37.50029,188.9184,0,8126
0.023943,0.079011,9.864412,0.001169,0.001125,0.002304,24.96,-27.6,-10.8,221.9012,-0.4475,-0.2453,55.813877,37.50029,188.9184,0,8137
0.05028,0.074223,9.840469,0.001169,0.001125,0.000471,24.96,-27.6,-10.8,221.9012,-0.4475,-0.2453,55.813877,37.50029,188.9184,0,8147
0.05028,0.074223,9.840469,0.001169,0.001125,0.000471,25.2,-27.42,-10.86,221.9012,-0.4475,-0.2453,55.813877,37.50029,188.9184,0,8157
0.03352,0.074223,9.852441,-5.3E-05,-0.001319,-0.000751,25.2,-27.42,-10.86,221.9012,-0.4475,-0.2453,55.813877,37.50029,188.9184,0,8166
0.028731,0.076617,9.850046,-5.3E-05,-0.00193,-0.001362,25.32,-27.72,-11.04,221.9012,-0.4467,-0.2463,55.813877,37.50029,188.9184,0,8177
0.059857,0.081405,9.835681,0.001169,-0.00193,-0.00014,25.32,-27.72,-11.04,221.9012,-0.4467,-0.2463,55.813877,37.50029,188.9184,0,8187
0.045491,0.074223,9.873989,-0.003107,0.001125,-0.000751,25.14,-28.5,-11.34,221.9012,-0.4467,-0.2463,55.813877,37.50029,188.9184,0,8197
0.045491,0.074223,9.873989,-0.002497,0.001735,-0.000751,25.14,-28.5,-11.34,221.9012,-0.4467,-0.2463,55.813877,37.50029,188.9184,0,8207
0.043097,0.088588,9.871595,0.000558,0.000514,0.002304,24.9,-28.32,-11.58,221.9152,-0.4476,-0.2503,55.813877,37.50029,188.9184,0,8217
0.03352,0.093377,9.850046,0.00239,0.002346,0.003525,24.9,-28.32,-11.58,221.9152,-0.4476,-0.2503,55.813877,37.50029,188.9184,0,8227
0.028731,0.076617,9.845258,0.00239,0.002346,0.003525,25.26,-28.08,-11.82,221.9152,-0.4476,-0.2503,55.813877,37.50029,188.9184,0,8238
0.028731,0.076617,9.845258,-5.3E-05,-0.001319,0.001082,25.26,-28.08,-11.82,221.9152,-0.4476,-0.2503,55.813877,37.50029,188.9184,0,8247
0.031126,0.071828,9.835681,-0.003107,-0.000708,-0.003194,25.62,-28.56,-11.52,222.0271,-0.4475,-0.2499,55.813877,37.50029,188.9184,0,8257
0.038308,0.079011,9.842864,-5.3E-05,0.000514,-0.001972,25.62,-28.56,-11.52,222.0271,-0.4475,-0.2499,55.813877,37.50029,188.9184,0,8266
0.05028,0.06704,9.854836,-5.3E-05,0.000514,0.002914,25.2,-28.8,-11.16,222.0271,-0.4475,-0.2499,55.813877,37.50029,188.9184,0,8276
0.05028,0.06704,9.854836,0.001779,-0.001319,0.002914,25.2,-28.8,-11.16,222.0271,-0.4475,-0.2499,55.813877,37.50029,188.9184,0,8287
0.055068,0.090982,9.876384,-5.3E-05,-0.00193,-0.00014,25.08,-29.28,-10.74,220.9009,-0.4464,-0.2466,55.813877,37.50029,188.9184,0,8297
0.040703,0.071828,9.833286,-0.002497,0.000514,-0.00014,25.08,-29.28,-10.74,220.9009,-0.4464,-0.2466,55.813877,37.50029,188.9184,0,8308
0.038308,0.086194,9.828498,-0.001275,0.000514,-0.002583,24.6,-30.54,-10.74,220.9009,-0.4464,-0.2466,55.813877,37.50029,188.9184,0,8317
0.035914,0.071828,9.845258,-0.001886,-0.003151,-0.000751,24.06,-30.66,-11.16,220.9009,-0.4464,-0.2466,55.813877,37.50029,188.9184,0,8327
0.035914,0.071828,9.845258,-0.001886,-0.001319,-0.000751,24.06,-30.66,-11.16,220.9009,-0.4464,-0.2466,55.813877,37.50029,188.9184,0,8337
0.035914,0.0838,9.838076,-0.003107,-0.003151,0.001693,23.46,-31.56,-11.7,215.8449,-0.4444,-0.2391,55.813877,37.50029,188.9184,0,8346
0.038308,0.081405,9.852441,0.001169,-0.004373,-0.002583,23.46,-31.56,-11.7,215.8449,-0.4444,-0.2391,55.813877,37.50029,188.9184,0,8357
0.043097,0.095771,9.833286,-0.000664,0.000514,-0.000751,22.56,-32.88,-11.76,215.8449,-0.4444,-0.2391,55.813877,37.50029,188.9184,0,8367
0.043097,0.095771,9.833286,-0.000664,-0.00193,0.000471,22.56,-32.88,-11.76,215.8449,-0.4444,-0.2391,55.813877,37.50029,188.9184,0,8377
0.047885,0.079011,9.830893,-0.000664,-0.00193,0.000471,22.08,-34.14,-11.64,213.0354,-0.4435,-0.2354,55.813877,37.50029,188.9184,0,8387
0.028731,0.071828,9.850046,-0.000664,-9.7E-05,-0.002583,22.08,-34.14,-11.64,213.0354,-0.4435,-0.2354,55.813877,37.50029,188.9184,0,8397
0.028731,0.071828,9.850046,-5.3E-05,0.004179,-0.00014,20.22,-35.88,-11.7,213.0354,-0.4435,-0.2354,55.813877,37.50029,188.9184,0,8406
0.043097,0.06704,9.828498,-0.000664,-0.000708,0.000471,20.22,-35.88,-11.7,213.0354,-0.4435,-0.2354,55.813877,37.50029,188.9184,0,8417
0.03352,0.093377,9.878778,-0.003107,0.001735,0.002304,16.32,-37.5,-10.68,203.4925,-0.4439,-0.235,55.813877,37.50029,188.9184,0,8426
0.043097,0.098165,9.883567,-0.000664,-0.000708,0.002914,16.32,-37.5,-10.68,203.4925,-0.4439,-0.235,55.813877,37.50029,188.9184,0,8437
0.043097,0.098165,9.883567,-0.000664,-0.003151,0.002914,11.28,-38.04,-7.98,203.4925,-0.4439,-0.235,55.813877,37.50029,188.9184,0,8446
0.026337,0.079011,9.893144,0.001779,0.002346,-0.000751,11.28,-38.04,-7.98,203.4925,-0.4439,-0.235,55.813877,37.50029,188.9184,0,8457
0.040703,0.0838,9.885961,-0.000664,-0.003151,0.001082,6.24,-37.56,-4.32,189.0044,-0.4455,-0.2377,55.813877,37.50029,188.9184,0,8467
0.043097,0.074223,9.850046,0.001169,-0.003151,0.000471,6.24,-37.56,-4.32,189.0044,-0.4455,-0.2377,55.813877,37.50029,188.9184,0,8477
0.03352,0.069434,9.881172,0.001169,-0.001319,-0.000751,1.5,-34.5,-1.26,189.0044,-0.4455,-0.2377,55.813877,37.50029,188.9184,0,8487
0.03352,0.069434,9.881172,-0.003718,-0.003151,-0.001972,1.5,-34.5,-1.26,189.0044,-0.4455,-0.2377,55.813877,37.50029,188.9184,0,8497
0.055068,0.086194,9.862018,-0.003718,-0.003151,0.000471,-1.74,-30.18,0.9,176.179,-0.4508,-0.2362,55.813877,37.50029,188.9184,0,8506
0.031126,0.071828,9.845258,-5.3E-05,-0.002541,0.001693,-1.74,-30.18,0.9,176.179,-0.4508,-0.2362,55.813877,37.50029,188.9184,0,8517
0.062251,0.10056,9.857229,0.000558,-0.00193,-0.001972,-2.04,-25.74,1.8,176.179,-0.4508,-0.2362,55.813877,37.50029,188.9184,0,8527
0.062251,0.10056,9.857229,0.000558,-0.001319,-0.001362,-2.04,-25.74,1.8,176.179,-0.4508,-0.2362,55.813877,37.50029,188.9184,0,8537
0.040703,0.06704,9.876384,-0.001275,0.001125,-0.00014,-1.68,-20.4,2.58,174.2613,-0.4477,-0.233,55.813877,37.50029,188.9184,0,8547
0.043097,0.090982,9.857229,-0.001275,0.001125,-0.00014,-1.68,-20.4,2.58,174.2613,-0.4477,-0.233,55.813877,37.50029,188.9184,0,8557
0.031126,0.055068,9.845258,0.001169,-0.000708,0.000471,-0.72,-15.84,3.54,174.2613,-0.4477,-0.233,55.813877,37.50029,188.9184,0,8567
0.031126,0.055068,9.845258,-0.001275,0.001125,-0.00014,0.18,-14.34,3.18,174.2613,-0.4477,-0.233,55.813877,37.50029,188.9184,0,8576
0.031126,0.090982,9.845258,-0.001275,-0.002541,0.000471,0.18,-14.34,3.18,174.2613,-0.4477,-0.233,55.813877,37.50029,188.9184,0,8586
0.023943,0.06704,9.847652,0.001169,0.000514,-0.000751,3.6,-10.02,1.62,201.7309,-0.4479,-0.2316,55.813877,37.50029,188.9184,0,8597
0.035914,0.0838,9.794978,0.001169,0.001735,0.001082,3.6,-10.02,1.62,201.7309,-0.4479,-0.2316,55.813877,37.50029,188.9184,0,8607
0.035914,0.0838,9.794978,-5.3E-05,0.000514,-0.000751,7.68,-7.38,0.12,201.7309,-0.4479,-0.2316,55.813877,37.50029,188.9184,0,8617
0.052674,0.076617,9.835681,-5.3E-05,-9.7E-05,0.002914,9.9,-6.48,0.18,201.7309,-0.4479,-0.2316,55.813877,37.50029,188.9184,0,8626
0.03352,0.0838,9.852441,-0.004329,-0.002541,-0.000751,9.9,-6.48,0.18,201.7309,-0.4479,-0.2316,55.813877,37.50029,188.9184,0,8637
0.040703,0.081405,9.859624,0.000558,-0.000708,0.000471,13.98,-5.88,-1.32,246.8337,-0.4552,-0.2274,55.813877,37.50029,188.9184,0,8647
0.021548,0.071828,9.80695,-0.003107,0.001125,0.000471,13.98,-5.88,-1.32,246.8337,-0.4552,-0.2274,55.813877,37.50029,188.9184,0,8658
0.021548,0.071828,9.80695,-0.003107,0.001125,0.000471,17.4,-6.48,-2.88,246.8337,-0.4552,-0.2274,55.813877,37.50029,188.9184,0,8667
0.043097,0.079011,9.814133,0.001169,-0.000708,0.002304,17.4,-6.48,-2.88,246.8337,-0.4552,-0.2274,55.813877,37.50029,188.9184,0,8677
0.043097,0.079011,9.814133,0.00239,-9.7E-05,0.000471,17.4,-6.48,-2.88,246.8337,-0.4552,-0.2274,55.813877,37.50029,188.9184,0,8686
0.040703,0.081405,9.833286,-0.000664,0.001125,-0.000751,19.8,-6.6,-4.2,250.8042,-0.4553,-0.2295,55.813877,37.50029,188.9184,0,8696
0.035914,0.0838,9.866806,-0.000664,-0.00193,-0.00014,21.6,-6.9,-5.4,250.8042,-0.4553,-0.2295,55.813877,37.50029,188.9184,0,8707
0.035914,0.0838,9.866806,0.00239,-0.00193,0.002304,21.6,-6.9,-5.4,250.8042,-0.4553,-0.2295,55.813877,37.50029,188.9184,0,8716
0.026337,0.090982,9.833286,0.00239,-0.00193,0.002304,23.58,-7.08,-6.42,253.858,-0.4525,-0.2274,55.813877,37.50029,188.9184,0,8728
0.05028,0.081405,9.852441,-0.001886,-0.00193,0.001693,23.58,-7.08,-6.42,253.858,-0.4525,-0.2274,55.813877,37.50029,188.9184,0,8736
0.05028,0.081405,9.852441,0.001169,-0.006206,0.003525,24.72,-8.4,-6,253.858,-0.4525,-0.2274,55.813877,37.50029,188.9184,0,8747
0.055068,0.064645,9.830893,-5.3E-05,0.000514,0.001693,24.72,-8.4,-6,253.858,-0.4525,-0.2274,55.813877,37.50029,188.9184,0,8757
0.055068,0.076617,9.842864,-5.3E-05,-0.001319,-0.000751,25.8,-9.72,-6.18,249.0682,-0.447,-0.2179,55.813877,37.50029,188.9184,0,8767
0.038308,0.076617,9.826104,0.000558,-9.7E-05,0.001693,26.52,-9.36,-6.54,249.0682,-0.447,-0.2179,55.813877,37.50029,188.9184,0,8776
0.035914,0.081405,9.876384,0.001169,-0.000708,0.001082,26.52,-9.36,-6.54,249.0682,-0.447,-0.2179,55.813877,37.50029,188.9184,0,8787
0.035914,0.081405,9.876384,0.00239,0.001125,0.002914,27.48,-9.72,-7.68,249.0682,-0.447,-0.2179,55.813877,37.50029,188.9184,0,8797
0.038308,0.088588,9.826104,-0.001886,-0.001319,0.001082,27.48,-9.72,-7.68,249.0682,-0.447,-0.2179,55.813877,37.50029,188.9184,0,8807
0.031126,0.076617,9.802161,0.003612,-0.000708,-0.00014,28.62,-10.02,-7.86,251.1013,-0.4437,-0.219,55.813877,37.50029,188.9184,0,8817
0.035914,0.059857,9.840469,-5.3E-05,-0.003151,-0.003805,28.92,-9.96,-7.56,251.1013,-0.4437,-0.219,55.813877,37.50029,188.9184,0,8827
0.028731,0.074223,9.859624,-5.3E-05,-0.003151,-0.003805,28.92,-9.96,-7.56,251.1013,-0.4437,-0.219,55.813877,37.50029,188.9184,0,8837
0.028731,0.074223,9.859624,-0.001275,0.000514,0.001082,30,-10.32,-7.38,251.1013,-0.4437,-0.219,55.813877,37.50029,188.9184,0,8846
0.035914,0.06704,9.826104,-0.001275,0.003568,-0.002583,30,-10.32,-7.38,251.1013,-0.4437,-0.219,55.813877,37.50029,188.9184,0,8857
0.026337,0.069434,9.885961,-0.001886,-9.7E-05,0.001693,30.24,-10.08,-7.8,251.6876,-0.4416,-0.2225,55.813877,37.50029,188.9184,0,8867
0.03352,0.093377,9.900327,-0.000664,-0.003762,0.001082,30.24,-10.08,-7.8,251.6876,-0.4416,-0.2225,55.813877,37.50029,188.9184,0,8877
0.03352,0.093377,9.900327,-0.001886,-9.7E-05,0.001693,31.92,-10.08,-8.88,251.6876,-0.4416,-0.2225,55.813877,37.50029,188.9184,0,8887
