ACCELEROMETER X (m/s²),ACCELEROMETER Y (m/s²),ACCELEROMETER Z (m/s²),GRAVITY X (m/s²),GRAVITY Y (m/s²),GRAVITY Z (m/s²),GYROSCOPE X (rad/s),GYROSCOPE Y (rad/s),GYROSCOPE Z (rad/s),MAGNETIC FIELD X (μT),MAGNETIC FIELD Y (μT),MAGNETIC FIELD Z (μT),ORIENTATION Z (azimuth °),ORIENTATION X (pitch °),ORIENTATION Y (roll °),LOCATION Latitude : ,LOCATION Longitude : ,LOCATION Altitude ( m),LOCATION Altitude-google ( m),LOCATION Speed ( m/s),LOCATION Accuracy ( m),LOCATION ORIENTATION (°),Satellites in range,GPS NMEA,Time since start in ms ,YYYY-MO-DD HH-MI-SS_SSS
0.169994,0.126897,9.77343,0.165558,0.121488,9.8045,9.48E-4,-1.8E-5,-8.0E-4,20.88,3.6,-103.92,283.0731,-0.7098,-0.9674,55.81408,37.500366,210.7,NaN,,14.388,,0 / 4,,29,2021-05-02 16:13:36:029
0.150839,0.119714,9.763853,0.16594,0.121046,9.804499,0.002781,0.003647,0.005308,20.88,3.6,-103.92,283.0731,-0.7098,-0.9674,55.81408,37.500366,210.7,NaN,,14.388,,0 / 4,,37,2021-05-02 16:13:36:037
0.167599,0.122108,9.766247,0.16594,0.121046,9.804499,0.001559,0.002425,0.002254,20.82,3.96,-104.22,283.0731,-0.7098,-0.9674,55.81408,37.500366,210.7,NaN,,14.388,,0 / 4,,47,2021-05-02 16:13:36:047
0.167599,0.122108,9.766247,0.165492,0.120458,9.804514,9.48E-4,0.003647,4.21E-4,20.82,3.96,-104.22,283.0731,-0.7098,-0.9674,55.81408,37.500366,210.7,NaN,,14.388,,0 / 4,,57,2021-05-02 16:13:36:057
0.153234,0.138868,9.754275,0.165492,0.120458,9.804514,0.001559,-0.001851,0.001643,20.4,4.02,-103.86,283.6259,-0.7038,-0.967,55.81408,37.500366,210.7,NaN,,14.388,,0 / 4,,67,2021-05-02 16:13:36:067
0.158022,0.114925,9.75667,0.165442,0.120769,9.804511,3.37E-4,-0.00124,0.001643,20.4,4.02,-103.86,283.6259,-0.7038,-0.967,55.81408,37.500366,210.7,NaN,,14.388,,0 / 4,,78,2021-05-02 16:13:36:078
0.162811,0.136474,9.751882,0.165442,0.120769,9.804511,3.37E-4,-6.29E-4,0.002254,20.4,3.78,-103.8,283.6259,-0.7038,-0.967,55.81408,37.500366,210.7,NaN,,14.388,,0 / 4,,88,2021-05-02 16:13:36:088
0.162811,0.136474,9.751882,0.164714,0.121328,9.804516,-0.001495,-0.001851,-1.89E-4,20.4,3.78,-103.8,283.6259,-0.7038,-0.967,55.81408,37.500366,210.7,NaN,,14.388,,0 / 4,,97,2021-05-02 16:13:36:097
0.155628,0.114925,9.771035,0.164714,0.121328,9.804516,0.00217,5.93E-4,0.002254,19.98,3.18,-103.68,281.1409,-0.7089,-0.9625,55.81408,37.500366,210.7,NaN,,14.388,,0 / 4,,107,2021-05-02 16:13:36:107
0.160416,0.122108,9.79019,0.163854,0.121675,9.804526,-0.001495,-6.29E-4,-1.89E-4,19.98,3.18,-103.68,281.1409,-0.7089,-0.9625,55.81408,37.500366,210.7,NaN,,14.388,,0 / 4,,117,2021-05-02 16:13:36:117
0.177176,0.114925,9.759064,0.163854,0.121675,9.804526,-0.001495,-6.29E-4,-1.89E-4,19.74,3.24,-104.16,281.1409,-0.7089,-0.9625,55.81408,37.500366,210.7,NaN,,14.388,,0 / 4,,127,2021-05-02 16:13:36:127
0.174782,0.129291,9.768641,0.163452,0.121945,9.804529,3.37E-4,5.93E-4,0.002865,19.74,3.24,-104.16,281.1409,-0.7089,-0.9625,55.81408,37.500366,210.7,NaN,,14.388,,0 / 4,,137,2021-05-02 16:13:36:137
0.174782,0.129291,9.768641,0.163452,0.121945,9.804529,0.001559,0.001814,0.004087,20.4,3.24,-104.88,281.1873,-0.7125,-0.9551,55.81408,37.500366,210.7,NaN,,14.388,,0 / 4,,147,2021-05-02 16:13:36:147
0.158022,0.117319,9.77343,0.163323,0.121896,9.804532,-8.85E-4,5.93E-4,4.21E-4,20.4,3.24,-104.88,281.1873,-0.7125,-0.9551,55.81408,37.500366,210.7,NaN,,14.388,,0 / 4,,157,2021-05-02 16:13:36:157
0.167599,0.112531,9.744699,0.163265,0.12198,9.804532,9.48E-4,-1.8E-5,0.001032,20.46,2.88,-104.16,281.1873,-0.7125,-0.9551,55.81408,37.500366,210.7,NaN,,14.388,,0 / 4,,167,2021-05-02 16:13:36:167
0.169994,0.119714,9.771035,0.163265,0.12198,9.804532,0.001559,-1.8E-5,4.21E-4,20.46,2.88,-104.16,281.1873,-0.7125,-0.9551,55.81408,37.500366,210.7,NaN,,14.388,,0 / 4,,177,2021-05-02 16:13:36:177
0.158022,0.117319,9.749487,0.163633,0.122043,9.804525,-2.74E-4,-0.001851,-0.002022,20.04,3.06,-103.86,281.1661,-0.7127,-0.954,55.81408,37.500366,210.7,NaN,,14.388,,0 / 4,,187,2021-05-02 16:13:36:187
0.174782,0.126897,9.751882,0.163633,0.122043,9.804525,3.37E-4,0.001814,0.001643,20.04,3.06,-103.86,281.1661,-0.7127,-0.954,55.81408,37.500366,210.7,NaN,,14.388,,0 / 4,,198,2021-05-02 16:13:36:198
0.174782,0.126897,9.751882,0.16329,0.122227,9.804528,-8.85E-4,0.001814,0.002254,19.8,3.24,-103.86,281.1661,-0.7127,-0.954,55.81408,37.500366,210.7,NaN,,14.388,,0 / 4,,208,2021-05-02 16:13:36:208
0.162811,0.126897,9.751882,0.16329,0.122227,9.804528,0.001559,-0.00124,0.002254,19.8,3.24,-103.86,281.1661,-0.7127,-0.954,55.81408,37.500366,210.7,NaN,,14.388,,0 / 4,,217,2021-05-02 16:13:36:217
0.174782,0.122108,9.766247,0.163238,0.122291,9.804529,-2.74E-4,-0.001851,-8.0E-4,20.22,3.18,-103.62,281.1726,-0.7141,-0.9541,55.81408,37.500366,210.7,NaN,,14.388,,0 / 4,,227,2021-05-02 16:13:36:227
0.184359,0.112531,9.754275,0.163238,0.122291,9.804529,0.001559,0.001203,-8.0E-4,20.22,3.18,-103.62,281.1726,-0.7141,-0.9541,55.81408,37.500366,210.7,NaN,,14.388,,0 / 4,,237,2021-05-02 16:13:36:237
0.184359,0.112531,9.754275,0.16372,0.122199,9.804522,0.001559,-1.8E-5,-0.001411,20.76,3.18,-104.16,281.1726,-0.7141,-0.9541,55.81408,37.500366,210.7,NaN,,14.388,,0 / 4,,247,2021-05-02 16:13:36:247
0.155628,0.110137,9.771035,0.16372,0.122199,9.804522,3.37E-4,-0.00124,-0.001411,20.76,3.18,-104.16,281.1726,-0.7141,-0.9541,55.81408,37.500366,210.7,NaN,,14.388,,0 / 4,,257,2021-05-02 16:13:36:257
0.160416,0.134079,9.747093,0.164337,0.121956,9.804514,-0.001495,-6.29E-4,-0.001411,20.7,3.3,-103.98,280.6893,-0.714,-0.9567,55.81408,37.500366,210.7,NaN,,14.388,,0 / 4,,267,2021-05-02 16:13:36:267
0.174782,0.131685,9.771035,0.164337,0.121956,9.804514,0.004002,5.93E-4,0.002865,20.7,3.3,-103.98,280.6893,-0.714,-0.9567,55.81408,37.500366,210.7,NaN,,14.388,,0 / 4,,277,2021-05-02 16:13:36:277
0.174782,0.112531,9.763853,0.16445,0.121997,9.804512,-0.001495,-1.8E-5,0.001032,20.46,3.9,-103.5,280.6893,-0.714,-0.9567,55.81408,37.500366,210.7,NaN,,14.388,,0 / 4,,287,2021-05-02 16:13:36:287
0.174782,0.112531,9.763853,0.16445,0.121997,9.804512,0.001559,0.002425,0.001643,20.46,3.9,-103.5,280.6893,-0.714,-0.9567,55.81408,37.500366,210.7,NaN,,14.388,,0 / 4,,298,2021-05-02 16:13:36:298
0.177176,0.122108,9.749487,0.164741,0.12196,9.804508,9.48E-4,0.001203,0.001032,20.28,3.54,-103.62,283.673,-0.7128,-0.9609,55.81408,37.500366,210.7,NaN,,14.388,,0 / 4,,307,2021-05-02 16:13:36:307
0.162811,0.129291,9.747093,0.164741,0.12196,9.804508,-8.85E-4,-0.003073,0.001032,20.28,3.54,-103.62,283.673,-0.7128,-0.9609,55.81408,37.500366,210.7,NaN,,14.388,,0 / 4,,318,2021-05-02 16:13:36:318
0.167599,0.122108,9.751882,0.16486,0.121703,9.804509,0.001559,0.001203,0.002865,20.76,2.7,-103.74,283.673,-0.7128,-0.9609,55.81408,37.500366,210.7,NaN,,14.388,,0 / 4,,327,2021-05-02 16:13:36:327
0.165205,0.126897,9.766247,0.16486,0.121703,9.804509,-0.002106,0.001203,-0.003244,20.76,2.7,-103.74,283.673,-0.7128,-0.9609,55.81408,37.500366,210.7,NaN,,14.388,,0 / 4,,337,2021-05-02 16:13:36:337
0.165205,0.114925,9.744699,0.164932,0.122003,9.804504,-2.74E-4,-6.29E-4,4.21E-4,20.16,2.88,-103.74,281.1501,-0.7111,-0.9633,55.81408,37.500366,210.7,NaN,,14.388,,0 / 4,,348,2021-05-02 16:13:36:348
0.165205,0.114925,9.744699,0.164932,0.122003,9.804504,3.37E-4,-6.29E-4,0.003476,20.16,2.88,-103.74,281.1501,-0.7111,-0.9633,55.81408,37.500366,210.7,NaN,,14.388,,0 / 4,,357,2021-05-02 16:13:36:357
0.148445,0.105348,9.754275,0.165122,0.121868,9.804502,-2.74E-4,-0.002462,0.001643,19.74,3.18,-104.1,281.1501,-0.7111,-0.9633,55.81408,37.500366,210.7,NaN,,14.388,,0 / 4,,367,2021-05-02 16:13:36:367
0.158022,0.126897,9.75667,0.165122,0.121868,9.804502,0.001559,-1.8E-5,-8.0E-4,19.74,3.18,-104.1,281.1501,-0.7111,-0.9633,55.81408,37.500366,210.7,NaN,,14.388,,0 / 4,,377,2021-05-02 16:13:36:377
0.158022,0.114925,9.761458,0.165079,0.121699,9.804505,-8.85E-4,-6.29E-4,4.21E-4,19.92,3.12,-104.22,281.1531,-0.712,-0.9649,55.81408,37.500366,210.7,NaN,,14.388,,0 / 4,,387,2021-05-02 16:13:36:387
0.158022,0.114925,9.761458,0.165079,0.121699,9.804505,3.37E-4,0.001203,0.001032,19.92,3.12,-104.22,281.1531,-0.712,-0.9649,55.81408,37.500366,210.7,NaN,,14.388,,0 / 4,,397,2021-05-02 16:13:36:397
0.167599,0.124502,9.751882,0.165017,0.122065,9.804502,-2.74E-4,0.003036,0.001643,19.68,2.76,-104.16,281.1531,-0.712,-0.9649,55.81408,37.500366,210.7,NaN,,14.388,,0 / 4,,407,2021-05-02 16:13:36:407
0.172388,0.124502,9.77343,0.165017,0.122065,9.804502,-2.74E-4,0.003036,0.001643,19.68,2.76,-104.16,281.1531,-0.712,-0.9649,55.81408,37.500366,210.7,NaN,,14.388,,0 / 4,,417,2021-05-02 16:13:36:417
0.162811,0.119714,9.75667,0.164495,0.122247,9.804508,-0.001495,-0.00124,-0.002022,20.1,3.36,-104.1,281.159,-0.7132,-0.9642,55.81408,37.500366,210.7,NaN,,14.388,,0 / 4,,427,2021-05-02 16:13:36:427
0.162811,0.119714,9.75667,0.164495,0.122247,9.804508,-0.001495,-6.29E-4,0.001643,20.1,3.36,-104.1,281.159,-0.7132,-0.9642,55.81408,37.500366,210.7,NaN,,14.388,,0 / 4,,437,2021-05-02 16:13:36:437
0.155628,0.129291,9.763853,0.164008,0.121998,9.80452,-8.85E-4,0.001203,4.21E-4,20.4,3.6,-104.04,281.159,-0.7132,-0.9642,55.81408,37.500366,210.7,NaN,,14.388,,0 / 4,,447,2021-05-02 16:13:36:447
0.143657,0.136474,9.766247,0.164008,0.121998,9.80452,0.001559,5.93E-4,4.21E-4,20.4,3.6,-104.04,281.159,-0.7132,-0.9642,55.81408,37.500366,210.7,NaN,,14.388,,0 / 4,,457,2021-05-02 16:13:36:457
0.143657,0.131685,9.759064,0.163858,0.121238,9.804532,0.00217,-1.8E-5,0.002865,20.46,3.24,-104.1,281.1626,-0.7128,-0.9583,55.81408,37.500366,210.7,NaN,,14.388,,0 / 4,,467,2021-05-02 16:13:36:467
0.165205,0.126897,9.77343,0.163858,0.121238,9.804532,-2.74E-4,-6.29E-4,0.001032,20.46,3.24,-104.1,281.1626,-0.7128,-0.9583,55.81408,37.500366,210.7,NaN,,14.388,,0 / 4,,477,2021-05-02 16:13:36:477
0.165205,0.126897,9.77343,0.163995,0.121348,9.804528,-2.74E-4,-0.003684,4.21E-4,20.46,3.0,-103.98,281.1626,-0.7128,-0.9583,55.81408,37.500366,210.7,NaN,,14.388,,0 / 4,,488,2021-05-02 16:13:36:488
0.172388,0.119714,9.763853,0.163995,0.121348,9.804528,-2.74E-4,-0.001851,-0.002022,20.46,3.0,-103.98,281.1626,-0.7128,-0.9583,55.81408,37.500366,210.7,NaN,,14.388,,0 / 4,,498,2021-05-02 16:13:36:498
0.174782,0.124502,9.766247,0.164144,0.121665,9.804522,-2.74E-4,0.003647,4.21E-4,19.98,3.18,-103.74,281.1452,-0.709,-0.9583,55.81408,37.500366,210.7,NaN,,14.388,,0 / 4,,508,2021-05-02 16:13:36:508
0.160416,0.129291,9.763853,0.164144,0.121665,9.804522,0.001559,5.93E-4,4.21E-4,19.98,3.18,-103.74,281.1452,-0.709,-0.9583,55.81408,37.500366,210.7,NaN,,14.388,,0 / 4,,517,2021-05-02 16:13:36:517
0.160416,0.129291,9.763853,0.163954,0.122341,9.804517,-8.85E-4,-0.001851,-0.001411,20.04,3.42,-103.68,281.1452,-0.709,-0.9583,55.81408,37.500366,210.7,NaN,,14.388,,0 / 4,,527,2021-05-02 16:13:36:527
0.162811,0.119714,9.771035,0.163954,0.122341,9.804517,-8.85E-4,-0.00124,0.001032,20.04,3.42,-103.68,281.1452,-0.709,-0.9583,55.81408,37.500366,210.7,NaN,,14.388,,0 / 4,,537,2021-05-02 16:13:36:537
0.162811,0.114925,9.759064,0.164254,0.122168,9.804513,-8.85E-4,-0.001851,0.003476,20.16,3.42,-103.92,281.1721,-0.7148,-0.958,55.81408,37.500366,210.7,NaN,,14.388,,0 / 4,,547,2021-05-02 16:13:36:547
0.172388,0.126897,9.761458,0.164254,0.122168,9.804513,-0.002106,-0.001851,-0.001411,20.16,3.42,-103.92,281.1721,-0.7148,-0.958,55.81408,37.500366,210.7,NaN,,14.388,,0 / 4,,557,2021-05-02 16:13:36:557
0.158022,0.114925,9.744699,0.164192,0.121995,9.804517,9.48E-4,-6.29E-4,-0.002633,20.28,3.48,-103.74,281.1721,-0.7148,-0.958,55.81408,37.500366,210.7,NaN,,14.388,,0 / 4,,567,2021-05-02 16:13:36:567
0.158022,0.114925,9.744699,0.164192,0.121995,9.804517,0.001559,-0.001851,0.001032,20.28,3.48,-103.74,281.1721,-0.7148,-0.958,55.81408,37.500366,210.7,NaN,,14.388,,0 / 4,,577,2021-05-02 16:13:36:577
0.160416,0.124502,9.751882,0.16433,0.121825,9.804516,3.37E-4,5.93E-4,-8.0E-4,20.52,3.54,-104.04,283.094,-0.7128,-0.9594,55.81408,37.500366,210.7,NaN,,14.388,,0 / 4,,587,2021-05-02 16:13:36:587
0.160416,0.117319,9.73991,0.16433,0.121825,9.804516,9.48E-4,0.001814,4.21E-4,20.52,3.54,-104.04,283.094,-0.7128,-0.9594,55.81408,37.500366,210.7,NaN,,14.388,,0 / 4,,597,2021-05-02 16:13:36:597
0.172388,0.124502,9.754275,0.164193,0.121897,9.804518,-0.001495,-0.00124,-8.0E-4,20.28,3.24,-103.86,283.094,-0.7128,-0.9594,55.81408,37.500366,210.7,NaN,,14.388,,0 / 4,,608,2021-05-02 16:13:36:608
0.165205,0.119714,9.775824,0.164193,0.121897,9.804518,9.48E-4,0.002425,0.002254,20.28,3.24,-103.86,283.094,-0.7128,-0.9594,55.81408,37.500366,210.7,NaN,,14.388,,0 / 4,,617,2021-05-02 16:13:36:617
0.165205,0.119714,9.775824,0.164445,0.122198,9.80451,-2.74E-4,-1.8E-5,-0.001411,20.16,2.82,-103.8,281.1589,-0.7122,-0.9594,55.81408,37.500366,210.7,NaN,,14.388,,0 / 4,,627,2021-05-02 16:13:36:627
0.172388,0.119714,9.73991,0.164445,0.122198,9.80451,3.37E-4,-1.8E-5,-1.89E-4,20.16,2.82,-103.8,281.1589,-0.7122,-0.9594,55.81408,37.500366,210.7,NaN,,14.388,,0 / 4,,637,2021-05-02 16:13:36:637
0.160416,0.117319,9.763853,0.164554,0.122605,9.804503,-0.001495,-6.29E-4,-0.001411,20.34,3.3,-104.46,281.1589,-0.7122,-0.9594,55.81408,37.500366,210.7,NaN,,14.388,,0 / 4,,648,2021-05-02 16:13:36:648
0.172388,0.129291,9.749487,0.164554,0.122605,9.804503,-8.85E-4,-0.004294,4.21E-4,20.34,3.3,-104.46,281.1589,-0.7122,-0.9594,55.81408,37.500366,210.7,NaN,,14.388,,0 / 4,,657,2021-05-02 16:13:36:657
0.160416,0.122108,9.771035,0.16462,0.122676,9.804501,3.37E-4,-0.00124,0.001032,20.28,3.72,-104.58,283.7092,-0.7163,-0.9615,55.81408,37.500366,210.7,NaN,,14.388,,0 / 4,,667,2021-05-02 16:13:36:667
0.160416,0.122108,9.771035,0.16462,0.122676,9.804501,0.001559,-1.8E-5,-0.002022,20.28,3.72,-104.58,283.7092,-0.7163,-0.9615,55.81408,37.500366,210.7,NaN,,14.388,,0 / 4,,677,2021-05-02 16:13:36:677
0.153234,0.124502,9.763853,0.165098,0.123049,9.804488,0.001559,5.93E-4,0.002865,20.4,3.6,-104.34,283.7092,-0.7163,-0.9615,55.81408,37.500366,210.7,NaN,,14.388,,0 / 4,,687,2021-05-02 16:13:36:687
0.153234,0.110137,9.766247,0.165098,0.123049,9.804488,3.37E-4,-1.8E-5,0.001643,20.4,3.6,-104.34,283.7092,-0.7163,-0.9615,55.81408,37.500366,210.7,NaN,,14.388,,0 / 4,,697,2021-05-02 16:13:36:697
0.162811,0.112531,9.763853,0.164919,0.123226,9.804488,3.37E-4,0.003036,-0.002022,20.28,3.78,-103.8,283.6965,-0.7189,-0.9647,55.81408,37.500366,210.7,NaN,,14.388,,0 / 4,,708,2021-05-02 16:13:36:708
0.155628,0.105348,9.751882,0.164919,0.123226,9.804488,0.00217,0.001814,-0.003244,20.28,3.78,-103.8,283.6965,-0.7189,-0.9647,55.81408,37.500366,210.7,NaN,,14.388,,0 / 4,,717,2021-05-02 16:13:36:717
0.155628,0.105348,9.751882,0.165154,0.122897,9.804489,9.48E-4,5.93E-4,0.001643,20.64,4.38,-103.62,283.6965,-0.7189,-0.9647,55.81408,37.500366,210.7,NaN,,14.388,,0 / 4,,728,2021-05-02 16:13:36:728
0.169994,0.114925,9.747093,0.165154,0.122897,9.804489,-8.85E-4,-0.00124,4.21E-4,20.64,4.38,-103.62,283.6965,-0.7189,-0.9647,55.81408,37.500366,210.7,NaN,,14.388,,0 / 4,,737,2021-05-02 16:13:36:737
0.162811,0.119714,9.768641,0.165319,0.122791,9.804488,-8.85E-4,-0.00124,4.21E-4,20.4,4.38,-103.68,283.6921,-0.718,-0.965,55.81408,37.500366,210.7,NaN,,14.388,,0 / 4,,747,2021-05-02 16:13:36:747
0.177176,0.124502,9.759064,0.165319,0.122791,9.804488,-0.002106,-0.001851,4.21E-4,20.4,4.38,-103.68,283.6921,-0.718,-0.965,55.81408,37.500366,210.7,NaN,,14.388,,0 / 4,,758,2021-05-02 16:13:36:758
0.172388,0.129291,9.771035,0.166275,0.12284,9.804471,0.00217,-0.00124,0.002865,19.2,3.54,-104.34,283.6921,-0.718,-0.965,55.81408,37.500366,210.7,NaN,,14.388,,0 / 4,,767,2021-05-02 16:13:36:767
0.172388,0.129291,9.771035,0.166275,0.12284,9.804471,3.37E-4,0.001203,-0.001411,19.2,3.54,-104.34,283.6921,-0.718,-0.965,55.81408,37.500366,210.7,NaN,,14.388,,0 / 4,,777,2021-05-02 16:13:36:777
0.160416,0.129291,9.751882,0.166291,0.123139,9.804467,-0.002106,-0.002462,-0.001411,19.56,2.94,-104.34,281.173,-0.7177,-0.9716,55.81408,37.500366,210.7,NaN,,14.388,,0 / 4,,787,2021-05-02 16:13:36:787
0.165205,0.112531,9.759064,0.166291,0.123139,9.804467,9.48E-4,0.001814,-8.0E-4,19.56,2.94,-104.34,281.173,-0.7177,-0.9716,55.81408,37.500366,210.7,NaN,,14.388,,0 / 4,,797,2021-05-02 16:13:36:797
0.165205,0.112531,9.759064,0.165328,0.122863,9.804486,-0.001495,-0.001851,0.001643,20.46,3.0,-104.34,281.173,-0.7177,-0.9716,55.81408,37.500366,210.7,NaN,,14.388,,0 / 4,,807,2021-05-02 16:13:36:807
0.158022,0.107742,9.768641,0.165328,0.122863,9.804486,-0.001495,-0.001851,0.001643,20.46,3.0,-104.34,281.173,-0.7177,-0.9716,55.81408,37.500366,210.7,NaN,,14.388,,0 / 4,,817,2021-05-02 16:13:36:817
0.160416,0.117319,9.768641,0.1648,0.123163,9.804492,0.001559,-0.002462,0.003476,20.7,3.54,-104.22,283.1092,-0.7179,-0.9661,55.81408,37.500366,210.7,NaN,,14.388,,0 / 4,,828,2021-05-02 16:13:36:828
0.160416,0.117319,9.768641,0.1648,0.123163,9.804492,9.48E-4,-0.002462,0.002254,20.7,3.54,-104.22,283.1092,-0.7179,-0.9661,55.81408,37.500366,210.7,NaN,,14.388,,0 / 4,,837,2021-05-02 16:13:36:837
0.162811,0.112531,9.75667,0.164353,0.123364,9.804497,0.001559,-6.29E-4,-8.0E-4,20.46,4.08,-103.26,283.1092,-0.7179,-0.9661,55.81408,37.500366,210.7,NaN,,14.388,,0 / 4,,848,2021-05-02 16:13:36:848
0.177176,0.126897,9.766247,0.164353,0.123364,9.804497,-2.74E-4,-0.001851,4.21E-4,20.46,4.08,-103.26,283.1092,-0.7179,-0.9661,55.81408,37.500366,210.7,NaN,,14.388,,0 / 4,,857,2021-05-02 16:13:36:857
0.172388,0.119714,9.763853,0.164764,0.123138,9.804493,-2.74E-4,-0.00124,-8.0E-4,20.1,3.9,-104.04,283.7096,-0.7208,-0.9604,55.81408,37.500366,210.7,NaN,,14.388,,0 / 4,,867,2021-05-02 16:13:36:867
0.162811,0.117319,9.761458,0.164764,0.123138,9.804493,-8.85E-4,-1.8E-5,0.001032,19.8,3.24,-104.64,283.7096,-0.7208,-0.9604,55.81408,37.500366,210.7,NaN,,14.388,,0 / 4,,877,2021-05-02 16:13:36:877
0.160416,0.126897,9.747093,0.16489,0.123025,9.804492,9.48E-4,0.002425,4.21E-4,19.8,3.24,-104.64,283.7096,-0.7208,-0.9604,55.81408,37.500366,210.7,NaN,,14.388,,0 / 4,,887,2021-05-02 16:13:36:887
0.160416,0.126897,9.747093,0.164956,0.122819,9.804493,-2.74E-4,0.001814,-1.89E-4,20.04,3.42,-104.52,283.7096,-0.7208,-0.9604,55.81408,37.500366,210.7,NaN,,14.388,,0 / 4,,897,2021-05-02 16:13:36:897
0.167599,0.124502,9.744699,0.164956,0.122819,9.804493,-2.74E-4,0.001814,-1.89E-4,20.04,3.42,-104.52,283.7096,-0.7208,-0.9604,55.81408,37.500366,210.7,NaN,,14.388,,0 / 4,,908,2021-05-02 16:13:36:908
0.158022,0.124502,9.771035,0.164901,0.122526,9.804498,-0.002717,-0.00124,0.004087,20.82,3.84,-104.1,283.1032,-0.7159,-0.9636,55.81408,37.500366,210.7,NaN,,14.388,,0 / 4,,918,2021-05-02 16:13:36:918
0.143657,0.131685,9.749487,0.165009,0.122491,9.804497,0.00217,5.93E-4,0.001032,20.52,3.96,-104.52,283.1032,-0.7159,-0.9636,55.81408,37.500366,210.7,NaN,,14.388,,0 / 4,,928,2021-05-02 16:13:36:928
0.143657,0.131685,9.749487,0.165009,0.122491,9.804497,0.00217,5.93E-4,0.001032,20.52,3.96,-104.52,283.1032,-0.7159,-0.9636,55.81408,37.500366,210.7,NaN,,14.388,,0 / 4,,937,2021-05-02 16:13:36:937
0.169994,0.126897,9.742304,0.164687,0.123121,9.804495,9.48E-4,-6.29E-4,-0.003244,20.7,3.66,-103.98,283.1032,-0.7159,-0.9636,55.81408,37.500366,210.7,NaN,,14.388,,0 / 4,,947,2021-05-02 16:13:36:947
0.172388,0.136474,9.768641,0.164687,0.123121,9.804495,9.48E-4,0.001203,0.002254,20.7,3.66,-103.98,283.1032,-0.7159,-0.9636,55.81408,37.500366,210.7,NaN,,14.388,,0 / 4,,957,2021-05-02 16:13:36:957
0.172388,0.119714,9.768641,0.164168,0.124549,9.804484,-2.74E-4,0.003647,4.21E-4,20.82,2.88,-104.16,280.7083,-0.7194,-0.9623,55.81408,37.500366,210.7,NaN,,14.388,,0 / 4,,968,2021-05-02 16:13:36:968
0.172388,0.119714,9.768641,0.164439,0.124688,9.804479,-8.85E-4,0.001203,0.001643,20.64,2.88,-104.52,280.7083,-0.7194,-0.9623,55.81408,37.500366,210.7,NaN,,14.388,,0 / 4,,977,2021-05-02 16:13:36:977
0.153234,0.122108,9.761458,0.164439,0.124688,9.804479,-0.002717,5.93E-4,0.001032,20.64,2.88,-104.52,280.7083,-0.7194,-0.9623,55.81408,37.500366,210.7,NaN,,14.388,,0 / 5,,988,2021-05-02 16:13:36:988
0.165205,0.136474,9.761458,0.164828,0.124474,9.804475,0.001559,0.003036,0.004087,20.22,3.3,-104.34,280.7083,-0.7194,-0.9623,55.81408,37.500366,210.7,NaN,,14.388,,0 / 5,,997,2021-05-02 16:13:36:997
0.165205,0.107742,9.747093,0.164828,0.124474,9.804475,0.002781,-6.29E-4,0.002254,20.22,3.3,-104.34,280.7083,-0.7194,-0.9623,55.81408,37.500366,210.7,NaN,,14.388,,0 / 5,,1007,2021-05-02 16:13:37:007
0.160416,0.131685,9.737515,0.164904,0.123965,9.80448,0.001559,0.001203,0.002254,20.76,2.94,-103.8,280.7423,-0.7273,-0.9631,55.81408,37.500366,210.7,NaN,,14.388,,0 / 5,,1017,2021-05-02 16:13:37:017
0.186753,0.112531,9.749487,0.165553,0.123848,9.80447,9.48E-4,0.001203,0.001032,20.52,3.12,-104.28,280.7423,-0.7273,-0.9631,55.81408,37.500366,210.7,NaN,,14.388,,0 / 5,,1035,2021-05-02 16:13:37:035
0.186753,0.112531,9.749487,0.165553,0.123848,9.80447,9.48E-4,-6.29E-4,-0.001411,20.52,3.12,-104.28,280.7423,-0.7273,-0.9631,55.81408,37.500366,210.7,NaN,,14.388,,0 / 5,,1037,2021-05-02 16:13:37:037
0.150839,0.124502,9.737515,0.165553,0.123848,9.80447,3.37E-4,-6.29E-4,0.001032,20.52,3.12,-104.28,280.7423,-0.7273,-0.9631,55.81408,37.500366,210.7,NaN,,14.388,,0 / 5,,1047,2021-05-02 16:13:37:047
0.162811,0.117319,9.759064,0.166324,0.123999,9.804456,0.001559,-0.001851,-1.89E-4,20.22,3.9,-103.92,283.7145,-0.7236,-0.9674,55.81408,37.500366,210.7,NaN,,14.388,,0 / 5,,1057,2021-05-02 16:13:37:057
0.172388,0.129291,9.75667,0.166324,0.123999,9.804456,3.37E-4,-0.00124,-1.89E-4,20.22,3.9,-103.92,283.7145,-0.7236,-0.9674,55.81408,37.500366,210.7,NaN,,14.388,,0 / 5,,1067,2021-05-02 16:13:37:067
0.172388,0.129291,9.75667,0.166451,0.12451,9.804446,-0.001495,-0.00857,0.002254,20.46,3.96,-103.68,283.7145,-0.7236,-0.9674,55.81408,37.500366,210.7,NaN,,14.388,,0 / 5,,1077,2021-05-02 16:13:37:077
0.172388,0.126897,9.75667,0.166451,0.12451,9.804446,-0.001495,-0.00857,0.002254,20.46,3.96,-103.68,283.7145,-0.7236,-0.9674,55.81408,37.500366,210.7,NaN,,14.388,,0 / 5,,1087,2021-05-02 16:13:37:087
0.169994,0.114925,9.75667,0.167154,0.124231,9.804439,9.48E-4,-6.29E-4,-1.89E-4,20.64,3.18,-104.46,280.7352,-0.7275,-0.9726,55.81408,37.500366,210.7,NaN,,14.388,,0 / 5,,1097,2021-05-02 16:13:37:097
0.172388,0.124502,9.761458,0.167154,0.124231,9.804439,9.48E-4,-0.00124,4.21E-4,20.64,3.18,-104.46,280.7352,-0.7275,-0.9726,55.81408,37.500366,210.7,NaN,,14.388,,0 / 5,,1108,2021-05-02 16:13:37:108
0.186753,0.10056,9.75667,0.167172,0.124348,9.804437,3.37E-4,5.93E-4,-1.89E-4,20.28,3.0,-104.1,280.7352,-0.7275,-0.9726,55.81408,37.500366,210.7,NaN,,14.388,,0 / 5,,1118,2021-05-02 16:13:37:118
0.186753,0.10056,9.75667,0.167172,0.124348,9.804437,9.48E-4,0.003036,0.003476,20.28,3.0,-104.1,280.7352,-0.7275,-0.9726,55.81408,37.500366,210.7,NaN,,14.388,,0 / 5,,1128,2021-05-02 16:13:37:128
0.179571,0.110137,9.763853,0.168147,0.123942,9.804425,9.48E-4,-0.00124,0.001032,19.98,2.88,-103.38,281.1849,-0.7265,-0.9768,55.81408,37.500366,210.7,NaN,,14.388,,0 / 5,,1137,2021-05-02 16:13:37:137
0.148445,0.129291,9.775824,0.168147,0.123942,9.804425,-2.74E-4,5.93E-4,0.001643,19.98,2.88,-103.38,281.1849,-0.7265,-0.9768,55.81408,37.500366,210.7,NaN,,14.388,,0 / 5,,1147,2021-05-02 16:13:37:147
0.153234,0.107742,9.761458,0.168635,0.123553,9.804421,-0.002106,-0.001851,0.002254,20.22,2.52,-103.56,281.1849,-0.7265,-0.9768,55.81408,37.500366,210.7,NaN,,14.388,,0 / 5,,1157,2021-05-02 16:13:37:157
0.153234,0.107742,9.761458,0.168635,0.123553,9.804421,9.48E-4,-0.001851,-0.002022,20.22,2.52,-103.56,281.1849,-0.7265,-0.9768,55.81408,37.500366,210.7,NaN,,14.388,,0 / 5,,1167,2021-05-02 16:13:37:167
0.143657,0.119714,9.754275,0.168505,0.122962,9.804431,0.001559,-6.29E-4,0.001643,20.7,3.24,-103.56,280.6999,-0.7219,-0.9854,55.81408,37.500366,210.7,NaN,,14.388,,0 / 5,,1177,2021-05-02 16:13:37:177
0.158022,0.126897,9.749487,0.168505,0.122962,9.804431,9.48E-4,0.001814,0.002865,20.7,3.24,-103.56,280.6999,-0.7219,-0.9854,55.81408,37.500366,210.7,NaN,,14.388,,0 / 5,,1187,2021-05-02 16:13:37:187
0.150839,0.124502,9.766247,0.168424,0.122436,9.80444,-2.74E-4,5.93E-4,0.001643,20.58,3.6,-103.5,280.6999,-0.7219,-0.9854,55.81408,37.500366,210.7,NaN,,14.388,,0 / 5,,1197,2021-05-02 16:13:37:197
0.177176,0.129291,9.759064,0.168424,0.122436,9.80444,3.37E-4,-6.29E-4,4.21E-4,20.58,3.6,-103.5,280.6999,-0.7219,-0.9854,55.81408,37.500366,210.7,NaN,,14.388,,0 / 5,,1208,2021-05-02 16:13:37:208
0.177176,0.129291,9.759064,0.168005,0.122507,9.804446,0.003392,-6.29E-4,0.004698,19.8,3.42,-103.8,281.1507,-0.7154,-0.9842,55.81408,37.500366,210.7,NaN,,14.388,,0 / 5,,1218,2021-05-02 16:13:37:218
0.165205,0.117319,9.751882,0.168005,0.122507,9.804446,0.00217,5.93E-4,-0.001411,19.8,3.42,-103.8,281.1507,-0.7154,-0.9842,55.81408,37.500366,210.7,NaN,,14.388,,0 / 5,,1230,2021-05-02 16:13:37:230
0.167599,0.119714,9.763853,0.167892,0.122923,9.804442,3.37E-4,-0.003073,0.004087,19.2,3.84,-103.98,281.1507,-0.7154,-0.9842,55.81408,37.500366,210.7,NaN,,14.388,,0 / 5,,1238,2021-05-02 16:13:37:238
0.160416,0.10056,9.759064,0.167892,0.122923,9.804442,3.37E-4,0.001203,-1.89E-4,19.2,3.84,-103.98,281.1507,-0.7154,-0.9842,55.81408,37.500366,210.7,NaN,,14.388,,0 / 5,,1247,2021-05-02 16:13:37:247
0.160416,0.10056,9.759064,0.167736,0.122448,9.804451,0.001559,-6.29E-4,0.001032,19.92,3.48,-104.58,281.1897,-0.7182,-0.981,55.81408,37.500366,210.7,NaN,,14.388,,0 / 5,,1258,2021-05-02 16:13:37:258
0.167599,0.131685,9.75667,0.167736,0.122448,9.804451,-8.85E-4,-6.29E-4,0.001032,19.92,3.48,-104.58,281.1897,-0.7182,-0.981,55.81408,37.500366,210.7,NaN,,14.388,,0 / 5,,1267,2021-05-02 16:13:37:267
0.172388,0.134079,9.775824,0.166454,0.122703,9.804469,9.48E-4,5.93E-4,-0.002022,20.4,3.24,-104.88,281.1897,-0.7182,-0.981,55.81408,37.500366,210.7,NaN,,14.388,,0 / 5,,1278,2021-05-02 16:13:37:278
0.153234,0.124502,9.763853,0.166454,0.122703,9.804469,0.001559,-0.00124,-0.001411,20.4,3.24,-104.88,281.1897,-0.7182,-0.981,55.81408,37.500366,210.7,NaN,,14.388,,0 / 5,,1288,2021-05-02 16:13:37:288
0.167599,0.136474,9.763853,0.166519,0.122942,9.804465,9.48E-4,-6.29E-4,0.002254,20.4,3.24,-103.98,281.1683,-0.7169,-0.9726,55.81408,37.500366,210.7,NaN,,14.388,,0 / 5,,1297,2021-05-02 16:13:37:297
0.167599,0.136474,9.763853,0.166519,0.122942,9.804465,3.37E-4,-1.8E-5,-1.89E-4,20.4,3.24,-103.98,281.1683,-0.7169,-0.9726,55.81408,37.500366,210.7,NaN,,14.388,,0 / 5,,1307,2021-05-02 16:13:37:307
0.153234,0.141262,9.768641,0.166396,0.123134,9.804465,-0.001495,-6.29E-4,-1.89E-4,20.82,3.06,-103.44,281.1683,-0.7169,-0.9726,55.81408,37.500366,210.7,NaN,,14.388,,0 / 5,,1317,2021-05-02 16:13:37:317
0.177176,0.122108,9.771035,0.166396,0.123134,9.804465,0.002781,-0.001851,0.001643,20.82,3.06,-103.44,281.1683,-0.7169,-0.9726,55.81408,37.500366,210.7,NaN,,14.388,,0 / 5,,1328,2021-05-02 16:13:37:328
0.177176,0.122108,9.771035,0.166704,0.1232,9.80446,0.002781,-0.001851,0.001643,20.58,3.06,-103.68,280.7002,-0.7194,-0.9723,55.81408,37.500366,210.7,NaN,,14.388,,0 / 5,,1337,2021-05-02 16:13:37:337
0.167599,0.102954,9.77343,0.166942,0.123214,9.804455,-0.001495,-1.8E-5,0.001643,20.34,3.24,-103.86,280.7002,-0.7194,-0.9723,55.81408,37.500366,210.7,NaN,,14.388,,0 / 5,,1347,2021-05-02 16:13:37:347
0.167599,0.131685,9.775824,0.166942,0.123214,9.804455,0.001559,-1.8E-5,0.001032,20.34,3.24,-103.86,280.7002,-0.7194,-0.9723,55.81408,37.500366,210.7,NaN,,14.388,,0 / 5,,1357,2021-05-02 16:13:37:357
0.174782,0.122108,9.754275,0.16696,0.123234,9.804454,-2.74E-4,0.001203,0.004087,20.04,3.24,-104.22,280.7002,-0.7194,-0.9723,55.81408,37.500366,210.7,NaN,,14.388,,0 / 5,,1367,2021-05-02 16:13:37:367
0.174782,0.122108,9.754275,0.16696,0.123234,9.804454,3.37E-4,-0.001851,0.001032,20.04,3.24,-104.22,280.7002,-0.7194,-0.9723,55.81408,37.500366,210.7,NaN,,14.388,,0 / 5,,1377,2021-05-02 16:13:37:377
0.179571,0.124502,9.761458,0.167898,0.123443,9.804436,-0.001495,-1.8E-5,4.21E-4,20.88,3.78,-104.82,283.1293,-0.72,-0.9756,55.81408,37.500366,210.7,NaN,,14.388,,0 / 5,,1387,2021-05-02 16:13:37:387
0.160416,0.117319,9.759064,0.167898,0.123443,9.804436,3.37E-4,0.001814,0.002865,20.88,3.78,-104.82,283.1293,-0.72,-0.9756,55.81408,37.500366,210.7,NaN,,14.388,,0 / 5,,1399,2021-05-02 16:13:37:399
0.160416,0.119714,9.761458,0.168137,0.123358,9.804433,0.001559,0.001814,0.001032,20.64,3.6,-103.92,283.1293,-0.72,-0.9756,55.81408,37.500366,210.7,NaN,,14.388,,0 / 5,,1407,2021-05-02 16:13:37:407
0.162811,0.124502,9.766247,0.168137,0.123358,9.804433,-2.74E-4,-0.002462,0.003476,20.64,3.6,-103.92,283.1293,-0.72,-0.9756,55.81408,37.500366,210.7,NaN,,14.388,,0 / 5,,1417,2021-05-02 16:13:37:417
0.153234,0.129291,9.759064,0.167959,0.122632,9.804444,-2.74E-4,-0.002462,0.003476,20.04,2.88,-103.68,281.1769,-0.7207,-0.9825,55.81408,37.500366,210.7,NaN,,14.388,,0 / 5,,1428,2021-05-02 16:13:37:428
0.153234,0.129291,9.759064,0.167959,0.122632,9.804444,-0.003328,-0.00124,-0.001411,20.04,2.88,-103.68,281.1769,-0.7207,-0.9825,55.81408,37.500366,210.7,NaN,,14.388,,0 / 5,,1437,2021-05-02 16:13:37:437
0.174782,0.114925,9.75667,0.167394,0.122645,9.804454,9.48E-4,0.002425,0.002865,19.98,2.88,-104.64,281.1769,-0.7207,-0.9825,55.81408,37.500366,210.7,NaN,,14.388,,0 / 5,,1448,2021-05-02 16:13:37:448
0.155628,0.107742,9.766247,0.167394,0.122645,9.804454,9.48E-4,-1.8E-5,0.003476,19.98,2.88,-104.64,281.1769,-0.7207,-0.9825,55.81408,37.500366,210.7,NaN,,14.388,,0 / 5,,1457,2021-05-02 16:13:37:457
0.155628,0.122108,9.763853,0.166819,0.122157,9.80447,9.48E-4,-1.8E-5,0.002865,20.46,3.36,-104.52,281.1849,-0.7166,-0.9781,55.81408,37.500366,210.7,NaN,,14.388,,0 / 5,,1468,2021-05-02 16:13:37:468
0.160416,0.122108,9.763853,0.166819,0.122157,9.80447,3.37E-4,0.003036,-0.001411,20.46,3.36,-104.52,281.1849,-0.7166,-0.9781,55.81408,37.500366,210.7,NaN,,14.388,,0 / 5,,1480,2021-05-02 16:13:37:480
0.174782,0.124502,9.768641,0.16694,0.121621,9.804475,0.002781,0.001814,4.21E-4,20.64,2.88,-103.68,281.1849,-0.7166,-0.9781,55.81408,37.500366,210.7,NaN,,14.388,,0 / 5,,1487,2021-05-02 16:13:37:487
0.186753,0.098165,9.747093,0.16694,0.121621,9.804475,9.48E-4,-1.8E-5,-0.002022,20.64,2.88,-103.68,281.1849,-0.7166,-0.9781,55.81408,37.500366,210.7,NaN,,14.388,,0 / 5,,1498,2021-05-02 16:13:37:498
0.179571,0.122108,9.768641,0.166647,0.121133,9.804486,9.48E-4,-1.8E-5,-0.002022,20.16,3.18,-103.8,281.1253,-0.7077,-0.9738,55.81408,37.500366,210.7,NaN,,14.388,,0 / 5,,1508,2021-05-02 16:13:37:508
0.179571,0.122108,9.768641,0.166647,0.121133,9.804486,0.001559,-1.8E-5,0.002865,20.16,3.18,-103.8,281.1253,-0.7077,-0.9738,55.81408,37.500366,210.7,NaN,,14.388,,0 / 5,,1518,2021-05-02 16:13:37:518
0.146051,0.112531,9.75667,0.16643,0.120664,9.804496,0.002781,0.002425,0.002865,20.4,3.96,-104.04,281.1253,-0.7077,-0.9738,55.81408,37.500366,210.7,NaN,,14.388,,0 / 5,,1527,2021-05-02 16:13:37:527
0.174782,0.110137,9.75667,0.165911,0.120204,9.80451,-2.74E-4,0.001203,-1.89E-4,20.7,4.32,-103.86,281.1253,-0.7077,-0.9738,55.81408,37.500366,210.7,NaN,,14.388,,0 / 5,,1537,2021-05-02 16:13:37:537
0.143657,0.126897,9.744699,0.165911,0.120204,9.80451,-0.001495,5.93E-4,0.002254,20.7,4.32,-103.86,281.1253,-0.7077,-0.9738,55.81408,37.500366,210.7,NaN,,14.388,,0 / 5,,1547,2021-05-02 16:13:37:547
0.143657,0.126897,9.744699,0.165759,0.119363,9.804523,3.37E-4,-0.002462,-1.89E-4,20.52,3.6,-103.38,283.0187,-0.7023,-0.9695,55.81408,37.500366,210.7,NaN,,14.388,,0 / 5,,1558,2021-05-02 16:13:37:558
0.162811,0.114925,9.783007,0.165759,0.119363,9.804523,0.001559,5.93E-4,0.001032,20.52,3.6,-103.38,283.0187,-0.7023,-0.9695,55.81408,37.500366,210.7,NaN,,14.388,,0 / 5,,1568,2021-05-02 16:13:37:568
0.167599,0.126897,9.763853,0.165313,0.118216,9.804544,0.001559,0.001814,-8.0E-4,20.4,3.72,-102.9,283.0187,-0.7023,-0.9695,55.81408,37.500366,210.7,NaN,,14.388,,0 / 5,,1578,2021-05-02 16:13:37:578
0.167599,0.119714,9.759064,0.165313,0.118216,9.804544,9.48E-4,0.001814,4.21E-4,20.4,3.72,-102.9,283.0187,-0.7023,-0.9695,55.81408,37.500366,210.7,NaN,,14.388,,0 / 5,,1587,2021-05-02 16:13:37:587
0.167599,0.119714,9.759064,0.165313,0.118397,9.804542,3.37E-4,-0.001851,0.001643,20.28,3.84,-102.84,283.5482,-0.6907,-0.966,55.81408,37.500366,210.7,NaN,,14.388,,0 / 5,,1597,2021-05-02 16:13:37:597
0.165205,0.129291,9.780613,0.165313,0.118397,9.804542,-2.74E-4,0.001814,4.21E-4,20.28,3.84,-102.84,283.5482,-0.6907,-0.966,55.81408,37.500366,210.7,NaN,,14.388,,0 / 5,,1607,2021-05-02 16:13:37:607
0.167599,0.122108,9.771035,0.165904,0.118727,9.804528,0.002781,0.001203,4.21E-4,19.98,3.06,-103.38,283.5482,-0.6907,-0.966,55.81408,37.500366,210.7,NaN,,14.388,,0 / 5,,1617,2021-05-02 16:13:37:617
0.179571,0.126897,9.761458,0.165904,0.118727,9.804528,0.001559,0.002425,0.001643,19.98,3.06,-103.38,283.5482,-0.6907,-0.966,55.81408,37.500366,210.7,NaN,,14.388,,0 / 5,,1627,2021-05-02 16:13:37:627
0.153234,0.110137,9.747093,0.166027,0.118798,9.804524,9.48E-4,-6.29E-4,4.21E-4,19.92,2.52,-103.44,281.0425,-0.6937,-0.9694,55.81408,37.500366,210.7,NaN,,14.388,,0 / 5,,1637,2021-05-02 16:13:37:637
0.150839,0.126897,9.754275,0.166027,0.118798,9.804524,-2.74E-4,-0.002462,-1.89E-4,19.92,2.52,-103.44,281.0425,-0.6937,-0.9694,55.81408,37.500366,210.7,NaN,,14.388,,0 / 5,,1647,2021-05-02 16:13:37:647
0.150839,0.126897,9.754275,0.166781,0.118845,9.804512,-2.74E-4,0.001814,-0.003244,20.1,1.98,-103.32,281.0425,-0.6937,-0.9694,55.81408,37.500366,210.7,NaN,,14.388,,0 / 5,,1657,2021-05-02 16:13:37:657
0.158022,0.124502,9.754275,0.166781,0.118845,9.804512,0.002781,0.001203,0.004087,20.22,2.7,-103.5,281.0425,-0.6937,-0.9694,55.81408,37.500366,210.7,NaN,,14.388,,0 / 5,,1667,2021-05-02 16:13:37:667
0.155628,0.134079,9.759064,0.166721,0.119209,9.804508,-2.74E-4,-1.8E-5,0.001032,20.22,2.7,-103.5,281.0425,-0.6937,-0.9694,55.81408,37.500366,210.7,NaN,,14.388,,0 / 5,,1677,2021-05-02 16:13:37:677
0.167599,0.107742,9.754275,0.166721,0.119209,9.804508,-8.85E-4,-0.001851,0.001032,20.4,3.36,-104.58,281.0957,-0.6965,-0.9742,55.81408,37.500366,210.7,NaN,,14.388,,0 / 5,,1687,2021-05-02 16:13:37:687
0.167599,0.107742,9.754275,0.166165,0.119891,9.804509,0.00217,5.93E-4,0.001643,20.4,3.36,-104.58,281.0957,-0.6965,-0.9742,55.81408,37.500366,210.7,NaN,,14.388,,0 / 5,,1697,2021-05-02 16:13:37:697
0.172388,0.124502,9.735122,0.166165,0.119891,9.804509,-2.74E-4,-0.00124,-1.89E-4,20.16,3.66,-103.56,281.0957,-0.6965,-0.9742,55.81408,37.500366,210.7,NaN,,14.388,,0 / 5,,1707,2021-05-02 16:13:37:707
0.169994,0.117319,9.759064,0.165992,0.120131,9.804509,-2.74E-4,0.001814,4.21E-4,20.16,3.66,-103.56,281.0957,-0.6965,-0.9742,55.81408,37.500366,210.7,NaN,,14.388,,0 / 5,,1717,2021-05-02 16:13:37:717
0.165205,0.105348,9.749487,0.165992,0.120131,9.804509,0.001559,-0.00124,4.21E-4,20.82,3.3,-102.84,280.6029,-0.7019,-0.9699,55.81408,37.500366,210.7,NaN,,14.388,,0 / 5,,1727,2021-05-02 16:13:37:727
0.165205,0.098165,9.761458,0.166241,0.120089,9.804505,0.001559,-0.00124,4.21E-4,20.88,2.76,-102.78,280.6029,-0.7019,-0.9699,55.81408,37.500366,210.7,NaN,,14.388,,0 / 5,,1737,2021-05-02 16:13:37:737
0.160416,0.110137,9.768641,0.166241,0.120089,9.804505,0.002781,-0.001851,4.21E-4,20.88,2.76,-102.78,280.6029,-0.7019,-0.9699,55.81408,37.500366,210.7,NaN,,14.388,,0 / 5,,1747,2021-05-02 16:13:37:747
0.160416,0.110137,9.768641,0.165192,0.120112,9.804523,0.00217,0.001203,0.002254,21.24,2.82,-103.26,280.6029,-0.7019,-0.9699,55.81408,37.500366,210.7,NaN,,14.388,,0 / 5,,1757,2021-05-02 16:13:37:757
0.162811,0.107742,9.766247,0.165192,0.120112,9.804523,-2.74E-4,-1.8E-5,0.001643,21.24,2.82,-103.26,280.6029,-0.7019,-0.9699,55.81408,37.500366,210.7,NaN,,14.388,,0 / 5,,1767,2021-05-02 16:13:37:767
0.162811,0.117319,9.775824,0.16511,0.120311,9.804522,-0.001495,0.003036,0.001643,21.66,2.7,-103.56,280.1901,-0.7018,-0.9653,55.81408,37.500366,210.7,NaN,,14.388,,0 / 5,,1777,2021-05-02 16:13:37:777
0.155628,0.110137,9.742304,0.16511,0.120311,9.804522,-8.85E-4,-6.29E-4,4.21E-4,21.66,2.7,-103.56,280.1901,-0.7018,-0.9653,55.81408,37.500366,210.7,NaN,,14.388,,0 / 5,,1787,2021-05-02 16:13:37:787
0.155628,0.110137,9.742304,0.16488,0.120079,9.804529,-2.74E-4,-1.8E-5,4.21E-4,20.7,3.0,-103.62,280.1901,-0.7018,-0.9653,55.81408,37.500366,210.7,NaN,,14.388,,0 / 5,,1797,2021-05-02 16:13:37:797
0.160416,0.119714,9.763853,0.16488,0.120079,9.804529,0.00217,-6.29E-4,0.001032,20.7,3.0,-103.62,280.1901,-0.7018,-0.9653,55.81408,37.500366,210.7,NaN,,14.388,,0 / 5,,1807,2021-05-02 16:13:37:807
0.179571,0.124502,9.763853,0.164261,0.120783,9.804531,9.48E-4,-1.8E-5,0.001032,19.74,3.36,-103.08,281.0838,-0.7016,-0.9634,55.81408,37.500366,210.7,NaN,,14.388,,0 / 5,,1818,2021-05-02 16:13:37:818
0.169994,0.129291,9.766247,0.164261,0.120783,9.804531,-8.85E-4,0.001203,0.002865,19.74,3.36,-103.08,281.0838,-0.7016,-0.9634,55.81408,37.500366,210.7,NaN,,14.388,,0 / 5,,1827,2021-05-02 16:13:37:827
0.169994,0.129291,9.766247,0.164784,0.121056,9.804519,-8.85E-4,0.001203,0.002865,19.5,2.58,-103.08,281.0838,-0.7016,-0.9634,55.81408,37.500366,210.7,NaN,,14.388,,0 / 5,,1837,2021-05-02 16:13:37:837
0.167599,0.119714,9.73991,0.164784,0.121056,9.804519,9.48E-4,0.001814,0.001643,19.5,2.58,-103.08,281.0838,-0.7016,-0.9634,55.81408,37.500366,210.7,NaN,,14.388,,0 / 5,,1848,2021-05-02 16:13:37:848
0.162811,0.129291,9.744699,0.165034,0.121568,9.804507,9.48E-4,0.001814,-1.89E-4,19.86,1.86,-103.68,278.5761,-0.7073,-0.9629,55.81408,37.500366,210.7,NaN,,14.388,,0 / 5,,1858,2021-05-02 16:13:37:858
0.160416,0.107742,9.747093,0.165034,0.121568,9.804507,0.001559,0.002425,0.001643,19.86,1.86,-103.68,278.5761,-0.7073,-0.9629,55.81408,37.500366,210.7,NaN,,14.388,,0 / 5,,1867,2021-05-02 16:13:37:867
0.155628,0.114925,9.771035,0.165424,0.121895,9.804498,-8.85E-4,-6.29E-4,0.001032,20.28,3.0,-103.68,278.5761,-0.7073,-0.9629,55.81408,37.500366,210.7,NaN,,14.388,,0 / 5,,1878,2021-05-02 16:13:37:878
0.155628,0.114925,9.771035,0.165424,0.121895,9.804498,3.37E-4,5.93E-4,-8.0E-4,20.28,3.0,-103.68,278.5761,-0.7073,-0.9629,55.81408,37.500366,210.7,NaN,,14.388,,0 / 5,,1887,2021-05-02 16:13:37:887
0.150839,0.117319,9.747093,0.165437,0.121837,9.804498,-8.85E-4,-1.8E-5,0.003476,20.58,3.24,-103.68,280.6731,-0.7122,-0.9666,55.81408,37.500366,210.7,NaN,,14.388,,0 / 5,,1897,2021-05-02 16:13:37:897
0.148445,0.122108,9.763853,0.165437,0.121837,9.804498,9.48E-4,-1.8E-5,0.001643,20.58,3.24,-103.68,280.6731,-0.7122,-0.9666,55.81408,37.500366,210.7,NaN,,14.388,,0 / 5,,1908,2021-05-02 16:13:37:908
0.174782,0.117319,9.761458,0.16539,0.121963,9.804497,0.002781,0.003036,0.001643,20.94,2.82,-103.56,280.6731,-0.7122,-0.9666,55.81408,37.500366,210.7,NaN,,14.388,,0 / 5,,1917,2021-05-02 16:13:37:917
0.174782,0.117319,9.761458,0.16539,0.121963,9.804497,0.002781,0.003036,0.001643,20.94,2.82,-103.56,280.6731,-0.7122,-0.9666,55.81408,37.500366,210.7,NaN,,14.388,,0 / 5,,1928,2021-05-02 16:13:37:928
0.162811,0.119714,9.761458,0.165204,0.121901,9.804501,0.00217,-1.8E-5,0.003476,21.12,3.06,-103.2,280.6525,-0.7126,-0.9664,55.81408,37.500366,210.7,NaN,,14.388,,0 / 5,,1937,2021-05-02 16:13:37:937
0.174782,0.129291,9.75667,0.164821,0.121635,9.804511,-8.85E-4,-6.29E-4,0.008363,21.0,3.06,-103.2,280.6525,-0.7126,-0.9664,55.81408,37.500366,210.7,NaN,,14.388,,0 / 5,,1950,2021-05-02 16:13:37:950
0.174782,0.129291,9.75667,0.164821,0.121635,9.804511,0.001559,5.93E-4,0.001032,21.0,3.06,-103.2,280.6525,-0.7126,-0.9664,55.81408,37.500366,210.7,NaN,,14.388,,0 / 5,,1957,2021-05-02 16:13:37:957
0.189148,0.112531,9.759064,0.164598,0.121922,9.804511,-2.74E-4,-6.29E-4,0.001032,20.76,2.82,-102.9,280.6525,-0.7126,-0.9664,55.81408,37.500366,210.7,NaN,,14.388,,0 / 5,,1967,2021-05-02 16:13:37:967
0.179571,0.112531,9.747093,0.164598,0.121922,9.804511,-0.002106,-6.29E-4,-1.89E-4,20.76,2.82,-102.9,280.6525,-0.7126,-0.9664,55.81408,37.500366,210.7,NaN,,14.388,,0 / 5,,1977,2021-05-02 16:13:37:977
0.160416,0.102954,9.761458,0.164816,0.121487,9.804513,9.48E-4,-0.003073,4.21E-4,20.7,3.36,-103.08,280.6432,-0.7098,-0.9631,55.81408,37.500366,210.7,NaN,,14.388,,0 / 5,,1987,2021-05-02 16:13:37:987
0.160416,0.102954,9.761458,0.164816,0.121487,9.804513,-0.001495,-1.8E-5,0.002865,20.7,3.36,-103.08,280.6432,-0.7098,-0.9631,55.81408,37.500366,210.7,NaN,,14.388,,0 / 5,,1997,2021-05-02 16:13:37:997
0.155628,0.119714,9.783007,0.166052,0.120554,9.804502,9.48E-4,-0.001851,-0.001411,20.34,3.78,-103.38,280.6432,-0.7098,-0.9631,55.81408,37.500366,210.7,NaN,,14.388,,0 / 5,,2007,2021-05-02 16:13:38:007
0.148445,0.105348,9.763853,0.166052,0.120554,9.804502,-2.74E-4,5.93E-4,-1.89E-4,20.34,3.78,-103.38,280.6432,-0.7098,-0.9631,55.81408,37.500366,210.7,NaN,,14.388,,0 / 5,,2017,2021-05-02 16:13:38:017
0.155628,0.126897,9.763853,0.166307,0.12013,9.804503,0.001559,0.001203,0.001643,19.68,3.6,-103.68,283.6248,-0.7044,-0.9703,55.81408,37.500366,210.7,NaN,,14.388,,0 / 5,,2027,2021-05-02 16:13:38:027
0.155628,0.126897,9.763853,0.166307,0.12013,9.804503,0.00217,5.93E-4,-1.89E-4,19.68,3.6,-103.68,283.6248,-0.7044,-0.9703,55.81408,37.500366,210.7,NaN,,14.388,,0 / 5,,2037,2021-05-02 16:13:38:037
0.160416,0.112531,9.735122,0.166445,0.120502,9.804497,-2.74E-4,-0.00124,-0.002633,20.04,3.54,-103.68,283.6248,-0.7044,-0.9703,55.81408,37.500366,210.7,NaN,,14.388,,0 / 5,,2047,2021-05-02 16:13:38:047
0.153234,0.105348,9.747093,0.166445,0.120502,9.804497,0.004002,-1.8E-5,-1.89E-4,20.04,3.54,-103.68,283.6248,-0.7044,-0.9703,55.81408,37.500366,210.7,NaN,,14.388,,0 / 5,,2057,2021-05-02 16:13:38:057
0.167599,0.122108,9.768641,0.166973,0.119576,9.8045,0.001559,-1.8E-5,0.001643,20.34,3.12,-103.92,281.1095,-0.7041,-0.9726,55.81408,37.500366,210.7,NaN,,14.388,,0 / 5,,2067,2021-05-02 16:13:38:067
0.169994,0.124502,9.77343,0.166973,0.119576,9.8045,-2.74E-4,-0.00124,0.003476,20.34,3.12,-103.92,281.1095,-0.7041,-0.9726,55.81408,37.500366,210.7,NaN,,14.388,,0 / 5,,2078,2021-05-02 16:13:38:078
0.169994,0.124502,9.77343,0.166694,0.119392,9.804506,-2.74E-4,-0.00124,0.003476,20.4,2.76,-103.92,281.1095,-0.7041,-0.9726,55.81408,37.500366,210.7,NaN,,14.388,,0 / 5,,2087,2021-05-02 16:13:38:087
0.165205,0.117319,9.77343,0.166758,0.118841,9.804512,0.001559,-1.8E-5,0.001643,20.94,3.0,-103.8,281.1095,-0.7041,-0.9726,55.81408,37.500366,210.7,NaN,,14.388,,0 / 5,,2098,2021-05-02 16:13:38:098
0.193936,0.110137,9.759064,0.166758,0.118841,9.804512,0.001559,5.93E-4,0.002865,20.94,3.0,-103.8,281.1095,-0.7041,-0.9726,55.81408,37.500366,210.7,NaN,,14.388,,0 / 5,,2107,2021-05-02 16:13:38:107
0.165205,0.122108,9.763853,0.166808,0.118974,9.804509,-0.001495,-1.8E-5,-8.0E-4,21.42,2.94,-103.44,280.5664,-0.6944,-0.9744,55.81408,37.500366,210.7,NaN,,14.388,,0 / 5,,2117,2021-05-02 16:13:38:117
0.181965,0.126897,9.720756,0.166808,0.118974,9.804509,-2.74E-4,0.001814,-8.0E-4,21.42,2.94,-103.44,280.5664,-0.6944,-0.9744,55.81408,37.500366,210.7,NaN,,14.388,,0 / 5,,2128,2021-05-02 16:13:38:128
0.181965,0.126897,9.720756,0.16628,0.119095,9.804517,-0.001495,-0.003073,0.002254,20.82,3.0,-103.14,280.5664,-0.6944,-0.9744,55.81408,37.500366,210.7,NaN,,14.388,,0 / 5,,2138,2021-05-02 16:13:38:138
0.165205,0.114925,9.754275,0.166577,0.118938,9.804514,-8.85E-4,5.93E-4,0.001643,20.64,2.94,-102.96,280.5664,-0.6944,-0.9744,55.81408,37.500366,210.7,NaN,,14.388,,0 / 5,,2147,2021-05-02 16:13:38:147
0.158022,0.126897,9.744699,0.166577,0.118938,9.804514,3.37E-4,-1.8E-5,0.002254,20.64,2.94,-102.96,280.5664,-0.6944,-0.9744,55.81408,37.500366,210.7,NaN,,14.388,,0 / 5,,2157,2021-05-02 16:13:38:157
0.162811,0.131685,9.775824,0.166705,0.118822,9.804513,3.37E-4,-0.00124,-8.0E-4,20.7,2.94,-102.9,280.5697,-0.6949,-0.9734,55.81408,37.500366,210.7,NaN,,14.388,,0 / 5,,2167,2021-05-02 16:13:38:167
0.162811,0.131685,9.775824,0.166705,0.118822,9.804513,-8.85E-4,5.93E-4,0.001643,20.7,2.94,-102.9,280.5697,-0.6949,-0.9734,55.81408,37.500366,210.7,NaN,,14.388,,0 / 5,,2177,2021-05-02 16:13:38:177
0.150839,0.124502,9.75667,0.166632,0.118078,9.804523,-8.85E-4,5.93E-4,0.001643,20.82,2.64,-103.44,280.5697,-0.6949,-0.9734,55.81408,37.500366,210.7,NaN,,14.388,,0 / 5,,2188,2021-05-02 16:13:38:188
0.165205,0.119714,9.751882,0.166767,0.118107,9.804521,0.001559,-6.29E-4,0.002865,20.7,3.06,-103.02,280.5697,-0.6949,-0.9734,55.81408,37.500366,210.7,NaN,,14.388,,0 / 5,,2197,2021-05-02 16:13:38:197
0.165205,0.119714,9.751882,0.166767,0.118107,9.804521,0.00217,-0.001851,0.001643,20.7,3.06,-103.02,280.5697,-0.6949,-0.9734,55.81408,37.500366,210.7,NaN,,14.388,,0 / 5,,2207,2021-05-02 16:13:38:207
0.181965,0.110137,9.761458,0.166407,0.118285,9.804524,0.00217,5.93E-4,0.003476,20.22,3.12,-103.5,281.0215,-0.6901,-0.9745,55.81408,37.500366,210.7,NaN,,14.388,,0 / 5,,2217,2021-05-02 16:13:38:217
0.169994,0.129291,9.75667,0.166407,0.118285,9.804524,3.37E-4,0.001814,-1.89E-4,20.22,3.12,-103.5,281.0215,-0.6901,-0.9745,55.81408,37.500366,210.7,NaN,,14.388,,0 / 5,,2227,2021-05-02 16:13:38:227
0.169994,0.119714,9.759064,0.166188,0.118275,9.804529,-8.85E-4,0.001814,0.001643,19.98,3.36,-103.26,281.0215,-0.6901,-0.9745,55.81408,37.500366,210.7,NaN,,14.388,,0 / 5,,2238,2021-05-02 16:13:38:238
0.153234,0.117319,9.737515,0.166188,0.118275,9.804529,-2.74E-4,-6.29E-4,4.21E-4,19.98,3.36,-103.26,281.0215,-0.6901,-0.9745,55.81408,37.500366,210.7,NaN,,14.388,,0 / 5,,2247,2021-05-02 16:13:38:247
0.172388,0.117319,9.785401,0.166096,0.118151,9.804531,9.48E-4,-1.8E-5,-8.0E-4,20.4,3.18,-103.14,281.0289,-0.691,-0.9711,55.81408,37.500366,210.7,NaN,,14.388,,0 / 5,,2258,2021-05-02 16:13:38:258
0.172388,0.117319,9.785401,0.166096,0.118151,9.804531,-0.001495,-1.8E-5,4.21E-4,20.4,3.18,-103.14,281.0289,-0.691,-0.9711,55.81408,37.500366,210.7,NaN,,14.388,,0 / 5,,2268,2021-05-02 16:13:38:268
0.165205,0.117319,9.761458,0.165908,0.117647,9.804541,3.37E-4,-6.29E-4,4.21E-4,21.0,3.18,-103.44,281.0289,-0.691,-0.9711,55.81408,37.500366,210.7,NaN,,14.388,,0 / 5,,2277,2021-05-02 16:13:38:277
0.136474,0.122108,9.780613,0.165908,0.117647,9.804541,3.37E-4,0.003036,0.002254,21.0,3.18,-103.44,281.0289,-0.691,-0.9711,55.81408,37.500366,210.7,NaN,,14.388,,0 / 5,,2287,2021-05-02 16:13:38:287
0.153234,0.122108,9.768641,0.164937,0.117589,9.804558,-2.74E-4,0.002425,0.001032,20.94,3.18,-103.38,280.5401,-0.6874,-0.9694,55.81408,37.500366,210.7,NaN,,14.388,,0 / 5,,2298,2021-05-02 16:13:38:298
0.153234,0.117319,9.766247,0.164937,0.117589,9.804558,-8.85E-4,-6.29E-4,-8.0E-4,20.94,3.18,-103.38,280.5401,-0.6874,-0.9694,55.81408,37.500366,210.7,NaN,,14.388,,0 / 5,,2308,2021-05-02 16:13:38:308
0.160416,0.117319,9.766247,0.163429,0.117592,9.804584,0.002781,0.001203,0.003476,21.12,2.7,-103.56,280.5401,-0.6874,-0.9694,55.81408,37.500366,210.7,NaN,,14.388,,0 / 5,,2318,2021-05-02 16:13:38:318
0.162811,0.107742,9.749487,0.163429,0.117592,9.804584,0.004002,-0.005516,4.21E-4,21.12,2.7,-103.56,280.5401,-0.6874,-0.9694,55.81408,37.500366,210.7,NaN,,14.388,,0 / 5,,2327,2021-05-02 16:13:38:327
0.184359,0.124502,9.747093,0.163173,0.118475,9.804577,0.003392,-0.005516,0.001643,21.18,2.64,-104.16,280.5723,-0.6871,-0.955,55.81408,37.500366,210.7,NaN,,14.388,,0 / 5,,2337,2021-05-02 16:13:38:337
0.179571,0.126897,9.814133,0.163173,0.118475,9.804577,0.001559,0.001203,4.21E-4,21.18,2.64,-104.16,280.5723,-0.6871,-0.955,55.81408,37.500366,210.7,NaN,,14.388,,0 / 5,,2347,2021-05-02 16:13:38:347
0.198725,0.131685,9.799767,0.16324,0.118977,9.804569,0.001559,-0.002462,0.001032,20.34,3.3,-103.14,280.5723,-0.6871,-0.955,55.81408,37.500366,210.7,NaN,,14.388,,0 / 5,,2357,2021-05-02 16:13:38:357
0.198725,0.131685,9.799767,0.16324,0.118977,9.804569,3.37E-4,0.001814,0.001032,20.34,3.3,-103.14,280.5723,-0.6871,-0.955,55.81408,37.500366,210.7,NaN,,14.388,,0 / 5,,2367,2021-05-02 16:13:38:367
0.169994,0.136474,9.771035,0.16425,0.119139,9.80455,3.37E-4,0.001814,0.001032,20.16,3.48,-102.6,281.0631,-0.6951,-0.9539,55.81408,37.500366,210.7,NaN,,14.388,,0 / 5,,2378,2021-05-02 16:13:38:378
0.146051,0.114925,9.742304,0.16425,0.119139,9.80455,9.48E-4,0.001203,0.001643,20.16,3.48,-102.6,281.0631,-0.6951,-0.9539,55.81408,37.500366,210.7,NaN,,14.388,,0 / 5,,2387,2021-05-02 16:13:38:387
0.150839,0.119714,9.742304,0.164384,0.118905,9.804552,-2.74E-4,5.93E-4,-8.0E-4,20.58,3.0,-103.2,281.0631,-0.6951,-0.9539,55.81408,37.500366,210.7,NaN,,14.388,,0 / 5,,2397,2021-05-02 16:13:38:397
0.153234,0.119714,9.77343,0.164384,0.118905,9.804552,0.001559,-1.8E-5,0.001643,20.58,3.0,-103.2,281.0631,-0.6951,-0.9539,55.81408,37.500366,210.7,NaN,,14.388,,0 / 5,,2407,2021-05-02 16:13:38:407
0.158022,0.112531,9.761458,0.16411,0.119312,9.804551,0.00217,0.001203,0.001643,20.4,2.7,-103.14,281.0552,-0.6947,-0.9605,55.81408,37.500366,210.7,NaN,,14.388,,0 / 5,,2417,2021-05-02 16:13:38:417
0.158022,0.112531,9.761458,0.16411,0.119312,9.804551,9.48E-4,5.93E-4,0.002865,20.4,2.7,-103.14,281.0552,-0.6947,-0.9605,55.81408,37.500366,210.7,NaN,,14.388,,0 / 5,,2427,2021-05-02 16:13:38:427
0.167599,0.129291,9.79019,0.163805,0.120227,9.804545,3.37E-4,0.001814,0.002254,20.58,2.7,-103.62,281.0552,-0.6947,-0.9605,55.81408,37.500366,210.7,NaN,,14.388,,0 / 5,,2437,2021-05-02 16:13:38:437
0.179571,0.131685,9.759064,0.163805,0.120227,9.804545,-0.001495,0.001203,0.002254,20.58,2.7,-103.62,281.0552,-0.6947,-0.9605,55.81408,37.500366,210.7,NaN,,14.388,,0 / 5,,2447,2021-05-02 16:13:38:447
0.177176,0.117319,9.747093,0.163172,0.121087,9.804545,-8.85E-4,5.93E-4,0.002254,20.58,3.18,-104.28,280.6382,-0.7025,-0.9572,55.81408,37.500366,210.7,NaN,,14.388,,0 / 5,,2457,2021-05-02 16:13:38:457
0.177176,0.117319,9.747093,0.163172,0.121087,9.804545,-8.85E-4,0.001203,-1.89E-4,20.58,3.18,-104.28,280.6382,-0.7025,-0.9572,55.81408,37.500366,210.7,NaN,,14.388,,0 / 5,,2467,2021-05-02 16:13:38:467
0.189148,0.119714,9.759064,0.162611,0.121442,9.80455,-0.002106,0.001814,-1.89E-4,20.76,3.48,-104.7,280.6382,-0.7025,-0.9572,55.81408,37.500366,210.7,NaN,,14.388,,0 / 5,,2477,2021-05-02 16:13:38:477
0.179571,0.131685,9.749487,0.162611,0.121442,9.80455,-8.85E-4,5.93E-4,0.002254,20.76,3.48,-104.7,280.6382,-0.7025,-0.9572,55.81408,37.500366,210.7,NaN,,14.388,,0 / 5,,2488,2021-05-02 16:13:38:488
0.167599,0.114925,9.754275,0.164039,0.12216,9.804517,3.37E-4,5.93E-4,0.002254,20.82,3.36,-103.92,280.6753,-0.7096,-0.9502,55.81408,37.500366,210.7,NaN,,14.388,,0 / 5,,2497,2021-05-02 16:13:38:497
0.169994,0.136474,9.766247,0.164039,0.12216,9.804517,0.002781,-0.001851,4.21E-4,20.34,3.3,-103.38,280.6753,-0.7096,-0.9502,55.81408,37.500366,210.7,NaN,,14.388,,0 / 5,,2507,2021-05-02 16:13:38:507
0.160416,0.107742,9.754275,0.165456,0.122837,9.804485,-0.001495,-0.00124,0.001032,20.34,3.3,-103.38,280.6753,-0.7096,-0.9502,55.81408,37.500366,210.7,NaN,,14.388,,0 / 5,,2517,2021-05-02 16:13:38:517
0.155628,0.117319,9.763853,0.165456,0.122837,9.804485,3.37E-4,-0.001851,0.001643,20.64,3.18,-102.78,280.6753,-0.7096,-0.9502,55.81408,37.500366,210.7,NaN,,14.388,,0 / 5,,2531,2021-05-02 16:13:38:531
0.155628,0.117319,9.763853,0.165937,0.122482,9.804481,-8.85E-4,5.93E-4,0.001643,20.64,3.18,-102.78,280.6753,-0.7096,-0.9502,55.81408,37.500366,210.7,NaN,,14.388,,0 / 5,,2537,2021-05-02 16:13:38:537
0.158022,0.119714,9.778218,0.165937,0.122482,9.804481,3.37E-4,0.001814,0.001032,21.0,3.48,-103.2,280.6631,-0.7156,-0.9696,55.81408,37.500366,210.7,NaN,,14.388,,0 / 5,,2548,2021-05-02 16:13:38:548
0.155628,0.117319,9.759064,0.165759,0.122479,9.804484,9.48E-4,-1.8E-5,0.001643,21.0,3.48,-103.2,280.6631,-0.7156,-0.9696,55.81408,37.500366,210.7,NaN,,14.388,,0 / 5,,2557,2021-05-02 16:13:38:557
0.155628,0.117319,9.759064,0.165759,0.122479,9.804484,9.48E-4,-0.001851,0.001643,20.58,3.9,-103.62,280.6631,-0.7156,-0.9696,55.81408,37.500366,210.7,NaN,,14.388,,0 / 5,,2567,2021-05-02 16:13:38:567
0.165205,0.129291,9.744699,0.165766,0.12272,9.804481,0.002781,-1.8E-5,0.001643,20.58,3.9,-103.62,280.6631,-0.7156,-0.9696,55.81408,37.500366,210.7,NaN,,14.388,,0 / 5,,2577,2021-05-02 16:13:38:577
0.165205,0.105348,9.766247,0.165766,0.12272,9.804481,0.001559,-0.00124,0.001643,19.68,3.06,-103.32,281.1492,-0.717,-0.9686,55.81408,37.500366,210.7,NaN,,14.388,,0 / 5,,2587,2021-05-02 16:13:38:587
0.167599,0.117319,9.732727,0.166298,0.122233,9.804478,-8.85E-4,-6.29E-4,-8.0E-4,19.68,3.06,-103.32,281.1492,-0.717,-0.9686,55.81408,37.500366,210.7,NaN,,14.388,,0 / 5,,2598,2021-05-02 16:13:38:598
0.167599,0.117319,9.732727,0.166298,0.122233,9.804478,-8.85E-4,-6.29E-4,-8.0E-4,20.34,2.7,-103.14,281.1492,-0.717,-0.9686,55.81408,37.500366,210.7,NaN,,14.388,,0 / 5,,2607,2021-05-02 16:13:38:607
0.153234,0.119714,9.787795,0.166491,0.121829,9.80448,3.37E-4,-1.8E-5,0.001032,21.0,3.3,-103.14,281.1492,-0.717,-0.9686,55.81408,37.500366,210.7,NaN,,14.388,,0 / 5,,2617,2021-05-02 16:13:38:617
0.141262,0.129291,9.77343,0.166491,0.121829,9.80448,-2.74E-4,-1.8E-5,-0.003855,21.0,3.3,-103.14,281.1492,-0.717,-0.9686,55.81408,37.500366,210.7,NaN,,14.388,,0 / 5,,2627,2021-05-02 16:13:38:627
0.131685,0.143657,9.775824,0.166234,0.121728,9.804485,-8.85E-4,-0.002462,-1.89E-4,20.46,3.3,-103.5,281.1217,-0.7118,-0.9729,55.81408,37.500366,210.7,NaN,,14.388,,0 / 5,,2637,2021-05-02 16:13:38:637
0.169994,0.117319,9.761458,0.166234,0.121728,9.804485,-8.85E-4,-6.29E-4,0.002865,20.46,3.3,-103.5,281.1217,-0.7118,-0.9729,55.81408,37.500366,210.7,NaN,,14.388,,0 / 5,,2647,2021-05-02 16:13:38:647
0.169994,0.117319,9.761458,0.165655,0.121619,9.804497,-2.74E-4,5.93E-4,-0.002022,19.8,2.88,-104.34,281.1217,-0.7118,-0.9729,55.81408,37.500366,210.7,NaN,,14.388,,0 / 5,,2658,2021-05-02 16:13:38:658
0.167599,0.112531,9.732727,0.165199,0.121861,9.804502,3.37E-4,-0.00124,0.001032,19.5,3.06,-103.98,281.1217,-0.7118,-0.9729,55.81408,37.500366,210.7,NaN,,14.388,,0 / 5,,2668,2021-05-02 16:13:38:668
0.167599,0.117319,9.761458,0.165199,0.121861,9.804502,0.00217,0.004258,0.003476,19.5,3.06,-103.98,281.1217,-0.7118,-0.9729,55.81408,37.500366,210.7,NaN,,14.388,,0 / 5,,2677,2021-05-02 16:13:38:677
0.174782,0.107742,9.725544,0.164322,0.122465,9.804508,-2.74E-4,-0.00124,-1.89E-4,20.04,3.36,-103.68,281.1525,-0.712,-0.9653,55.81408,37.500366,210.7,NaN,,14.388,,0 / 5,,2687,2021-05-02 16:13:38:687
0.162811,0.129291,9.75667,0.164322,0.122465,9.804508,-0.001495,-0.00124,0.001032,20.04,3.36,-103.68,281.1525,-0.712,-0.9653,55.81408,37.500366,210.7,NaN,,14.388,,0 / 5,,2697,2021-05-02 16:13:38:697
0.162811,0.129291,9.759064,0.16342,0.122641,9.804522,-0.002106,-1.8E-5,4.21E-4,20.1,3.6,-103.68,281.1525,-0.712,-0.9653,55.81408,37.500366,210.7,NaN,,14.388,,0 / 5,,2707,2021-05-02 16:13:38:707
0.167599,0.114925,9.759064,0.16342,0.122641,9.804522,0.002781,-0.002462,0.002254,19.86,3.96,-103.86,281.1525,-0.712,-0.9653,55.81408,37.500366,210.7,NaN,,14.388,,0 / 5,,2717,2021-05-02 16:13:38:717
0.198725,0.114925,9.771035,0.164025,0.122912,9.804508,-2.74E-4,-0.002462,-8.0E-4,19.86,3.96,-103.86,281.1525,-0.712,-0.9653,55.81408,37.500366,210.7,NaN,,14.388,,0 / 5,,2727,2021-05-02 16:13:38:727
0.21309,0.119714,9.771035,0.164025,0.122912,9.804508,-2.74E-4,-6.29E-4,4.21E-4,19.44,3.96,-105.06,284.3557,-0.7181,-0.9584,55.81408,37.500366,210.7,NaN,,14.388,,0 / 5,,2737,2021-05-02 16:13:38:737
0.196331,0.102954,9.799767,0.166585,0.12306,9.804462,-2.74E-4,0.002425,-8.0E-4,19.44,3.96,-105.06,284.3557,-0.7181,-0.9584,55.81408,37.500366,210.7,NaN,,14.388,,0 / 5,,2747,2021-05-02 16:13:38:747
0.196331,0.102954,9.799767,0.166585,0.12306,9.804462,0.004613,-1.8E-5,0.002865,19.44,3.84,-105.12,284.3557,-0.7181,-0.9584,55.81408,37.500366,210.7,NaN,,14.388,,0 / 5,,2758,2021-05-02 16:13:38:758
0.150839,0.093377,9.75667,0.169042,0.1225,9.804428,-8.85E-4,0.003647,0.003476,19.44,3.84,-105.12,284.3557,-0.7181,-0.9584,55.81408,37.500366,210.7,NaN,,14.388,,0 / 5,,2768,2021-05-02 16:13:38:768
0.105348,0.134079,9.802161,0.169042,0.1225,9.804428,-2.74E-4,-0.003684,0.002865,20.22,3.54,-104.04,283.6566,-0.7157,-0.9878,55.81408,37.500366,210.7,NaN,,14.388,,0 / 5,,2777,2021-05-02 16:13:38:777
0.112531,0.117319,9.838076,0.168812,0.122449,9.804433,-0.002717,-0.004294,0.001032,20.22,3.54,-104.04,283.6566,-0.7157,-0.9878,55.81408,37.500366,210.7,NaN,,14.388,,0 / 5,,2787,2021-05-02 16:13:38:787
0.114925,0.098165,9.847652,0.168812,0.122449,9.804433,0.003392,0.001814,0.002865,20.4,3.72,-103.74,283.6566,-0.7157,-0.9878,55.81408,37.500366,210.7,NaN,,14.388,,0 / 5,,2798,2021-05-02 16:13:38:798
0.114925,0.098165,9.847652,0.166286,0.121968,9.804482,3.37E-4,0.002425,0.001032,20.4,3.72,-103.74,283.6566,-0.7157,-0.9878,55.81408,37.500366,210.7,NaN,,14.388,,0 / 5,,2807,2021-05-02 16:13:38:807
0.155628,0.126897,9.761458,0.165506,0.122316,9.80449,0.00217,5.93E-4,0.002865,20.16,3.66,-104.04,283.6604,-0.7126,-0.9717,55.81408,37.500366,210.7,NaN,,14.388,,0 / 5,,2817,2021-05-02 16:13:38:817
0.184359,0.141262,9.809344,0.165506,0.122316,9.80449,0.002781,0.001203,4.21E-4,20.16,3.66,-104.04,283.6604,-0.7126,-0.9717,55.81408,37.500366,210.7,NaN,,14.388,,0 / 5,,2828,2021-05-02 16:13:38:828
0.181965,0.098165,9.79019,0.164746,0.123109,9.804493,0.001559,-6.29E-4,0.004087,19.92,2.88,-104.46,283.6604,-0.7126,-0.9717,55.81408,37.500366,210.7,NaN,,14.388,,0 / 5,,2838,2021-05-02 16:13:38:838
0.193936,0.102954,9.747093,0.164746,0.123109,9.804493,-2.74E-4,-1.8E-5,0.003476,19.92,2.88,-104.46,283.6604,-0.7126,-0.9717,55.81408,37.500366,210.7,NaN,,14.388,,0 / 5,,2848,2021-05-02 16:13:38:848
0.193936,0.102954,9.747093,0.164649,0.123283,9.804493,-2.74E-4,-1.8E-5,0.003476,20.4,2.7,-104.82,281.2118,-0.7193,-0.9627,55.81408,37.500366,210.7,NaN,,14.388,,0 / 5,,2857,2021-05-02 16:13:38:857
0.165205,0.122108,9.799767,0.164649,0.123283,9.804493,-0.002106,-0.002462,-0.001411,20.4,2.7,-104.82,281.2118,-0.7193,-0.9627,55.81408,37.500366,210.7,NaN,,14.388,,0 / 5,,2867,2021-05-02 16:13:38:867
0.169994,0.126897,9.780613,0.165467,0.123585,9.804475,-2.74E-4,-6.29E-4,0.003476,20.76,2.46,-105.0,281.2118,-0.7193,-0.9627,55.81408,37.500366,210.7,NaN,,14.388,,0 / 5,,2878,2021-05-02 16:13:38:878
0.155628,0.134079,9.792584,0.165467,0.123585,9.804475,-2.74E-4,-0.003684,0.001643,20.76,2.46,-105.0,281.2118,-0.7193,-0.9627,55.81408,37.500366,210.7,NaN,,14.388,,0 / 5,,2888,2021-05-02 16:13:38:888
0.155628,0.134079,9.792584,0.16599,0.123942,9.804461,-0.001495,0.001203,-0.002633,20.22,2.7,-104.34,281.1973,-0.7221,-0.9669,55.81408,37.500366,210.7,NaN,,14.388,,0 / 5,,2898,2021-05-02 16:13:38:898
0.126897,0.131685,9.766247,0.16599,0.123942,9.804461,-8.85E-4,-6.29E-4,0.003476,20.22,2.7,-104.34,281.1973,-0.7221,-0.9669,55.81408,37.500366,210.7,NaN,,14.388,,0 / 5,,2907,2021-05-02 16:13:38:907
0.148445,0.136474,9.749487,0.165812,0.123938,9.804465,9.48E-4,-6.29E-4,-8.0E-4,20.16,3.6,-103.5,281.1973,-0.7221,-0.9669,55.81408,37.500366,210.7,NaN,,14.388,,0 / 5,,2918,2021-05-02 16:13:38:918
0.148445,0.136474,9.749487,0.165812,0.123938,9.804465,9.48E-4,-0.00124,-1.89E-4,20.16,3.6,-103.5,281.1973,-0.7221,-0.9669,55.81408,37.500366,210.7,NaN,,14.388,,0 / 5,,2927,2021-05-02 16:13:38:927
0.169994,0.119714,9.747093,0.165261,0.124337,9.804469,0.002781,0.003036,0.001032,20.64,3.78,-103.68,283.1467,-0.7265,-0.9657,55.81408,37.500366,210.7,NaN,,14.388,,0 / 5,,2937,2021-05-02 16:13:38:937
0.179571,0.110137,9.75667,0.165261,0.124337,9.804469,0.002781,0.003036,0.001032,20.64,3.78,-103.68,283.1467,-0.7265,-0.9657,55.81408,37.500366,210.7,NaN,,14.388,,0 / 5,,2947,2021-05-02 16:13:38:947
0.172388,0.107742,9.759064,0.165539,0.124079,9.804468,-2.74E-4,0.001814,-1.89E-4,19.98,3.72,-103.86,283.1467,-0.7265,-0.9657,55.81408,37.500366,210.7,NaN,,14.388,,0 / 5,,2958,2021-05-02 16:13:38:958
0.186753,0.114925,9.75667,0.165539,0.124079,9.804468,-2.74E-4,-6.29E-4,0.001643,19.98,3.72,-103.86,283.1467,-0.7265,-0.9657,55.813805,37.50021,142.2123,NaN,0.7492,48.0,217.7856,5 / 5,,2968,2021-05-02 16:13:38:968
0.186753,0.114925,9.75667,0.165971,0.123146,9.804472,-2.74E-4,5.93E-4,-8.0E-4,19.5,4.2,-104.04,283.7207,-0.725,-0.9673,55.813805,37.50021,142.2123,NaN,0.7492,48.0,217.7856,5 / 5,,2977,2021-05-02 16:13:38:977
0.165205,0.10056,9.754275,0.165971,0.123146,9.804472,9.48E-4,-1.8E-5,4.21E-4,19.5,4.2,-104.04,283.7207,-0.725,-0.9673,55.813805,37.50021,142.2123,NaN,0.7492,48.0,217.7856,5 / 5,,2988,2021-05-02 16:13:38:988
0.167599,0.131685,9.759064,0.166659,0.122857,9.804464,0.004002,-0.001851,-0.001411,20.28,3.84,-103.86,283.7207,-0.725,-0.9673,55.813805,37.50021,142.2123,NaN,0.7492,48.0,217.7856,5 / 5,,2998,2021-05-02 16:13:38:998
0.167599,0.126897,9.768641,0.166659,0.122857,9.804464,3.37E-4,-1.8E-5,0.001643,20.28,3.84,-103.86,283.7207,-0.725,-0.9673,55.813805,37.50021,142.2123,NaN,0.7492,48.0,217.7856,5 / 5,,3007,2021-05-02 16:13:39:007
0.146051,0.134079,9.771035,0.166879,0.122405,9.804466,-8.85E-4,-1.8E-5,-1.89E-4,20.16,3.9,-103.56,283.6813,-0.7178,-0.9738,55.813805,37.50021,142.2123,NaN,0.7492,48.0,217.7856,5 / 5,,3018,2021-05-02 16:13:39:018
0.155628,0.126897,9.768641,0.166879,0.122405,9.804466,0.001559,0.002425,-0.001411,20.16,3.9,-103.56,283.6813,-0.7178,-0.9738,55.813805,37.50021,142.2123,NaN,0.7492,48.0,217.7856,5 / 5,,3027,2021-05-02 16:13:39:027
0.155628,0.126897,9.768641,0.166879,0.122405,9.804466,0.001559,0.002425,-0.001411,20.16,3.9,-103.56,283.6813,-0.7178,-0.9738,55.813805,37.50021,142.2123,NaN,0.7492,48.0,217.7856,5 / 5,,3037,2021-05-02 16:13:39:037
0.146051,0.134079,9.759064,0.166953,0.122342,9.804466,-0.002106,0.001203,4.21E-4,19.62,3.6,-104.34,283.6813,-0.7178,-0.9738,55.813805,37.50021,142.2123,NaN,0.7492,48.0,217.7856,5 / 5,,3047,2021-05-02 16:13:39:047
0.153234,0.112531,9.751882,0.166953,0.122342,9.804466,-0.002717,-0.00124,-0.002022,19.62,3.6,-104.34,283.6813,-0.7178,-0.9738,55.813805,37.50021,142.2123,NaN,0.7492,48.0,217.7856,5 / 5,,3057,2021-05-02 16:13:39:057
0.153234,0.112531,9.751882,0.166338,0.122667,9.804472,0.00217,-0.003073,-0.003855,20.46,3.36,-103.8,281.156,-0.7148,-0.9756,55.813805,37.50021,142.2123,NaN,0.7492,48.0,217.7856,5 / 5,,3067,2021-05-02 16:13:39:067
0.172388,0.117319,9.780613,0.166338,0.122667,9.804472,9.48E-4,5.93E-4,-0.001411,20.46,3.36,-103.8,281.156,-0.7148,-0.9756,55.813805,37.50021,142.2123,NaN,0.7492,48.0,217.7856,5 / 5,,3077,2021-05-02 16:13:39:077
0.160416,0.110137,9.759064,0.166747,0.123166,9.804459,0.002781,0.001814,0.002254,21.24,3.66,-103.92,281.156,-0.7148,-0.9756,55.813805,37.50021,142.2123,NaN,0.7492,48.0,217.7856,5 / 5,,3087,2021-05-02 16:13:39:087
0.191542,0.117319,9.797373,0.166747,0.123166,9.804459,-2.74E-4,5.93E-4,0.003476,21.24,3.66,-103.92,281.156,-0.7148,-0.9756,55.813805,37.50021,142.2123,NaN,0.7492,48.0,217.7856,5 / 5,,3097,2021-05-02 16:13:39:097
0.153234,0.107742,9.785401,0.1667,0.123389,9.804457,3.37E-4,0.001814,0.001032,20.82,3.48,-103.74,280.6993,-0.7196,-0.9743,55.813805,37.50021,142.2123,NaN,0.7492,48.0,217.7856,5 / 5,,3107,2021-05-02 16:13:39:107
0.153234,0.107742,9.785401,0.1667,0.123389,9.804457,0.001559,0.001203,0.002865,20.82,3.48,-103.74,280.6993,-0.7196,-0.9743,55.813805,37.50021,142.2123,NaN,0.7492,48.0,217.7856,5 / 5,,3117,2021-05-02 16:13:39:117
0.158022,0.119714,9.771035,0.166293,0.123694,9.80446,-0.002106,-0.00124,-1.89E-4,20.7,3.12,-103.38,280.6993,-0.7196,-0.9743,55.813805,37.50021,142.2123,NaN,0.7492,48.0,217.7856,5 / 5,,3127,2021-05-02 16:13:39:127
0.158022,0.119714,9.751882,0.166293,0.123694,9.80446,-2.74E-4,0.001814,-0.001411,20.7,3.12,-103.38,280.6993,-0.7196,-0.9743,55.813805,37.50021,142.2123,NaN,0.7492,48.0,217.7856,5 / 5,,3137,2021-05-02 16:13:39:137
0.141262,0.117319,9.744699,0.166182,0.123567,9.804463,-2.74E-4,-0.001851,-8.0E-4,20.76,3.24,-103.5,280.6922,-0.7227,-0.9717,55.813805,37.50021,142.2123,NaN,0.7492,48.0,217.7856,5 / 5,,3147,2021-05-02 16:13:39:147
0.160416,0.114925,9.771035,0.166182,0.123567,9.804463,3.37E-4,-1.8E-5,0.001643,20.76,3.24,-103.5,280.6922,-0.7227,-0.9717,55.813805,37.50021,142.2123,NaN,0.7492,48.0,217.7856,5 / 5,,3157,2021-05-02 16:13:39:157
0.172388,0.122108,9.751882,0.165764,0.123191,9.804475,9.48E-4,5.93E-4,0.001643,20.4,4.14,-103.86,280.6922,-0.7227,-0.9717,55.813805,37.50021,142.2123,NaN,0.7492,48.0,217.7856,5 / 5,,3167,2021-05-02 16:13:39:167
0.172388,0.122108,9.751882,0.165764,0.123191,9.804475,9.48E-4,5.93E-4,0.001643,20.4,4.14,-103.86,280.6922,-0.7227,-0.9717,55.813805,37.50021,142.2123,NaN,0.7492,48.0,217.7856,5 / 5,,3177,2021-05-02 16:13:39:177
0.179571,0.105348,9.751882,0.165579,0.122668,9.804485,3.37E-4,5.93E-4,-8.0E-4,20.4,4.02,-103.38,283.6749,-0.7198,-0.9686,55.813805,37.50021,142.2123,NaN,0.7492,48.0,217.7856,5 / 5,,3187,2021-05-02 16:13:39:187
0.181965,0.122108,9.778218,0.165579,0.122668,9.804485,3.37E-4,-6.29E-4,0.001643,20.4,4.02,-103.38,283.6749,-0.7198,-0.9686,55.813805,37.50021,142.2123,NaN,0.7492,48.0,217.7856,5 / 5,,3197,2021-05-02 16:13:39:197
0.177176,0.131685,9.785401,0.16596,0.122409,9.804482,-2.74E-4,-1.8E-5,0.003476,20.4,3.6,-103.2,283.6749,-0.7198,-0.9686,55.813805,37.50021,142.2123,NaN,0.7492,48.0,217.7856,5 / 5,,3207,2021-05-02 16:13:39:207
0.177176,0.131685,9.785401,0.16596,0.122409,9.804482,-2.74E-4,0.003036,0.003476,20.4,3.6,-103.2,283.6749,-0.7198,-0.9686,55.813805,37.50021,142.2123,NaN,0.7492,48.0,217.7856,5 / 5,,3217,2021-05-02 16:13:39:217
0.158022,0.117319,9.759064,0.166302,0.12232,9.804477,0.001559,-1.8E-5,0.002865,20.34,3.66,-103.92,283.6741,-0.7152,-0.9697,55.813805,37.50021,142.2123,NaN,0.7492,48.0,217.7856,5 / 5,,3227,2021-05-02 16:13:39:227
0.148445,0.124502,9.744699,0.166302,0.12232,9.804477,-2.74E-4,-0.003073,-0.002022,20.34,3.66,-103.92,283.6741,-0.7152,-0.9697,55.813805,37.50021,142.2123,NaN,0.7492,48.0,217.7856,5 / 5,,3237,2021-05-02 16:13:39:237
0.148445,0.124502,9.744699,0.166377,0.122618,9.804472,-2.74E-4,0.004258,-0.002022,20.16,3.6,-104.16,283.6741,-0.7152,-0.9697,55.813805,37.50021,142.2123,NaN,0.7492,48.0,217.7856,5 / 5,,3248,2021-05-02 16:13:39:248
0.158022,0.112531,9.75667,0.166377,0.122618,9.804472,9.48E-4,-6.29E-4,-0.002022,20.16,3.6,-104.16,283.6741,-0.7152,-0.9697,55.813805,37.50021,142.2123,NaN,0.7492,48.0,217.7856,5 / 5,,3257,2021-05-02 16:13:39:257
0.143657,0.122108,9.744699,0.16596,0.122686,9.804478,9.48E-4,-1.8E-5,0.001032,20.1,3.9,-103.68,283.6769,-0.7164,-0.9722,55.813805,37.50021,142.2123,NaN,0.7492,48.0,217.7856,5 / 5,,3267,2021-05-02 16:13:39:267
0.165205,0.126897,9.747093,0.16596,0.122686,9.804478,9.48E-4,-0.001851,-1.89E-4,20.1,3.9,-103.68,283.6769,-0.7164,-0.9722,55.813805,37.50021,142.2123,NaN,0.7492,48.0,217.7856,5 / 5,,3277,2021-05-02 16:13:39:277
0.186753,0.119714,9.778218,0.164996,0.123133,9.804488,9.48E-4,5.93E-4,-1.89E-4,20.7,4.38,-103.62,283.6769,-0.7164,-0.9722,55.813805,37.50021,142.2123,NaN,0.7492,48.0,217.7856,5 / 5,,3288,2021-05-02 16:13:39:288
0.186753,0.119714,9.778218,0.164996,0.123133,9.804488,9.48E-4,0.001203,4.21E-4,20.7,4.38,-103.62,283.6769,-0.7164,-0.9722,55.813805,37.50021,142.2123,NaN,0.7492,48.0,217.7856,5 / 5,,3298,2021-05-02 16:13:39:298
0.162811,0.110137,9.747093,0.164365,0.123173,9.804499,-0.001495,0.002425,0.001643,20.76,3.96,-104.1,283.118,-0.7194,-0.9641,55.813805,37.50021,142.2123,NaN,0.7492,48.0,217.7856,5 / 5,,3307,2021-05-02 16:13:39:307
0.167599,0.114925,9.761458,0.164298,0.122755,9.804505,0.00217,-1.8E-5,4.21E-4,20.82,3.72,-103.56,283.118,-0.7194,-0.9641,55.813805,37.50021,142.2123,NaN,0.7492,48.0,217.7856,5 / 5,,3317,2021-05-02 16:13:39:317
0.167599,0.114925,9.761458,0.164298,0.122755,9.804505,-0.002717,-0.002462,-8.0E-4,20.82,3.72,-103.56,283.118,-0.7194,-0.9641,55.813805,37.50021,142.2123,NaN,0.7492,48.0,217.7856,5 / 5,,3327,2021-05-02 16:13:39:327
0.141262,0.117319,9.751882,0.164298,0.122754,9.804505,-2.74E-4,0.001814,0.002254,20.7,3.9,-103.74,283.118,-0.7194,-0.9641,55.813805,37.50021,142.2123,NaN,0.7492,48.0,217.7856,5 / 5,,3337,2021-05-02 16:13:39:337
0.162811,0.110137,9.754275,0.164298,0.122754,9.804505,0.001559,-6.29E-4,-1.89E-4,20.7,3.9,-103.74,283.118,-0.7194,-0.9641,55.813805,37.50021,142.2123,NaN,0.7492,48.0,217.7856,5 / 5,,3347,2021-05-02 16:13:39:347
0.160416,0.136474,9.75667,0.164317,0.122759,9.804505,-0.001495,0.001814,-8.0E-4,20.46,3.66,-103.32,283.6729,-0.7172,-0.96,55.813805,37.50021,142.2123,NaN,0.7492,48.0,217.7856,5 / 5,,3357,2021-05-02 16:13:39:357
0.160416,0.117319,9.75667,0.164317,0.122759,9.804505,-0.001495,0.001814,-8.0E-4,20.46,3.66,-103.32,283.6729,-0.7172,-0.96,55.813805,37.50021,142.2123,NaN,0.7492,48.0,217.7856,5 / 5,,3367,2021-05-02 16:13:39:367
0.160416,0.117319,9.75667,0.16411,0.122069,9.804517,3.37E-4,0.001203,4.21E-4,20.4,3.66,-103.92,283.6729,-0.7172,-0.96,55.813805,37.50021,142.2123,NaN,0.7492,48.0,217.7856,5 / 5,,3377,2021-05-02 16:13:39:377
0.155628,0.134079,9.778218,0.16411,0.122069,9.804517,9.48E-4,-6.29E-4,0.002254,20.4,3.66,-103.92,283.6729,-0.7172,-0.96,55.813805,37.50021,142.2123,NaN,0.7492,48.0,217.7856,5 / 5,,3388,2021-05-02 16:13:39:388
0.169994,0.107742,9.780613,0.163379,0.122369,9.804525,-8.85E-4,-0.003684,-8.0E-4,20.04,4.02,-104.22,283.6771,-0.7132,-0.9589,55.813805,37.50021,142.2123,NaN,0.7492,48.0,217.7856,5 / 5,,3397,2021-05-02 16:13:39:397
0.162811,0.114925,9.751882,0.163379,0.122369,9.804525,0.002781,0.001814,-0.002633,20.04,4.02,-104.22,283.6771,-0.7132,-0.9589,55.813805,37.50021,142.2123,NaN,0.7492,48.0,217.7856,5 / 5,,3407,2021-05-02 16:13:39:407
0.179571,0.093377,9.749487,0.163445,0.122357,9.804524,0.00217,-0.00124,0.001643,19.86,3.24,-103.86,283.6771,-0.7132,-0.9589,55.813805,37.50021,142.2123,NaN,0.7492,48.0,217.7856,5 / 5,,3421,2021-05-02 16:13:39:421
0.179571,0.093377,9.749487,0.163445,0.122357,9.804524,-8.85E-4,0.002425,0.001643,19.86,3.24,-103.86,283.6771,-0.7132,-0.9589,55.813805,37.50021,142.2123,NaN,0.7492,48.0,217.7856,5 / 5,,3427,2021-05-02 16:13:39:427
0.167599,0.107742,9.771035,0.164681,0.121506,9.804514,0.002781,-1.8E-5,0.001032,19.92,2.64,-104.22,281.1752,-0.7149,-0.9551,55.813805,37.50021,142.2123,NaN,0.7492,48.0,217.7856,5 / 5,,3437,2021-05-02 16:13:39:437
0.158022,0.117319,9.737515,0.164681,0.121506,9.804514,-0.002106,0.00609,0.003476,19.92,2.64,-104.22,281.1752,-0.7149,-0.9551,55.813805,37.50021,142.2123,NaN,0.7492,48.0,217.7856,5 / 5,,3447,2021-05-02 16:13:39:447
0.158022,0.112531,9.747093,0.164819,0.121336,9.804514,-0.002106,0.00609,0.003476,20.52,3.06,-103.74,281.1752,-0.7149,-0.9551,55.813805,37.50021,142.2123,NaN,0.7492,48.0,217.7856,5 / 5,,3457,2021-05-02 16:13:39:457
0.158022,0.112531,9.747093,0.164819,0.121336,9.804514,0.00217,-0.00124,0.001643,20.52,3.06,-103.74,281.1752,-0.7149,-0.9551,55.813805,37.50021,142.2123,NaN,0.7492,48.0,217.7856,5 / 5,,3467,2021-05-02 16:13:39:467
0.162811,0.126897,9.771035,0.164877,0.121168,9.804516,0.001559,-6.29E-4,-8.0E-4,20.88,3.18,-103.8,280.6617,-0.7089,-0.9631,55.813805,37.50021,142.2123,NaN,0.7492,48.0,217.7856,5 / 5,,3477,2021-05-02 16:13:39:477
0.169994,0.114925,9.768641,0.164877,0.121168,9.804516,0.001559,-6.29E-4,-8.0E-4,20.88,3.18,-103.8,280.6617,-0.7089,-0.9631,55.813805,37.50021,142.2123,NaN,0.7492,48.0,217.7856,5 / 5,,3487,2021-05-02 16:13:39:487
0.167599,0.126897,9.754275,0.164948,0.121122,9.804515,3.37E-4,-0.00124,0.001032,20.28,2.52,-104.04,280.6617,-0.7089,-0.9631,55.813805,37.50021,142.2123,NaN,0.7492,48.0,217.7856,5 / 5,,3497,2021-05-02 16:13:39:497
0.172388,0.114925,9.759064,0.164948,0.121122,9.804515,3.37E-4,0.001203,-8.0E-4,20.28,2.52,-104.04,280.6617,-0.7089,-0.9631,55.813805,37.50021,142.2123,NaN,0.7492,48.0,217.7856,5 / 5,,3507,2021-05-02 16:13:39:507
0.174782,0.126897,9.771035,0.165191,0.120935,9.804513,0.002781,-1.8E-5,0.001643,19.68,2.64,-104.04,281.1341,-0.7077,-0.9638,55.813805,37.50021,142.2123,NaN,0.7492,48.0,217.7856,5 / 5,,3517,2021-05-02 16:13:39:517
0.174782,0.126897,9.771035,0.165191,0.120935,9.804513,3.37E-4,-0.004905,0.002865,19.68,2.64,-104.04,281.1341,-0.7077,-0.9638,55.813805,37.50021,142.2123,NaN,0.7492,48.0,217.7856,5 / 5,,3528,2021-05-02 16:13:39:528
0.169994,0.117319,9.73991,0.165217,0.121361,9.804507,0.001559,0.004258,0.001643,20.16,3.24,-104.04,281.1341,-0.7077,-0.9638,55.813805,37.50021,142.2123,NaN,0.7492,48.0,217.7856,5 / 5,,3538,2021-05-02 16:13:39:538
0.167599,0.131685,9.768641,0.165217,0.121361,9.804507,0.001559,0.004258,0.001643,20.16,3.24,-104.04,281.1341,-0.7077,-0.9638,55.813805,37.50021,142.2123,NaN,0.7492,48.0,217.7856,5 / 5,,3548,2021-05-02 16:13:39:548
0.167599,0.131685,9.768641,0.166054,0.121388,9.804493,3.37E-4,0.001203,0.002865,20.52,3.42,-103.98,280.6604,-0.7091,-0.9654,55.813805,37.50021,142.2123,NaN,0.7492,48.0,217.7856,5 / 5,,3557,2021-05-02 16:13:39:557
0.155628,0.117319,9.718362,0.166054,0.121388,9.804493,-2.74E-4,5.93E-4,0.001032,20.52,3.42,-103.98,280.6604,-0.7091,-0.9654,55.813805,37.50021,142.2123,NaN,0.7492,48.0,217.7856,5 / 5,,3568,2021-05-02 16:13:39:568
0.155628,0.131685,9.75667,0.166364,0.121175,9.80449,-0.001495,-0.00124,0.001643,19.44,3.78,-103.92,280.6604,-0.7091,-0.9654,55.813805,37.50021,142.2123,NaN,0.7492,48.0,217.7856,5 / 5,,3577,2021-05-02 16:13:39:577
0.153234,0.117319,9.737515,0.166364,0.121175,9.80449,-2.74E-4,-0.00124,0.001032,19.44,3.78,-103.92,280.6604,-0.7091,-0.9654,55.813805,37.50021,142.2123,NaN,0.7492,48.0,217.7856,5 / 5,,3587,2021-05-02 16:13:39:587
0.162811,0.131685,9.763853,0.166444,0.120812,9.804493,9.48E-4,-1.8E-5,0.001032,19.32,3.36,-103.8,281.6501,-0.708,-0.9721,55.813805,37.50021,142.2123,NaN,0.7492,48.0,217.7856,5 / 5,,3597,2021-05-02 16:13:39:597
0.165205,0.122108,9.780613,0.166444,0.120812,9.804493,9.48E-4,-6.29E-4,-0.002022,19.32,3.36,-103.8,281.6501,-0.708,-0.9721,55.813805,37.50021,142.2123,NaN,0.7492,48.0,217.7856,5 / 5,,3607,2021-05-02 16:13:39:607
0.165205,0.122108,9.780613,0.165627,0.120149,9.804515,9.48E-4,0.001203,0.001032,20.22,2.52,-104.04,281.6501,-0.708,-0.9721,55.813805,37.50021,142.2123,NaN,0.7492,48.0,217.7856,5 / 5,,3617,2021-05-02 16:13:39:617
0.167599,0.122108,9.763853,0.165627,0.120149,9.804515,-2.74E-4,0.001814,0.002254,20.22,2.52,-104.04,281.6501,-0.708,-0.9721,55.813805,37.50021,142.2123,NaN,0.7492,48.0,217.7856,5 / 5,,3627,2021-05-02 16:13:39:627
0.167599,0.122108,9.763853,0.165627,0.120149,9.804515,-2.74E-4,0.001814,0.002254,20.22,2.52,-104.04,281.6501,-0.708,-0.9721,55.813805,37.50021,142.2123,NaN,0.7492,48.0,217.7856,5 / 5,,3637,2021-05-02 16:13:39:637
0.167599,0.122108,9.763853,0.165627,0.120149,9.804515,-2.74E-4,0.001814,0.002254,20.22,2.52,-104.04,281.6501,-0.708,-0.9721,55.813805,37.50021,142.2123,NaN,0.7492,48.0,217.7856,5 / 5,,3647,2021-05-02 16:13:39:647
0.167599,0.134079,9.763853,0.165454,0.120209,9.804518,3.37E-4,0.002425,0.002865,20.16,3.12,-103.92,281.1069,-0.7023,-0.9668,55.813805,37.50021,142.2123,NaN,0.7492,48.0,217.7856,5 / 5,,3657,2021-05-02 16:13:39:657
0.179571,0.110137,9.742304,0.165454,0.120209,9.804518,0.00217,0.001814,0.001643,20.16,3.12,-103.92,281.1069,-0.7023,-0.9668,55.813805,37.50021,142.2123,NaN,0.7492,48.0,217.7856,5 / 5,,3667,2021-05-02 16:13:39:667
0.179571,0.110137,9.742304,0.164939,0.12027,9.804525,3.37E-4,-0.004294,0.002865,20.46,3.9,-103.74,281.1069,-0.7023,-0.9668,55.813805,37.50021,142.2123,NaN,0.7492,48.0,217.7856,5 / 5,,3677,2021-05-02 16:13:39:677
0.158022,0.141262,9.77343,0.164939,0.12027,9.804525,-0.002717,0.001203,-1.89E-4,20.46,3.9,-103.74,281.1069,-0.7023,-0.9668,55.813805,37.50021,142.2123,NaN,0.7492,48.0,217.7856,5 / 5,,3687,2021-05-02 16:13:39:687
0.158022,0.129291,9.75667,0.165202,0.120906,9.804513,0.00217,-0.00124,0.001643,20.34,3.0,-103.86,281.1113,-0.7027,-0.9638,55.813805,37.50021,142.2123,NaN,0.7492,48.0,217.7856,5 / 5,,3697,2021-05-02 16:13:39:697
0.148445,0.119714,9.763853,0.165202,0.120906,9.804513,9.48E-4,-0.002462,0.002254,20.34,3.0,-103.86,281.1113,-0.7027,-0.9638,55.813805,37.50021,142.2123,NaN,0.7492,48.0,217.7856,5 / 5,,3707,2021-05-02 16:13:39:707
0.153234,0.129291,9.749487,0.164668,0.121688,9.804512,-2.74E-4,-0.001851,0.002254,20.58,3.36,-103.8,281.1113,-0.7027,-0.9638,55.813805,37.50021,142.2123,NaN,0.7492,48.0,217.7856,5 / 5,,3718,2021-05-02 16:13:39:718
0.160416,0.124502,9.778218,0.164668,0.121688,9.804512,-8.85E-4,-1.8E-5,0.002865,20.58,3.36,-103.8,281.1113,-0.7027,-0.9638,55.813805,37.50021,142.2123,NaN,0.7492,48.0,217.7856,5 / 5,,3728,2021-05-02 16:13:39:728
0.160416,0.124502,9.778218,0.164109,0.121846,9.80452,-8.85E-4,-1.8E-5,0.002865,20.22,3.9,-103.86,283.6635,-0.711,-0.9622,55.813805,37.50021,142.2123,NaN,0.7492,48.0,217.7856,5 / 5,,3737,2021-05-02 16:13:39:737
0.160416,0.126897,9.713573,0.164109,0.121846,9.80452,-8.85E-4,-0.001851,4.21E-4,20.22,3.9,-103.86,283.6635,-0.711,-0.9622,55.813805,37.50021,142.2123,NaN,0.7492,48.0,217.7856,5 / 5,,3747,2021-05-02 16:13:39:747
0.181965,0.117319,9.785401,0.163582,0.121965,9.804527,-8.85E-4,-0.00124,0.002254,19.98,4.02,-103.92,283.6635,-0.711,-0.9622,55.813805,37.50021,142.2123,NaN,0.7492,48.0,217.7856,5 / 5,,3757,2021-05-02 16:13:39:757
0.177176,0.124502,9.747093,0.163582,0.121965,9.804527,9.48E-4,-0.002462,0.002254,19.98,4.02,-103.92,283.6635,-0.711,-0.9622,55.813805,37.50021,142.2123,NaN,0.7492,48.0,217.7856,5 / 5,,3767,2021-05-02 16:13:39:767
0.177176,0.124502,9.747093,0.16414,0.122085,9.804516,0.00217,5.93E-4,-8.0E-4,20.58,3.96,-103.8,283.0969,-0.7126,-0.9559,55.813805,37.50021,142.2123,NaN,0.7492,48.0,217.7856,5 / 5,,3777,2021-05-02 16:13:39:777
0.177176,0.119714,9.751882,0.16414,0.122085,9.804516,-2.74E-4,0.001203,4.21E-4,20.58,3.96,-103.8,283.0969,-0.7126,-0.9559,55.813805,37.50021,142.2123,NaN,0.7492,48.0,217.7856,5 / 5,,3787,2021-05-02 16:13:39:787
0.153234,0.110137,9.718362,0.163898,0.121909,9.804523,0.00217,0.004258,0.001032,20.52,3.36,-103.56,283.0969,-0.7126,-0.9559,55.813805,37.50021,142.2123,NaN,0.7492,48.0,217.7856,5 / 5,,3797,2021-05-02 16:13:39:797
0.158022,0.117319,9.761458,0.163898,0.121909,9.804523,0.001559,0.001814,-1.89E-4,20.52,3.36,-103.56,283.0969,-0.7126,-0.9559,55.813805,37.50021,142.2123,NaN,0.7492,48.0,217.7856,5 / 5,,3807,2021-05-02 16:13:39:807
0.150839,0.098165,9.785401,0.163905,0.12179,9.804523,0.00217,-0.003684,0.001032,20.04,3.6,-103.2,283.6535,-0.7123,-0.9577,55.813805,37.50021,142.2123,NaN,0.7492,48.0,217.7856,5 / 5,,3817,2021-05-02 16:13:39:817
0.162811,0.136474,9.799767,0.163905,0.12179,9.804523,-0.003328,0.001814,-1.89E-4,20.04,3.6,-103.2,283.6535,-0.7123,-0.9577,55.813805,37.50021,142.2123,NaN,0.7492,48.0,217.7856,5 / 5,,3827,2021-05-02 16:13:39:827
0.162811,0.136474,9.799767,0.163973,0.121678,9.804524,-0.003328,0.001814,-1.89E-4,20.1,4.08,-103.32,283.6535,-0.7123,-0.9577,55.813805,37.50021,142.2123,NaN,0.7492,48.0,217.7856,5 / 5,,3837,2021-05-02 16:13:39:837
0.160416,0.119714,9.730332,0.163973,0.121678,9.804524,-0.001495,5.93E-4,-0.001411,20.1,4.08,-103.32,283.6535,-0.7123,-0.9577,55.813805,37.50021,142.2123,NaN,0.7492,48.0,217.7856,5 / 5,,3847,2021-05-02 16:13:39:847
0.162811,0.129291,9.737515,0.164577,0.121492,9.804517,0.00217,-6.29E-4,0.001643,20.34,3.36,-103.92,281.1542,-0.7109,-0.9581,55.813805,37.50021,142.2123,NaN,0.7492,48.0,217.7856,5 / 5,,3857,2021-05-02 16:13:39:857
0.153234,0.117319,9.749487,0.164577,0.121492,9.804517,-0.001495,-1.8E-5,0.005308,20.34,3.36,-103.92,281.1542,-0.7109,-0.9581,55.813805,37.50021,142.2123,NaN,0.7492,48.0,217.7856,5 / 5,,3867,2021-05-02 16:13:39:867
0.153234,0.117319,9.749487,0.16478,0.121311,9.804516,0.00217,-0.003073,4.21E-4,20.04,3.0,-104.34,281.1542,-0.7109,-0.9581,55.813805,37.50021,142.2123,NaN,0.7492,48.0,217.7856,5 / 5,,3877,2021-05-02 16:13:39:877
0.143657,0.122108,9.780613,0.16478,0.121311,9.804516,-0.002717,-0.002462,4.21E-4,20.04,3.0,-104.34,281.1542,-0.7109,-0.9581,55.813805,37.50021,142.2123,NaN,0.7492,48.0,217.7856,5 / 5,,3887,2021-05-02 16:13:39:887
0.169994,0.124502,9.751882,0.163605,0.122255,9.804523,9.48E-4,-0.001851,4.21E-4,19.44,3.18,-104.82,281.6867,-0.7088,-0.9629,55.813805,37.50021,142.2123,NaN,0.7492,48.0,217.7856,5 / 5,,3897,2021-05-02 16:13:39:897
0.158022,0.124502,9.761458,0.163605,0.122255,9.804523,0.00217,-0.00124,0.002254,19.44,3.18,-104.82,281.6867,-0.7088,-0.9629,55.813805,37.50021,142.2123,NaN,0.7492,48.0,217.7856,5 / 5,,3907,2021-05-02 16:13:39:907
0.160416,0.126897,9.775824,0.163188,0.122503,9.804527,-2.74E-4,-0.001851,0.005308,19.74,3.6,-104.34,281.6867,-0.7088,-0.9629,55.813805,37.50021,142.2123,NaN,0.7492,48.0,217.7856,5 / 5,,3917,2021-05-02 16:13:39:917
0.160416,0.126897,9.775824,0.163188,0.122503,9.804527,-0.002717,5.93E-4,-8.0E-4,19.74,3.6,-104.34,281.6867,-0.7088,-0.9629,55.813805,37.50021,142.2123,NaN,0.7492,48.0,217.7856,5 / 5,,3927,2021-05-02 16:13:39:927
0.172388,0.122108,9.77343,0.162934,0.123024,9.804524,-0.001495,0.001814,0.004698,20.34,3.3,-103.8,281.1806,-0.7157,-0.9536,55.813805,37.50021,142.2123,NaN,0.7492,48.0,217.7856,5 / 5,,3937,2021-05-02 16:13:39:937
0.160416,0.122108,9.768641,0.162934,0.123024,9.804524,-0.002106,0.002425,4.21E-4,20.34,3.3,-103.8,281.1806,-0.7157,-0.9536,55.813805,37.50021,142.2123,NaN,0.7492,48.0,217.7856,5 / 5,,3947,2021-05-02 16:13:39:947
0.169994,0.112531,9.730332,0.162533,0.122668,9.804536,-0.003328,0.002425,0.001643,20.22,2.94,-103.5,281.1806,-0.7157,-0.9536,55.813828,37.50021,160.5776,NaN,0.7486,48.0,217.7399,5 / 6,,3957,2021-05-02 16:13:39:957
0.165205,0.105348,9.737515,0.162533,0.122668,9.804536,-0.002106,0.001814,-1.89E-4,20.22,2.94,-103.5,281.1806,-0.7157,-0.9536,55.813828,37.50021,160.5776,NaN,0.7486,48.0,217.7399,5 / 6,,3967,2021-05-02 16:13:39:967
0.148445,0.129291,9.766247,0.161998,0.122728,9.804544,0.002781,5.93E-4,0.002254,19.68,3.6,-103.68,283.7031,-0.7167,-0.9497,55.813828,37.50021,160.5776,NaN,0.7486,48.0,217.7399,5 / 6,,3977,2021-05-02 16:13:39:977
0.148445,0.129291,9.766247,0.161998,0.122728,9.804544,3.37E-4,0.001203,-8.0E-4,19.68,3.6,-103.68,283.7031,-0.7167,-0.9497,55.813828,37.50021,160.5776,NaN,0.7486,48.0,217.7399,5 / 6,,3987,2021-05-02 16:13:39:987
0.153234,0.107742,9.818921,0.16253,0.122686,9.804536,3.37E-4,0.001203,-8.0E-4,19.8,3.78,-104.82,283.7031,-0.7167,-0.9497,55.813828,37.50021,160.5776,NaN,0.7486,48.0,217.7399,5 / 6,,3997,2021-05-02 16:13:39:997
0.153234,0.10056,9.744699,0.16253,0.122686,9.804536,-2.74E-4,5.93E-4,-1.89E-4,19.8,3.78,-104.82,283.7031,-0.7167,-0.9497,55.813828,37.50021,160.5776,NaN,0.7486,48.0,217.7399,5 / 6,,4007,2021-05-02 16:13:40:007
0.184359,0.124502,9.775824,0.16237,0.122869,9.804536,3.37E-4,-0.001851,-0.001411,20.22,3.6,-104.82,283.7247,-0.7168,-0.9497,55.813828,37.50021,160.5776,NaN,0.7486,48.0,217.7399,5 / 6,,4017,2021-05-02 16:13:40:017
0.184359,0.124502,9.775824,0.16237,0.122869,9.804536,3.37E-4,0.001203,-8.0E-4,20.22,3.6,-104.82,283.7247,-0.7168,-0.9497,55.813828,37.50021,160.5776,NaN,0.7486,48.0,217.7399,5 / 6,,4027,2021-05-02 16:13:40:027
0.150839,0.112531,9.715967,0.16296,0.122394,9.804532,-0.001495,-0.001851,-1.89E-4,19.98,3.72,-104.4,283.7247,-0.7168,-0.9497,55.813828,37.50021,160.5776,NaN,0.7486,48.0,217.7399,5 / 6,,4037,2021-05-02 16:13:40:037
0.148445,0.131685,9.780613,0.16296,0.122394,9.804532,-0.002106,0.002425,0.001643,19.98,3.72,-104.4,283.7247,-0.7168,-0.9497,55.813828,37.50021,160.5776,NaN,0.7486,48.0,217.7399,5 / 6,,4047,2021-05-02 16:13:40:047
0.167599,0.124502,9.727939,0.162852,0.122165,9.804537,0.00217,-0.00124,4.21E-4,19.74,4.38,-104.58,283.7141,-0.7151,-0.9522,55.813828,37.50021,160.5776,NaN,0.7486,48.0,217.7399,5 / 6,,4058,2021-05-02 16:13:40:058
0.169994,0.112531,9.771035,0.162852,0.122165,9.804537,-2.74E-4,0.003036,0.002254,19.74,4.38,-104.58,283.7141,-0.7151,-0.9522,55.813828,37.50021,160.5776,NaN,0.7486,48.0,217.7399,5 / 6,,4067,2021-05-02 16:13:40:067
0.179571,0.124502,9.766247,0.162739,0.122402,9.804536,0.001559,0.001814,-8.0E-4,20.28,3.06,-104.4,283.7141,-0.7151,-0.9522,55.813828,37.50021,160.5776,NaN,0.7486,48.0,217.7399,5 / 6,,4078,2021-05-02 16:13:40:078
0.179571,0.124502,9.766247,0.162739,0.122402,9.804536,0.001559,0.001814,-8.0E-4,20.28,3.06,-104.4,283.7141,-0.7151,-0.9522,55.813828,37.50021,160.5776,NaN,0.7486,48.0,217.7399,5 / 6,,4087,2021-05-02 16:13:40:087
0.150839,0.124502,9.754275,0.162863,0.12229,9.804535,-0.002106,-6.29E-4,-0.002633,20.76,2.22,-103.98,278.2468,-0.7152,-0.9509,55.813828,37.50021,160.5776,NaN,0.7486,48.0,217.7399,5 / 6,,4097,2021-05-02 16:13:40:097
0.167599,0.126897,9.761458,0.162863,0.12229,9.804535,3.37E-4,-6.29E-4,-0.002022,20.76,2.22,-103.98,278.2468,-0.7152,-0.9509,55.813828,37.50021,160.5776,NaN,0.7486,48.0,217.7399,5 / 6,,4107,2021-05-02 16:13:40:107
0.167599,0.112531,9.766247,0.163552,0.121735,9.804531,-2.74E-4,-1.8E-5,0.001032,20.52,3.18,-104.16,278.2468,-0.7152,-0.9509,55.813828,37.50021,160.5776,NaN,0.7486,48.0,217.7399,5 / 6,,4117,2021-05-02 16:13:40:117
0.167599,0.112531,9.766247,0.163552,0.121735,9.804531,3.37E-4,-0.003684,-0.001411,20.52,3.18,-104.16,278.2468,-0.7152,-0.9509,55.813828,37.50021,160.5776,NaN,0.7486,48.0,217.7399,5 / 6,,4127,2021-05-02 16:13:40:127
0.165205,0.117319,9.754275,0.16416,0.121349,9.804525,-8.85E-4,-6.29E-4,-0.001411,20.46,3.54,-104.58,283.6928,-0.7113,-0.9557,55.813828,37.50021,160.5776,NaN,0.7486,48.0,217.7399,5 / 6,,4137,2021-05-02 16:13:40:137
0.155628,0.117319,9.751882,0.16416,0.121349,9.804525,-0.001495,-1.8E-5,-1.89E-4,20.46,3.54,-104.58,283.6928,-0.7113,-0.9557,55.813828,37.50021,160.5776,NaN,0.7486,48.0,217.7399,5 / 6,,4147,2021-05-02 16:13:40:147
0.153234,0.114925,9.725544,0.164405,0.120965,9.804525,-2.74E-4,-1.8E-5,-0.001411,20.46,3.96,-104.82,283.6928,-0.7113,-0.9557,55.813828,37.50021,160.5776,NaN,0.7486,48.0,217.7399,5 / 6,,4157,2021-05-02 16:13:40:157
0.148445,0.112531,9.768641,0.164405,0.120965,9.804525,-2.74E-4,-6.29E-4,0.002865,20.46,3.96,-104.82,283.6928,-0.7113,-0.9557,55.813828,37.50021,160.5776,NaN,0.7486,48.0,217.7399,5 / 6,,4167,2021-05-02 16:13:40:167
0.148445,0.112531,9.768641,0.163645,0.11987,9.804552,-2.74E-4,-6.29E-4,0.002865,20.34,4.26,-104.58,283.6667,-0.7068,-0.9607,55.813828,37.50021,160.5776,NaN,0.7486,48.0,217.7399,5 / 6,,4177,2021-05-02 16:13:40:177
0.153234,0.134079,9.754275,0.163645,0.11987,9.804552,0.002781,5.93E-4,0.001643,20.34,4.26,-104.58,283.6667,-0.7068,-0.9607,55.813828,37.50021,160.5776,NaN,0.7486,48.0,217.7399,5 / 6,,4187,2021-05-02 16:13:40:187
0.160416,0.134079,9.761458,0.163305,0.118967,9.804568,0.00217,-1.8E-5,0.002254,20.4,3.9,-104.04,283.6667,-0.7068,-0.9607,55.813828,37.50021,160.5776,NaN,0.7486,48.0,217.7399,5 / 6,,4197,2021-05-02 16:13:40:197
0.167599,0.105348,9.768641,0.163305,0.118967,9.804568,9.48E-4,-1.8E-5,0.003476,20.4,3.9,-104.04,283.6667,-0.7068,-0.9607,55.813828,37.50021,160.5776,NaN,0.7486,48.0,217.7399,5 / 6,,4207,2021-05-02 16:13:40:207
0.158022,0.117319,9.761458,0.163031,0.118665,9.804577,3.37E-4,-6.29E-4,-0.001411,20.34,3.66,-103.86,283.6008,-0.6951,-0.9542,55.813828,37.50021,160.5776,NaN,0.7486,48.0,217.7399,5 / 6,,4217,2021-05-02 16:13:40:217
0.158022,0.117319,9.761458,0.163031,0.118665,9.804577,0.00217,0.001203,0.002254,20.34,3.66,-103.86,283.6008,-0.6951,-0.9542,55.813828,37.50021,160.5776,NaN,0.7486,48.0,217.7399,5 / 6,,4227,2021-05-02 16:13:40:227
0.148445,0.114925,9.727939,0.162453,0.118556,9.804588,3.37E-4,-1.8E-5,0.004087,20.28,3.9,-103.74,283.6008,-0.6951,-0.9542,55.813828,37.50021,160.5776,NaN,0.7486,48.0,217.7399,5 / 6,,4237,2021-05-02 16:13:40:237
0.191542,0.102954,9.761458,0.162453,0.118556,9.804588,0.00217,-0.00124,4.21E-4,20.28,3.9,-103.74,283.6008,-0.6951,-0.9542,55.813828,37.50021,160.5776,NaN,0.7486,48.0,217.7399,5 / 6,,4247,2021-05-02 16:13:40:247
0.158022,0.114925,9.747093,0.162184,0.117775,9.804602,9.48E-4,0.003036,-8.0E-4,19.74,3.72,-103.98,283.5954,-0.6927,-0.9492,55.813828,37.50021,160.5776,NaN,0.7486,48.0,217.7399,5 / 6,,4257,2021-05-02 16:13:40:257
0.160416,0.141262,9.768641,0.162184,0.117775,9.804602,-2.74E-4,5.93E-4,0.002865,19.74,3.72,-103.98,283.5954,-0.6927,-0.9492,55.813828,37.50021,160.5776,NaN,0.7486,48.0,217.7399,5 / 6,,4267,2021-05-02 16:13:40:267
0.160416,0.141262,9.768641,0.162408,0.117208,9.804605,-8.85E-4,-6.29E-4,0.001032,19.68,3.06,-104.46,283.5954,-0.6927,-0.9492,55.813828,37.50021,160.5776,NaN,0.7486,48.0,217.7399,5 / 6,,4277,2021-05-02 16:13:40:277
0.150839,0.122108,9.749487,0.162473,0.117101,9.804605,-8.85E-4,-0.002462,-0.001411,19.68,3.0,-103.86,283.5954,-0.6927,-0.9492,55.813828,37.50021,160.5776,NaN,0.7486,48.0,217.7399,5 / 6,,4287,2021-05-02 16:13:40:287
0.150839,0.107742,9.768641,0.162473,0.117101,9.804605,-0.002106,-0.00124,0.001643,19.68,3.0,-103.86,283.5954,-0.6927,-0.9492,55.813828,37.50021,160.5776,NaN,0.7486,48.0,217.7399,5 / 6,,4297,2021-05-02 16:13:40:297
0.160416,0.110137,9.763853,0.162667,0.116945,9.804604,9.48E-4,0.001203,0.001032,19.86,3.12,-104.22,281.0394,-0.6842,-0.9494,55.813828,37.50021,160.5776,NaN,0.7486,48.0,217.7399,5 / 6,,4307,2021-05-02 16:13:40:307
0.155628,0.131685,9.749487,0.162667,0.116945,9.804604,3.37E-4,-1.8E-5,0.001032,19.86,3.12,-104.22,281.0394,-0.6842,-0.9494,55.813828,37.50021,160.5776,NaN,0.7486,48.0,217.7399,5 / 6,,4317,2021-05-02 16:13:40:317
0.155628,0.131685,9.749487,0.162195,0.117359,9.804606,0.001559,0.001814,4.21E-4,19.68,2.76,-104.7,281.0394,-0.6842,-0.9494,55.813828,37.50021,160.5776,NaN,0.7486,48.0,217.7399,5 / 6,,4327,2021-05-02 16:13:40:327
0.167599,0.107742,9.759064,0.162254,0.117453,9.804605,0.001559,0.001814,4.21E-4,19.62,2.58,-104.7,281.0394,-0.6842,-0.9494,55.813828,37.50021,160.5776,NaN,0.7486,48.0,217.7399,5 / 6,,4337,2021-05-02 16:13:40:337
0.177176,0.119714,9.754275,0.162254,0.117453,9.804605,-2.74E-4,-0.002462,-0.002022,19.62,2.58,-104.7,281.0394,-0.6842,-0.9494,55.813828,37.50021,160.5776,NaN,0.7486,48.0,217.7399,5 / 6,,4347,2021-05-02 16:13:40:347
0.153234,0.110137,9.763853,0.162254,0.117634,9.804603,3.37E-4,-0.00124,-1.89E-4,19.74,2.34,-103.98,278.4885,-0.6862,-0.9481,55.813828,37.50021,160.5776,NaN,0.7486,48.0,217.7399,5 / 6,,4357,2021-05-02 16:13:40:357
0.153234,0.110137,9.763853,0.162254,0.117634,9.804603,-2.74E-4,0.001203,-0.001411,19.74,2.34,-103.98,278.4885,-0.6862,-0.9481,55.813828,37.50021,160.5776,NaN,0.7486,48.0,217.7399,5 / 6,,4367,2021-05-02 16:13:40:367
0.165205,0.138868,9.754275,0.16278,0.118431,9.804584,-8.85E-4,-0.002462,0.001643,20.16,2.94,-103.02,278.4885,-0.6862,-0.9481,55.813828,37.50021,160.5776,NaN,0.7486,48.0,217.7399,5 / 6,,4377,2021-05-02 16:13:40:377
0.172388,0.124502,9.775824,0.163412,0.118933,9.804567,0.00217,0.001203,4.21E-4,20.1,3.24,-103.5,278.4885,-0.6862,-0.9481,55.813828,37.50021,160.5776,NaN,0.7486,48.0,217.7399,5 / 6,,4387,2021-05-02 16:13:40:387
0.162811,0.129291,9.75667,0.163412,0.118933,9.804567,0.002781,-1.8E-5,0.002865,20.1,3.24,-103.5,278.4885,-0.6862,-0.9481,55.813828,37.50021,160.5776,NaN,0.7486,48.0,217.7399,5 / 6,,4397,2021-05-02 16:13:40:397
0.162811,0.105348,9.763853,0.163905,0.119244,9.804555,-2.74E-4,-0.00124,-0.001411,20.28,3.96,-104.04,283.5992,-0.6949,-0.9549,55.813828,37.50021,160.5776,NaN,0.7486,48.0,217.7399,5 / 6,,4408,2021-05-02 16:13:40:408
0.162811,0.105348,9.763853,0.163905,0.119244,9.804555,9.48E-4,-0.00124,0.001032,20.28,3.96,-104.04,283.5992,-0.6949,-0.9549,55.813828,37.50021,160.5776,NaN,0.7486,48.0,217.7399,5 / 6,,4418,2021-05-02 16:13:40:418
0.167599,0.129291,9.768641,0.164409,0.120237,9.804535,-2.74E-4,-6.29E-4,0.004087,20.46,3.12,-104.58,283.5992,-0.6949,-0.9549,55.813828,37.50021,160.5776,NaN,0.7486,48.0,217.7399,5 / 6,,4427,2021-05-02 16:13:40:427
0.160416,0.110137,9.751882,0.16464,0.120647,9.804525,9.48E-4,0.001203,0.001032,19.92,2.82,-104.94,283.5992,-0.6949,-0.9549,55.813828,37.50021,160.5776,NaN,0.7486,48.0,217.7399,5 / 6,,4437,2021-05-02 16:13:40:437
0.150839,0.119714,9.754275,0.16464,0.120647,9.804525,9.48E-4,-0.003684,4.21E-4,19.92,2.82,-104.94,283.5992,-0.6949,-0.9549,55.813828,37.50021,160.5776,NaN,0.7486,48.0,217.7399,5 / 6,,4448,2021-05-02 16:13:40:448
0.150839,0.119714,9.754275,0.164534,0.121124,9.804522,0.001559,0.001814,0.002254,19.74,2.82,-104.76,281.1458,-0.7049,-0.962,55.813828,37.50021,160.5776,NaN,0.7486,48.0,217.7399,5 / 6,,4458,2021-05-02 16:13:40:458
0.138868,0.110137,9.75667,0.164534,0.121124,9.804522,-0.001495,-0.003073,0.002865,19.74,2.82,-104.76,281.1458,-0.7049,-0.962,55.813828,37.50021,160.5776,NaN,0.7486,48.0,217.7399,5 / 6,,4468,2021-05-02 16:13:40:468
0.129291,0.122108,9.761458,0.163837,0.120647,9.80454,-0.001495,-0.003073,0.002865,20.28,3.48,-104.22,281.1458,-0.7049,-0.962,55.813828,37.50021,160.5776,NaN,0.7486,48.0,217.7399,5 / 6,,4477,2021-05-02 16:13:40:477
0.124502,0.119714,9.742304,0.162802,0.120697,9.804556,9.48E-4,0.001203,0.003476,20.1,3.24,-104.58,281.1458,-0.7049,-0.962,55.813828,37.50021,160.5776,NaN,0.7486,48.0,217.7399,5 / 6,,4488,2021-05-02 16:13:40:488
0.124502,0.119714,9.742304,0.162802,0.120697,9.804556,9.48E-4,0.001203,0.003476,20.1,3.24,-104.58,281.1458,-0.7049,-0.962,55.813828,37.50021,160.5776,NaN,0.7486,48.0,217.7399,5 / 6,,4497,2021-05-02 16:13:40:497
0.179571,0.112531,9.744699,0.160806,0.120371,9.804593,-0.001495,-6.29E-4,-1.89E-4,19.62,3.12,-104.52,281.1571,-0.7052,-0.9513,55.813828,37.50021,160.5776,NaN,0.7486,48.0,217.7399,5 / 6,,4507,2021-05-02 16:13:40:507
0.174782,0.105348,9.763853,0.160806,0.120371,9.804593,3.37E-4,-0.00124,-0.001411,19.62,3.12,-104.52,281.1571,-0.7052,-0.9513,55.813828,37.50021,160.5776,NaN,0.7486,48.0,217.7399,5 / 6,,4517,2021-05-02 16:13:40:517
0.169994,0.117319,9.780613,0.160826,0.119818,9.804599,-2.74E-4,-0.00124,4.21E-4,19.56,3.24,-103.8,281.1571,-0.7052,-0.9513,55.813828,37.50021,160.5776,NaN,0.7486,48.0,217.7399,5 / 6,,4528,2021-05-02 16:13:40:528
0.165205,0.105348,9.77343,0.160842,0.119479,9.804604,0.001559,5.93E-4,0.002254,19.56,3.48,-103.8,281.1571,-0.7052,-0.9513,55.813828,37.50021,160.5776,NaN,0.7486,48.0,217.7399,5 / 6,,4537,2021-05-02 16:13:40:537
0.165205,0.105348,9.77343,0.160842,0.119479,9.804604,3.37E-4,-6.29E-4,0.002865,19.56,3.48,-103.8,281.1571,-0.7052,-0.9513,55.813828,37.50021,160.5776,NaN,0.7486,48.0,217.7399,5 / 6,,4547,2021-05-02 16:13:40:547
0.167599,0.126897,9.768641,0.160683,0.11948,9.804605,3.37E-4,0.002425,4.21E-4,20.04,3.96,-103.56,283.6301,-0.6981,-0.9398,55.813828,37.50021,160.5776,NaN,0.7486,48.0,217.7399,5 / 6,,4557,2021-05-02 16:13:40:557
0.167599,0.114925,9.75667,0.160683,0.11948,9.804605,0.002781,-0.001851,0.002254,20.04,3.96,-103.56,283.6301,-0.6981,-0.9398,55.813828,37.50021,160.5776,NaN,0.7486,48.0,217.7399,5 / 6,,4567,2021-05-02 16:13:40:567
0.177176,0.126897,9.742304,0.161658,0.118712,9.804599,3.37E-4,-6.29E-4,-1.89E-4,20.16,3.96,-103.56,283.6301,-0.6981,-0.9398,55.813828,37.50021,160.5776,NaN,0.7486,48.0,217.7399,5 / 6,,4578,2021-05-02 16:13:40:578
0.167599,0.119714,9.768641,0.161658,0.118712,9.804599,9.48E-4,5.93E-4,0.002254,20.16,3.96,-103.56,283.6301,-0.6981,-0.9398,55.813828,37.50021,160.5776,NaN,0.7486,48.0,217.7399,5 / 6,,4587,2021-05-02 16:13:40:587
0.167599,0.119714,9.768641,0.162311,0.118132,9.804596,3.37E-4,5.93E-4,4.21E-4,19.98,3.6,-104.04,283.6046,-0.6936,-0.9446,55.813828,37.50021,160.5776,NaN,0.7486,48.0,217.7399,5 / 6,,4597,2021-05-02 16:13:40:597
0.160416,0.110137,9.747093,0.162311,0.118132,9.804596,3.37E-4,0.001203,-0.001411,19.98,3.6,-104.04,283.6046,-0.6936,-0.9446,55.813828,37.50021,160.5776,NaN,0.7486,48.0,217.7399,5 / 6,,4607,2021-05-02 16:13:40:607
0.160416,0.122108,9.744699,0.16196,0.118438,9.804598,3.37E-4,0.001203,-0.001411,19.92,3.36,-103.62,283.6046,-0.6936,-0.9446,55.813828,37.50021,160.5776,NaN,0.7486,48.0,217.7399,5 / 6,,4617,2021-05-02 16:13:40:617
0.169994,0.114925,9.75667,0.16196,0.118438,9.804598,3.37E-4,-0.001851,-8.0E-4,19.92,3.36,-103.62,283.6046,-0.6936,-0.9446,55.813828,37.50021,160.5776,NaN,0.7486,48.0,217.7399,5 / 6,,4627,2021-05-02 16:13:40:627
0.169994,0.114925,9.75667,0.162085,0.118326,9.804596,0.001559,0.001814,0.002865,20.34,3.18,-103.5,281.0556,-0.692,-0.9464,55.813828,37.50021,160.5776,NaN,0.7486,48.0,217.7399,5 / 6,,4637,2021-05-02 16:13:40:637
0.150839,0.107742,9.744699,0.162085,0.118326,9.804596,9.48E-4,0.002425,4.21E-4,20.34,3.18,-103.5,281.0556,-0.692,-0.9464,55.813828,37.50021,160.5776,NaN,0.7486,48.0,217.7399,5 / 6,,4647,2021-05-02 16:13:40:647
0.174782,0.117319,9.744699,0.161732,0.118829,9.804596,3.37E-4,-1.8E-5,0.001032,20.34,3.6,-104.4,281.0556,-0.692,-0.9464,55.813828,37.50021,160.5776,NaN,0.7486,48.0,217.7399,5 / 6,,4657,2021-05-02 16:13:40:657
0.181965,0.114925,9.749487,0.161732,0.118829,9.804596,0.00217,0.001203,-0.001411,20.34,3.6,-104.4,281.0556,-0.692,-0.9464,55.813828,37.50021,160.5776,NaN,0.7486,48.0,217.7399,5 / 6,,4668,2021-05-02 16:13:40:668
0.165205,0.136474,9.771035,0.162983,0.118806,9.804576,-2.74E-4,0.001814,0.003476,20.4,3.12,-104.4,281.0897,-0.6943,-0.945,55.813828,37.50021,160.5776,NaN,0.7486,48.0,217.7399,5 / 6,,4677,2021-05-02 16:13:40:677
0.165205,0.136474,9.771035,0.163281,0.118829,9.80457,-8.85E-4,-6.29E-4,0.001643,20.16,3.24,-103.98,281.0897,-0.6943,-0.945,55.813828,37.50021,160.5776,NaN,0.7486,48.0,217.7399,5 / 6,,4687,2021-05-02 16:13:40:687
0.174782,0.129291,9.77343,0.163665,0.119094,9.804561,-0.002717,5.93E-4,-0.002022,20.28,3.0,-103.92,281.0897,-0.6943,-0.945,55.813828,37.50021,160.5776,NaN,0.7486,48.0,217.7399,5 / 6,,4697,2021-05-02 16:13:40:697
0.174782,0.129291,9.77343,0.163665,0.119094,9.804561,-0.002717,5.93E-4,-0.002022,20.28,3.0,-103.92,281.0897,-0.6943,-0.945,55.813828,37.50021,160.5776,NaN,0.7486,48.0,217.7399,5 / 6,,4708,2021-05-02 16:13:40:708
0.134079,0.105348,9.735122,0.163327,0.11962,9.80456,-0.001495,0.001203,-8.0E-4,20.22,3.06,-103.86,281.0866,-0.6958,-0.9563,55.813828,37.50021,160.5776,NaN,0.7486,48.0,217.7399,5 / 6,,4719,2021-05-02 16:13:40:719
0.122108,0.119714,9.603436,0.163327,0.11962,9.80456,-2.74E-4,-0.00124,-1.89E-4,20.22,3.06,-103.86,281.0866,-0.6958,-0.9563,55.813828,37.50021,160.5776,NaN,0.7486,48.0,217.7399,5 / 6,,4727,2021-05-02 16:13:40:727
0.174782,0.136474,9.907509,0.161549,0.120027,9.804585,0.005224,-0.006738,-0.003244,20.1,3.12,-103.62,281.0866,-0.6958,-0.9563,55.813828,37.50021,160.5776,NaN,0.7486,48.0,217.7399,5 / 6,,4737,2021-05-02 16:13:40:737
0.174782,0.136474,9.907509,0.161549,0.120027,9.804585,0.002781,5.93E-4,0.002254,20.1,3.12,-103.62,281.0866,-0.6958,-0.9563,55.813828,37.50021,160.5776,NaN,0.7486,48.0,217.7399,5 / 6,,4747,2021-05-02 16:13:40:747
0.184359,0.112531,9.744699,0.161138,0.121505,9.804573,-0.001495,-0.006127,0.004087,20.22,3.24,-103.62,281.1229,-0.7013,-0.944,55.813828,37.50021,160.5776,NaN,0.7486,48.0,217.7399,5 / 6,,4757,2021-05-02 16:13:40:757
0.227456,0.141262,9.775824,0.161138,0.121505,9.804573,-0.013102,0.009145,4.21E-4,20.22,3.24,-103.62,281.1229,-0.7013,-0.944,55.813828,37.50021,160.5776,NaN,0.7486,48.0,217.7399,5 / 6,,4767,2021-05-02 16:13:40:767
0.208302,0.090982,9.660899,0.161328,0.120563,9.804583,0.007668,-0.006738,-0.002022,20.88,3.54,-104.04,281.1229,-0.7013,-0.944,55.813828,37.50021,160.5776,NaN,0.7486,48.0,217.7399,5 / 6,,4778,2021-05-02 16:13:40:778
0.165205,0.126897,9.668081,0.162641,0.120894,9.804556,-0.003939,0.006701,0.002254,21.12,3.12,-103.8,281.1229,-0.7013,-0.944,55.813828,37.50021,160.5776,NaN,0.7486,48.0,217.7399,5 / 6,,4787,2021-05-02 16:13:40:787
0.165205,0.126897,9.668081,0.162641,0.120894,9.804556,0.005835,-0.00796,-1.89E-4,21.12,3.12,-103.8,281.1229,-0.7013,-0.944,55.813828,37.50021,160.5776,NaN,0.7486,48.0,217.7399,5 / 6,,4797,2021-05-02 16:13:40:797
0.160416,0.105348,9.852441,0.163116,0.121019,9.804546,-0.001495,0.005479,0.001643,20.46,2.7,-103.86,281.1403,-0.7063,-0.9504,55.813828,37.50021,160.5776,NaN,0.7486,48.0,217.7399,5 / 6,,4807,2021-05-02 16:13:40:807
0.155628,0.117319,9.672871,0.163116,0.121019,9.804546,-0.001495,0.005479,0.001643,20.46,2.7,-103.86,281.1403,-0.7063,-0.9504,55.813828,37.50021,160.5776,NaN,0.7486,48.0,217.7399,5 / 6,,4817,2021-05-02 16:13:40:817
0.124502,0.124502,9.866806,0.162784,0.120607,9.804557,-0.006382,0.003647,0.002865,19.92,3.18,-104.04,281.1403,-0.7063,-0.9504,55.813828,37.50021,160.5776,NaN,0.7486,48.0,217.7399,5 / 6,,4828,2021-05-02 16:13:40:828
0.155628,0.102954,9.699207,0.162784,0.120607,9.804557,-0.006382,0.003647,0.002865,19.92,3.18,-104.04,281.1403,-0.7063,-0.9504,55.813828,37.50021,160.5776,NaN,0.7486,48.0,217.7399,5 / 6,,4837,2021-05-02 16:13:40:837
0.155628,0.102954,9.699207,0.161313,0.119997,9.804589,0.007668,-0.004294,0.002865,19.92,3.12,-104.22,281.1318,-0.7047,-0.9512,55.813828,37.50021,160.5776,NaN,0.7486,48.0,217.7399,5 / 6,,4847,2021-05-02 16:13:40:847
0.146051,0.131685,9.768641,0.161313,0.119997,9.804589,-0.003328,0.003036,0.002254,19.92,3.12,-104.22,281.1318,-0.7047,-0.9512,55.813828,37.50021,160.5776,NaN,0.7486,48.0,217.7399,5 / 6,,4858,2021-05-02 16:13:40:858
0.169994,0.119714,9.763853,0.16049,0.119911,9.804604,0.002781,-0.004905,-1.89E-4,20.4,3.12,-103.26,281.1318,-0.7047,-0.9512,55.813828,37.50021,160.5776,NaN,0.7486,48.0,217.7399,5 / 6,,4867,2021-05-02 16:13:40:867
0.160416,0.134079,9.761458,0.16049,0.119911,9.804604,-0.00455,0.003647,-8.0E-4,20.4,3.12,-103.26,281.1318,-0.7047,-0.9512,55.813828,37.50021,160.5776,NaN,0.7486,48.0,217.7399,5 / 6,,4877,2021-05-02 16:13:40:877
0.172388,0.105348,9.778218,0.160318,0.119608,9.80461,0.001559,5.93E-4,0.001032,20.46,3.0,-102.9,281.1025,-0.7006,-0.9378,55.813828,37.50021,160.5776,NaN,0.7486,48.0,217.7399,5 / 6,,4887,2021-05-02 16:13:40:887
0.172388,0.105348,9.778218,0.160318,0.119608,9.80461,-8.85E-4,-0.002462,0.002254,20.46,3.0,-102.9,281.1025,-0.7006,-0.9378,55.813828,37.50021,160.5776,NaN,0.7486,48.0,217.7399,5 / 6,,4897,2021-05-02 16:13:40:897
0.160416,0.105348,9.720756,0.160445,0.119493,9.804609,0.002781,0.001203,4.21E-4,20.28,2.76,-103.56,281.1025,-0.7006,-0.9378,55.813828,37.50021,160.5776,NaN,0.7486,48.0,217.7399,5 / 6,,4908,2021-05-02 16:13:40:908
0.169994,0.110137,9.732727,0.160445,0.119493,9.804609,-0.002717,-1.8E-5,0.001032,20.28,2.76,-103.56,281.1025,-0.7006,-0.9378,55.813828,37.50021,160.5776,NaN,0.7486,48.0,217.7399,5 / 6,,4917,2021-05-02 16:13:40:917
0.169994,0.110137,9.732727,0.160838,0.119539,9.804603,-0.002717,-1.8E-5,0.001032,20.16,3.3,-103.74,281.1136,-0.6984,-0.9398,55.813828,37.50021,160.5776,NaN,0.7486,48.0,217.7399,5 / 6,,4927,2021-05-02 16:13:40:927
0.169994,0.119714,9.775824,0.160838,0.119539,9.804603,3.37E-4,5.93E-4,0.001032,20.16,3.3,-103.74,281.1136,-0.6984,-0.9398,55.813828,37.50021,160.5776,NaN,0.7486,48.0,217.7399,5 / 6,,4937,2021-05-02 16:13:40:937
0.146051,0.126897,9.75667,0.161353,0.119572,9.804594,3.37E-4,-6.29E-4,0.001032,20.22,3.6,-103.38,281.1136,-0.6984,-0.9398,55.813828,37.50021,160.5776,NaN,0.7486,48.0,217.7399,5 / 6,,4947,2021-05-02 16:13:40:947
0.150839,0.126897,9.754275,0.16129,0.119677,9.804593,0.00217,-0.00124,0.003476,20.58,3.36,-103.56,281.1136,-0.6984,-0.9398,55.813828,37.50021,160.5776,NaN,0.7486,48.0,217.7399,5 / 6,,4958,2021-05-02 16:13:40:958
0.150839,0.126897,9.754275,0.16129,0.119677,9.804593,-0.001495,-6.29E-4,-1.89E-4,20.58,3.36,-103.56,281.1136,-0.6984,-0.9398,55.813892,37.500225,191.1844,NaN,0.7457,48.0,217.7932,5 / 7,,4968,2021-05-02 16:13:40:968
0.155628,0.105348,9.754275,0.161535,0.120029,9.804585,-2.74E-4,-1.8E-5,0.002865,20.7,3.66,-104.04,283.0527,-0.6992,-0.9425,55.813892,37.500225,191.1844,NaN,0.7457,48.0,217.7932,5 / 7,,4977,2021-05-02 16:13:40:977
0.165205,0.119714,9.77343,0.161535,0.120029,9.804585,-2.74E-4,-0.001851,4.21E-4,20.7,3.66,-104.04,283.0527,-0.6992,-0.9425,55.813892,37.500225,191.1844,NaN,0.7457,48.0,217.7932,5 / 7,,4987,2021-05-02 16:13:40:987
0.169994,0.122108,9.766247,0.161786,0.119901,9.804583,3.37E-4,5.93E-4,0.001032,20.7,3.42,-103.5,283.0527,-0.6992,-0.9425,55.813892,37.500225,191.1844,NaN,0.7457,48.0,217.7932,5 / 7,,4997,2021-05-02 16:13:40:997
0.162811,0.131685,9.77343,0.161786,0.119901,9.804583,0.001559,-1.8E-5,0.001643,20.7,3.42,-103.5,283.0527,-0.6992,-0.9425,55.813892,37.500225,191.1844,NaN,0.7457,48.0,217.7932,5 / 7,,5007,2021-05-02 16:13:41:007
0.162811,0.126897,9.759064,0.162003,0.120287,9.804575,3.37E-4,-1.8E-5,0.001032,20.7,3.48,-104.04,280.6397,-0.7005,-0.9454,55.813892,37.500225,191.1844,NaN,0.7457,48.0,217.7932,5 / 7,,5017,2021-05-02 16:13:41:017
0.177176,0.126897,9.759064,0.162003,0.120287,9.804575,3.37E-4,-1.8E-5,0.001032,20.7,3.48,-104.04,280.6397,-0.7005,-0.9454,55.813892,37.500225,191.1844,NaN,0.7457,48.0,217.7932,5 / 7,,5027,2021-05-02 16:13:41:027
0.169994,0.131685,9.759064,0.163173,0.120725,9.804549,3.37E-4,0.001203,4.21E-4,19.98,3.12,-104.4,280.6397,-0.7005,-0.9454,55.813892,37.500225,191.1844,NaN,0.7457,48.0,217.7932,5 / 7,,5037,2021-05-02 16:13:41:037
0.143657,0.110137,9.763853,0.163173,0.120725,9.804549,3.37E-4,-0.004294,-1.89E-4,19.98,3.12,-104.4,280.6397,-0.7005,-0.9454,55.813892,37.500225,191.1844,NaN,0.7457,48.0,217.7932,5 / 7,,5047,2021-05-02 16:13:41:047
0.143657,0.110137,9.763853,0.163922,0.120874,9.804535,3.37E-4,-6.29E-4,0.002865,20.1,2.58,-104.1,281.1329,-0.7054,-0.9535,55.813892,37.500225,191.1844,NaN,0.7457,48.0,217.7932,5 / 7,,5057,2021-05-02 16:13:41:057
0.146051,0.122108,9.768641,0.163922,0.120874,9.804535,-2.74E-4,-0.00124,0.001032,20.1,2.58,-104.1,281.1329,-0.7054,-0.9535,55.813892,37.500225,191.1844,NaN,0.7457,48.0,217.7932,5 / 7,,5067,2021-05-02 16:13:41:067
0.131685,0.107742,9.763853,0.163237,0.121062,9.804544,-0.002717,0.001203,0.003476,20.28,2.76,-103.62,281.1329,-0.7054,-0.9535,55.813892,37.500225,191.1844,NaN,0.7457,48.0,217.7932,5 / 7,,5077,2021-05-02 16:13:41:077
0.174782,0.124502,9.783007,0.163237,0.121062,9.804544,0.004613,-6.29E-4,0.002865,20.28,2.76,-103.62,281.1329,-0.7054,-0.9535,55.813892,37.500225,191.1844,NaN,0.7457,48.0,217.7932,5 / 7,,5088,2021-05-02 16:13:41:088
0.174782,0.124502,9.783007,0.161945,0.121456,9.804561,3.37E-4,-6.29E-4,-0.001411,19.92,3.3,-103.14,281.1186,-0.7073,-0.9538,55.813892,37.500225,191.1844,NaN,0.7457,48.0,217.7932,5 / 7,,5097,2021-05-02 16:13:41:097
0.165205,0.107742,9.771035,0.161945,0.121456,9.804561,0.001559,0.003036,0.001643,19.92,3.3,-103.14,281.1186,-0.7073,-0.9538,55.813892,37.500225,191.1844,NaN,0.7457,48.0,217.7932,5 / 7,,5107,2021-05-02 16:13:41:107
0.169994,0.107742,9.778218,0.161467,0.121252,9.804571,-2.74E-4,-6.29E-4,0.002254,20.22,3.18,-103.56,281.1186,-0.7073,-0.9538,55.813892,37.500225,191.1844,NaN,0.7457,48.0,217.7932,5 / 7,,5117,2021-05-02 16:13:41:117
0.162811,0.114925,9.735122,0.161467,0.121252,9.804571,3.37E-4,5.93E-4,0.003476,20.22,3.18,-103.56,281.1186,-0.7073,-0.9538,55.813892,37.500225,191.1844,NaN,0.7457,48.0,217.7932,5 / 7,,5127,2021-05-02 16:13:41:127
0.167599,0.136474,9.775824,0.161687,0.120439,9.804578,-2.74E-4,-1.8E-5,0.002254,20.82,2.94,-103.98,280.6761,-0.7084,-0.9435,55.813892,37.500225,191.1844,NaN,0.7457,48.0,217.7932,5 / 7,,5138,2021-05-02 16:13:41:138
0.167599,0.136474,9.775824,0.161687,0.120439,9.804578,-2.74E-4,-1.8E-5,0.002254,20.82,2.94,-103.98,280.6761,-0.7084,-0.9435,55.813892,37.500225,191.1844,NaN,0.7457,48.0,217.7932,5 / 7,,5147,2021-05-02 16:13:41:147
0.160416,0.10056,9.780613,0.161514,0.12086,9.804575,-0.001495,-0.003073,-0.002022,20.4,3.24,-103.92,280.6761,-0.7084,-0.9435,55.813892,37.500225,191.1844,NaN,0.7457,48.0,217.7932,5 / 7,,5158,2021-05-02 16:13:41:158
0.184359,0.141262,9.751882,0.161514,0.12086,9.804575,3.37E-4,0.001814,0.003476,20.4,3.24,-103.92,280.6761,-0.7084,-0.9435,55.813892,37.500225,191.1844,NaN,0.7457,48.0,217.7932,5 / 7,,5167,2021-05-02 16:13:41:167
0.169994,0.107742,9.766247,0.162445,0.121383,9.804553,9.48E-4,-0.00124,-1.89E-4,20.22,3.3,-103.62,281.1455,-0.7061,-0.9438,55.813892,37.500225,191.1844,NaN,0.7457,48.0,217.7932,5 / 7,,5177,2021-05-02 16:13:41:177
0.155628,0.124502,9.766247,0.162445,0.121383,9.804553,3.37E-4,5.93E-4,0.001643,20.22,3.3,-103.62,281.1455,-0.7061,-0.9438,55.813892,37.500225,191.1844,NaN,0.7457,48.0,217.7932,5 / 7,,5187,2021-05-02 16:13:41:187
0.155628,0.124502,9.766247,0.162322,0.121576,9.804553,-2.74E-4,-0.004294,0.001032,20.1,3.42,-103.44,281.1455,-0.7061,-0.9438,55.813892,37.500225,191.1844,NaN,0.7457,48.0,217.7932,5 / 7,,5197,2021-05-02 16:13:41:197
0.174782,0.107742,9.775824,0.162388,0.121551,9.804552,-0.002106,-6.29E-4,0.001032,19.86,2.88,-103.74,281.1455,-0.7061,-0.9438,55.813892,37.500225,191.1844,NaN,0.7457,48.0,217.7932,5 / 7,,5207,2021-05-02 16:13:41:207
0.162811,0.119714,9.780613,0.162388,0.121551,9.804552,-0.002106,-6.29E-4,0.001032,19.86,2.88,-103.74,281.1455,-0.7061,-0.9438,55.813892,37.500225,191.1844,NaN,0.7457,48.0,217.7932,5 / 7,,5217,2021-05-02 16:13:41:217
0.150839,0.119714,9.751882,0.161998,0.121224,9.804563,-0.002106,5.93E-4,4.21E-4,20.58,3.66,-103.38,283.0731,-0.7102,-0.9489,55.813892,37.500225,191.1844,NaN,0.7457,48.0,217.7932,5 / 7,,5227,2021-05-02 16:13:41:227
0.150839,0.119714,9.751882,0.161998,0.121224,9.804563,9.48E-4,-1.8E-5,4.21E-4,20.58,3.66,-103.38,283.0731,-0.7102,-0.9489,55.813892,37.500225,191.1844,NaN,0.7457,48.0,217.7932,5 / 7,,5237,2021-05-02 16:13:41:237
0.169994,0.124502,9.73991,0.161532,0.121518,9.804567,-8.85E-4,-0.001851,-0.001411,21.6,3.6,-103.14,283.0731,-0.7102,-0.9489,55.813892,37.500225,191.1844,NaN,0.7457,48.0,217.7932,5 / 7,,5247,2021-05-02 16:13:41:247
0.191542,0.117319,9.754275,0.161532,0.121518,9.804567,-0.002106,-0.00124,0.003476,21.6,3.6,-103.14,283.0731,-0.7102,-0.9489,55.813892,37.500225,191.1844,NaN,0.7457,48.0,217.7932,5 / 7,,5257,2021-05-02 16:13:41:257
0.165205,0.122108,9.744699,0.162624,0.121315,9.804551,0.002781,0.001203,4.21E-4,21.36,3.06,-103.32,280.66,-0.71,-0.9439,55.813892,37.500225,191.1844,NaN,0.7457,48.0,217.7932,5 / 7,,5267,2021-05-02 16:13:41:267
0.165205,0.122108,9.744699,0.163698,0.12119,9.804535,0.00217,-6.29E-4,-1.89E-4,20.7,2.58,-103.44,280.66,-0.71,-0.9439,55.813892,37.500225,191.1844,NaN,0.7457,48.0,217.7932,5 / 7,,5277,2021-05-02 16:13:41:277
0.158022,0.119714,9.759064,0.163698,0.12119,9.804535,0.001559,-1.8E-5,0.004087,20.7,2.58,-103.44,280.66,-0.71,-0.9439,55.813892,37.500225,191.1844,NaN,0.7457,48.0,217.7932,5 / 7,,5287,2021-05-02 16:13:41:287
0.153234,0.114925,9.778218,0.16435,0.12132,9.804522,-2.74E-4,5.93E-4,-8.0E-4,20.82,3.12,-103.2,280.66,-0.71,-0.9439,55.813892,37.500225,191.1844,NaN,0.7457,48.0,217.7932,5 / 7,,5297,2021-05-02 16:13:41:297
0.153234,0.119714,9.747093,0.16435,0.12132,9.804522,-2.74E-4,5.93E-4,-8.0E-4,20.82,3.12,-103.2,280.66,-0.71,-0.9439,55.813892,37.500225,191.1844,NaN,0.7457,48.0,217.7932,5 / 7,,5307,2021-05-02 16:13:41:307
0.169994,0.134079,9.775824,0.16447,0.121505,9.804518,0.001559,0.003036,0.004087,20.58,3.48,-102.96,280.6412,-0.7088,-0.9603,55.813892,37.500225,191.1844,NaN,0.7457,48.0,217.7932,5 / 7,,5317,2021-05-02 16:13:41:317
0.169994,0.134079,9.775824,0.16447,0.121505,9.804518,0.001559,-0.00124,-0.002022,20.58,3.48,-102.96,280.6412,-0.7088,-0.9603,55.813892,37.500225,191.1844,NaN,0.7457,48.0,217.7932,5 / 7,,5327,2021-05-02 16:13:41:327
0.177176,0.124502,9.763853,0.16454,0.121558,9.804516,3.37E-4,-1.8E-5,-8.0E-4,19.68,2.94,-102.9,280.6412,-0.7088,-0.9603,55.813892,37.500225,191.1844,NaN,0.7457,48.0,217.7932,5 / 7,,5337,2021-05-02 16:13:41:337
0.198725,0.122108,9.754275,0.16454,0.121558,9.804516,0.001559,-0.00124,4.21E-4,19.68,2.94,-102.9,280.6412,-0.7088,-0.9603,55.813892,37.500225,191.1844,NaN,0.7457,48.0,217.7932,5 / 7,,5347,2021-05-02 16:13:41:347
0.203513,0.124502,9.787795,0.164611,0.121513,9.804516,0.001559,-6.29E-4,0.002254,19.86,2.88,-103.32,281.1249,-0.7102,-0.9615,55.813892,37.500225,191.1844,NaN,0.7457,48.0,217.7932,5 / 7,,5357,2021-05-02 16:13:41:357
0.172388,0.126897,9.761458,0.164611,0.121513,9.804516,-0.002717,0.003036,4.21E-4,19.86,2.88,-103.32,281.1249,-0.7102,-0.9615,55.813892,37.500225,191.1844,NaN,0.7457,48.0,217.7932,5 / 7,,5368,2021-05-02 16:13:41:368
0.172388,0.126897,9.761458,0.165773,0.12171,9.804493,-0.002106,-6.29E-4,-1.89E-4,19.92,3.24,-103.44,281.1249,-0.7102,-0.9615,55.813892,37.500225,191.1844,NaN,0.7457,48.0,217.7932,5 / 7,,5377,2021-05-02 16:13:41:377
0.148445,0.114925,9.766247,0.165773,0.12171,9.804493,0.00217,-1.8E-5,-8.0E-4,19.92,3.24,-103.44,281.1249,-0.7102,-0.9615,55.813892,37.500225,191.1844,NaN,0.7457,48.0,217.7932,5 / 7,,5387,2021-05-02 16:13:41:387
0.153234,0.122108,9.766247,0.165782,0.121768,9.804493,3.37E-4,-6.29E-4,0.001643,19.86,2.88,-102.54,281.1224,-0.7111,-0.9687,55.813892,37.500225,191.1844,NaN,0.7457,48.0,217.7932,5 / 7,,5397,2021-05-02 16:13:41:397
0.148445,0.122108,9.780613,0.165782,0.121768,9.804493,3.37E-4,-6.29E-4,-1.89E-4,19.86,2.88,-102.54,281.1224,-0.7111,-0.9687,55.813892,37.500225,191.1844,NaN,0.7457,48.0,217.7932,5 / 7,,5407,2021-05-02 16:13:41:407
0.148445,0.122108,9.780613,0.165142,0.121665,9.804505,3.37E-4,5.93E-4,-8.0E-4,20.1,3.0,-103.08,281.1224,-0.7111,-0.9687,55.813892,37.500225,191.1844,NaN,0.7457,48.0,217.7932,5 / 7,,5417,2021-05-02 16:13:41:417
0.158022,0.119714,9.744699,0.164586,0.121459,9.804517,9.48E-4,0.001814,0.001032,19.92,3.6,-104.04,281.1224,-0.7111,-0.9687,55.813892,37.500225,191.1844,NaN,0.7457,48.0,217.7932,5 / 7,,5427,2021-05-02 16:13:41:427
0.167599,0.124502,9.742304,0.164586,0.121459,9.804517,0.00217,5.93E-4,0.002254,19.92,3.6,-104.04,281.1224,-0.7111,-0.9687,55.813892,37.500225,191.1844,NaN,0.7457,48.0,217.7932,5 / 7,,5437,2021-05-02 16:13:41:437
0.167599,0.124502,9.742304,0.164294,0.121693,9.804519,0.00217,5.93E-4,0.002254,20.76,3.96,-104.46,283.0781,-0.7096,-0.9617,55.813892,37.500225,191.1844,NaN,0.7457,48.0,217.7932,5 / 7,,5447,2021-05-02 16:13:41:447
0.167599,0.114925,9.761458,0.163835,0.121771,9.804525,0.001559,-6.29E-4,0.001032,20.7,3.3,-104.16,283.0781,-0.7096,-0.9617,55.813892,37.500225,191.1844,NaN,0.7457,48.0,217.7932,5 / 7,,5457,2021-05-02 16:13:41:457
0.160416,0.122108,9.766247,0.163835,0.121771,9.804525,0.003392,-0.00124,0.001032,20.7,3.3,-104.16,283.0781,-0.7096,-0.9617,55.813892,37.500225,191.1844,NaN,0.7457,48.0,217.7932,5 / 7,,5467,2021-05-02 16:13:41:467
0.153234,0.124502,9.787795,0.163312,0.121691,9.804535,-8.85E-4,5.93E-4,4.21E-4,20.58,3.48,-103.56,283.0781,-0.7096,-0.9617,55.813892,37.500225,191.1844,NaN,0.7457,48.0,217.7932,5 / 7,,5477,2021-05-02 16:13:41:477
0.169994,0.134079,9.751882,0.163312,0.121691,9.804535,-0.001495,-0.002462,-8.0E-4,20.58,3.48,-103.56,283.0781,-0.7096,-0.9617,55.813892,37.500225,191.1844,NaN,0.7457,48.0,217.7932,5 / 7,,5487,2021-05-02 16:13:41:487
0.169994,0.134079,9.751882,0.163244,0.121636,9.804537,3.37E-4,-0.003684,0.002865,20.04,3.36,-103.32,281.1349,-0.711,-0.9543,55.813892,37.500225,191.1844,NaN,0.7457,48.0,217.7932,5 / 7,,5497,2021-05-02 16:13:41:497
0.179571,0.112531,9.73991,0.163244,0.121636,9.804537,0.00217,0.001203,-0.003244,20.04,3.36,-103.32,281.1349,-0.711,-0.9543,55.813892,37.500225,191.1844,NaN,0.7457,48.0,217.7932,5 / 7,,5507,2021-05-02 16:13:41:507
0.167599,0.114925,9.75667,0.163492,0.121873,9.804529,-0.002717,-0.00124,0.002254,20.52,3.06,-103.92,281.1349,-0.711,-0.9543,55.813892,37.500225,191.1844,NaN,0.7457,48.0,217.7932,5 / 7,,5518,2021-05-02 16:13:41:518
0.162811,0.129291,9.77343,0.163492,0.121873,9.804529,0.003392,0.001814,-1.89E-4,20.52,3.06,-103.92,281.1349,-0.711,-0.9543,55.813892,37.500225,191.1844,NaN,0.7457,48.0,217.7932,5 / 7,,5527,2021-05-02 16:13:41:527
0.148445,0.126897,9.747093,0.163382,0.121647,9.804534,-2.74E-4,-6.29E-4,0.002865,20.82,3.06,-104.64,280.7047,-0.7121,-0.9553,55.813892,37.500225,191.1844,NaN,0.7457,48.0,217.7932,5 / 7,,5537,2021-05-02 16:13:41:537
0.148445,0.126897,9.747093,0.163382,0.121647,9.804534,0.002781,-1.8E-5,0.001643,20.82,3.06,-104.64,280.7047,-0.7121,-0.9553,55.813892,37.500225,191.1844,NaN,0.7457,48.0,217.7932,5 / 7,,5547,2021-05-02 16:13:41:547
0.162811,0.134079,9.749487,0.163453,0.12188,9.80453,0.00217,5.93E-4,0.002254,20.76,2.88,-103.92,280.7047,-0.7121,-0.9553,55.813892,37.500225,191.1844,NaN,0.7457,48.0,217.7932,5 / 7,,5557,2021-05-02 16:13:41:557
0.174782,0.117319,9.768641,0.163453,0.12188,9.80453,0.00217,-1.8E-5,0.001032,20.76,2.88,-103.92,280.7047,-0.7121,-0.9553,55.813892,37.500225,191.1844,NaN,0.7457,48.0,217.7932,5 / 7,,5567,2021-05-02 16:13:41:567
0.184359,0.136474,9.792584,0.163449,0.122175,9.804526,0.00217,-1.8E-5,0.001032,20.76,3.12,-103.68,280.6824,-0.7121,-0.9551,55.813892,37.500225,191.1844,NaN,0.7457,48.0,217.7932,5 / 7,,5577,2021-05-02 16:13:41:577
0.184359,0.107742,9.783007,0.163449,0.122175,9.804526,3.37E-4,0.001814,0.002865,20.76,3.12,-103.68,280.6824,-0.7121,-0.9551,55.813892,37.500225,191.1844,NaN,0.7457,48.0,217.7932,5 / 7,,5587,2021-05-02 16:13:41:587
0.184359,0.107742,9.783007,0.163983,0.122491,9.804514,-8.85E-4,5.93E-4,0.001643,20.34,3.48,-103.2,280.6824,-0.7121,-0.9551,55.813892,37.500225,191.1844,NaN,0.7457,48.0,217.7932,5 / 7,,5597,2021-05-02 16:13:41:597
0.174782,0.117319,9.754275,0.163983,0.122491,9.804514,-0.001495,0.002425,4.21E-4,20.34,3.48,-103.2,280.6824,-0.7121,-0.9551,55.813892,37.500225,191.1844,NaN,0.7457,48.0,217.7932,5 / 7,,5607,2021-05-02 16:13:41:607
0.160416,0.105348,9.735122,0.165686,0.122524,9.804485,-2.74E-4,-1.8E-5,0.001643,20.46,3.6,-102.54,283.6681,-0.7157,-0.9582,55.813892,37.500225,191.1844,NaN,0.7457,48.0,217.7932,5 / 7,,5617,2021-05-02 16:13:41:617
0.138868,0.117319,9.780613,0.165686,0.122524,9.804485,-8.85E-4,-0.004905,0.001643,20.46,3.6,-102.54,283.6681,-0.7157,-0.9582,55.813892,37.500225,191.1844,NaN,0.7457,48.0,217.7932,5 / 7,,5627,2021-05-02 16:13:41:627
0.148445,0.107742,9.823709,0.166619,0.122307,9.804472,-0.002717,-6.29E-4,0.001032,20.34,3.66,-103.32,283.6681,-0.7157,-0.9582,55.813892,37.500225,191.1844,NaN,0.7457,48.0,217.7932,5 / 7,,5637,2021-05-02 16:13:41:637
0.148445,0.107742,9.823709,0.166619,0.122307,9.804472,-0.001495,0.004258,-0.001411,20.34,3.66,-103.32,283.6681,-0.7157,-0.9582,55.813892,37.500225,191.1844,NaN,0.7457,48.0,217.7932,5 / 7,,5647,2021-05-02 16:13:41:647
0.138868,0.114925,9.80695,0.165994,0.121505,9.804492,0.00217,-0.001851,0.001032,20.1,3.42,-103.62,281.1569,-0.7146,-0.9736,55.813892,37.500225,191.1844,NaN,0.7457,48.0,217.7932,5 / 7,,5657,2021-05-02 16:13:41:657
0.160416,0.122108,9.775824,0.165994,0.121505,9.804492,9.48E-4,-0.002462,0.001643,20.1,3.42,-103.62,281.1569,-0.7146,-0.9736,55.813892,37.500225,191.1844,NaN,0.7457,48.0,217.7932,5 / 7,,5667,2021-05-02 16:13:41:667
0.169994,0.112531,9.766247,0.165233,0.121315,9.804508,-0.003939,-6.29E-4,-0.002633,20.46,2.76,-103.32,281.1569,-0.7146,-0.9736,55.813892,37.500225,191.1844,NaN,0.7457,48.0,217.7932,5 / 7,,5677,2021-05-02 16:13:41:677
0.201119,0.098165,9.759064,0.165233,0.121315,9.804508,9.48E-4,0.001814,0.002865,20.46,2.76,-103.32,281.1569,-0.7146,-0.9736,55.813892,37.500225,191.1844,NaN,0.7457,48.0,217.7932,5 / 7,,5687,2021-05-02 16:13:41:687
0.201119,0.098165,9.759064,0.164462,0.120901,9.804525,9.48E-4,0.001814,0.002865,20.28,2.58,-103.68,281.1377,-0.7088,-0.9655,55.813892,37.500225,191.1844,NaN,0.7457,48.0,217.7932,5 / 7,,5697,2021-05-02 16:13:41:697
0.179571,0.114925,9.763853,0.164462,0.120901,9.804525,-0.001495,0.001814,0.002865,20.28,2.58,-103.68,281.1377,-0.7088,-0.9655,55.813892,37.500225,191.1844,NaN,0.7457,48.0,217.7932,5 / 7,,5708,2021-05-02 16:13:41:708
0.160416,0.102954,9.763853,0.165088,0.119894,9.804528,-8.85E-4,0.001203,4.21E-4,20.22,3.18,-103.02,281.1377,-0.7088,-0.9655,55.813892,37.500225,191.1844,NaN,0.7457,48.0,217.7932,5 / 7,,5717,2021-05-02 16:13:41:717
0.160416,0.102954,9.763853,0.165088,0.119894,9.804528,3.37E-4,-1.8E-5,0.001643,20.22,3.18,-103.02,281.1377,-0.7088,-0.9655,55.813892,37.500225,191.1844,NaN,0.7457,48.0,217.7932,5 / 7,,5727,2021-05-02 16:13:41:727
0.155628,0.122108,9.735122,0.166031,0.118817,9.804524,-2.74E-4,-1.8E-5,0.001032,20.34,3.78,-103.44,283.5934,-0.7005,-0.9646,55.813892,37.500225,191.1844,NaN,0.7457,48.0,217.7932,5 / 7,,5737,2021-05-02 16:13:41:737
0.131685,0.134079,9.742304,0.166031,0.118817,9.804524,3.37E-4,5.93E-4,0.004087,20.34,3.78,-103.44,283.5934,-0.7005,-0.9646,55.813892,37.500225,191.1844,NaN,0.7457,48.0,217.7932,5 / 7,,5747,2021-05-02 16:13:41:747
0.153234,0.124502,9.744699,0.165564,0.118126,9.804541,0.002781,-1.8E-5,-0.002633,20.7,3.48,-104.04,283.5934,-0.7005,-0.9646,55.813892,37.500225,191.1844,NaN,0.7457,48.0,217.7932,5 / 7,,5757,2021-05-02 16:13:41:757
0.153234,0.124502,9.744699,0.165564,0.118126,9.804541,9.48E-4,-0.004294,0.001643,20.7,3.48,-104.04,283.5934,-0.7005,-0.9646,55.813892,37.500225,191.1844,NaN,0.7457,48.0,217.7932,5 / 7,,5767,2021-05-02 16:13:41:767
0.160416,0.117319,9.768641,0.164277,0.118487,9.804558,-8.85E-4,-0.001851,0.001032,20.1,3.24,-103.5,281.0283,-0.6902,-0.9674,55.813892,37.500225,191.1844,NaN,0.7457,48.0,217.7932,5 / 7,,5777,2021-05-02 16:13:41:777
0.179571,0.122108,9.787795,0.164277,0.118487,9.804558,0.003392,-1.8E-5,0.001643,20.1,3.24,-103.5,281.0283,-0.6902,-0.9674,55.813892,37.500225,191.1844,NaN,0.7457,48.0,217.7932,5 / 7,,5787,2021-05-02 16:13:41:787
0.179571,0.122108,9.787795,0.163347,0.118878,9.804568,0.003392,-1.8E-5,0.001643,19.56,3.18,-103.74,281.0283,-0.6902,-0.9674,55.813892,37.500225,191.1844,NaN,0.7457,48.0,217.7932,5 / 7,,5797,2021-05-02 16:13:41:797
0.172388,0.114925,9.754275,0.163347,0.118878,9.804568,9.48E-4,-6.29E-4,0.001643,19.56,3.18,-103.74,281.0283,-0.6902,-0.9674,55.813892,37.500225,191.1844,NaN,0.7457,48.0,217.7932,5 / 7,,5807,2021-05-02 16:13:41:807
0.198725,0.117319,9.783007,0.163407,0.118708,9.80457,9.48E-4,0.002425,0.001032,19.92,2.82,-103.68,281.0825,-0.6946,-0.9545,55.813892,37.500225,191.1844,NaN,0.7457,48.0,217.7932,5 / 7,,5817,2021-05-02 16:13:41:817
0.174782,0.105348,9.768641,0.163407,0.118708,9.80457,-8.85E-4,-0.006738,-8.0E-4,19.92,2.82,-103.68,281.0825,-0.6946,-0.9545,55.813892,37.500225,191.1844,NaN,0.7457,48.0,217.7932,5 / 7,,5827,2021-05-02 16:13:41:827
0.174782,0.105348,9.768641,0.164776,0.119053,9.804543,-8.85E-4,-0.006738,-8.0E-4,20.1,3.0,-103.2,281.0825,-0.6946,-0.9545,55.813892,37.500225,191.1844,NaN,0.7457,48.0,217.7932,5 / 7,,5837,2021-05-02 16:13:41:837
0.169994,0.110137,9.70639,0.164776,0.119053,9.804543,9.48E-4,0.003036,4.21E-4,20.1,3.0,-103.2,281.0825,-0.6946,-0.9545,55.813892,37.500225,191.1844,NaN,0.7457,48.0,217.7932,5 / 7,,5847,2021-05-02 16:13:41:847
