ACCELEROMETER X (m/s²),ACCELEROMETER Y (m/s²),ACCELEROMETER Z (m/s²),GRAVITY X (m/s²),GRAVITY Y (m/s²),GRAVITY Z (m/s²),GYROSCOPE X (rad/s),GYROSCOPE Y (rad/s),GYROSCOPE Z (rad/s),MAGNETIC FIELD X (μT),MAGNETIC FIELD Y (μT),MAGNETIC FIELD Z (μT),ORIENTATION Z (azimuth °),ORIENTATION X (pitch °),ORIENTATION Y (roll °),LOCATION Latitude : ,LOCATION Longitude : ,LOCATION Altitude ( m),LOCATION Altitude-google ( m),LOCATION Speed ( m/s),LOCATION Accuracy ( m),LOCATION ORIENTATION (°),Satellites in range,GPS NMEA,Time since start in ms ,YYYY-MO-DD HH-MI-SS_SSS
0.122108,0.114925,9.787795,0.095062,0.117015,9.805491,0.001466,0.001526,0.295474,-2.16,-33.6,-8.94,176.7783,-0.6863,-0.5876,55.81407,37.500324,210.7,NaN,,12.883,,0 / 1,,21,2021-05-02 18:54:00:134
0.122108,0.114925,9.787795,0.093528,0.117705,9.805497,0.001466,0.001526,0.295474,-3.06,-33.72,-9.3,176.7783,-0.6863,-0.5876,55.81407,37.500324,210.7,NaN,,12.883,,0 / 1,,30,2021-05-02 18:54:00:143
0.114925,0.10056,9.778218,0.093528,0.117705,9.805497,-0.002199,-0.001528,0.317465,-3.06,-33.72,-9.3,176.7783,-0.6863,-0.5876,55.81407,37.500324,210.7,NaN,,12.883,,0 / 1,,40,2021-05-02 18:54:00:153
-0.03352,0.026337,9.780613,0.094455,0.116841,9.805499,-0.002199,-0.001528,0.317465,-3.9,-33.42,-8.16,173.1995,-0.6877,-0.5465,55.81407,37.500324,210.7,NaN,,12.883,,0 / 1,,50,2021-05-02 18:54:00:163
-0.076617,0.081405,9.823709,0.094455,0.116841,9.805499,-0.00281,-9.18E-4,0.366945,-3.9,-33.42,-8.16,173.1995,-0.6877,-0.5465,55.81407,37.500324,210.7,NaN,,12.883,,0 / 1,,60,2021-05-02 18:54:00:173
-0.007183,0.095771,9.792584,0.094874,0.116152,9.805503,-0.002199,3.04E-4,0.404819,-4.08,-33.6,-7.98,173.1995,-0.6877,-0.5465,55.81407,37.500324,210.7,NaN,,12.883,,0 / 1,,70,2021-05-02 18:54:00:183
-0.007183,0.095771,9.792584,0.095262,0.115636,9.805505,-0.003421,0.003969,0.42681,-4.56,-33.54,-8.64,173.1995,-0.6877,-0.5465,55.81407,37.500324,210.7,NaN,,12.883,,0 / 1,,80,2021-05-02 18:54:00:193
0.045491,0.119714,9.75667,0.095262,0.115636,9.805505,-0.002199,-0.001528,0.44086,-4.56,-33.54,-8.64,173.1995,-0.6877,-0.5465,55.81407,37.500324,210.7,NaN,,12.883,,0 / 1,,90,2021-05-02 18:54:00:203
0.088588,0.134079,9.783007,0.095735,0.114649,9.805512,-3.67E-4,0.002137,0.437194,-5.04,-33.24,-8.58,171.5056,-0.6756,-0.5566,55.81407,37.500324,210.7,NaN,,12.883,,0 / 1,,100,2021-05-02 18:54:00:213
0.088588,0.134079,9.783007,0.095735,0.114649,9.805512,-3.67E-4,0.003359,0.431086,-5.04,-33.24,-8.58,171.5056,-0.6756,-0.5566,55.81407,37.500324,210.7,NaN,,12.883,,0 / 1,,110,2021-05-02 18:54:00:223
0.198725,0.122108,9.768641,0.096098,0.113727,9.80552,-3.67E-4,0.002748,0.418868,-5.88,-33.12,-8.28,171.5056,-0.6756,-0.5566,55.81407,37.500324,210.7,NaN,,12.883,,0 / 1,,120,2021-05-02 18:54:00:233
0.134079,0.112531,9.780613,0.096098,0.113727,9.80552,-9.77E-4,-3.07E-4,0.412149,-5.88,-33.12,-8.28,171.5056,-0.6756,-0.5566,55.81407,37.500324,210.7,NaN,,12.883,,0 / 1,,130,2021-05-02 18:54:00:243
0.086194,0.124502,9.787795,0.096606,0.112917,9.805525,-9.77E-4,3.04E-4,0.409095,-6.0,-32.94,-8.82,169.8115,-0.6645,-0.5615,55.81407,37.500324,210.7,NaN,,12.883,,0 / 1,,140,2021-05-02 18:54:00:253
0.086194,0.124502,9.787795,0.096606,0.112917,9.805525,-3.67E-4,0.003359,0.413982,-6.0,-32.94,-8.82,169.8115,-0.6645,-0.5615,55.81407,37.500324,210.7,NaN,,12.883,,0 / 1,,150,2021-05-02 18:54:00:263
0.119714,0.119714,9.77343,0.097346,0.111986,9.805528,-3.67E-4,0.003359,0.413982,-6.54,-32.22,-8.64,169.8115,-0.6645,-0.5615,55.81407,37.500324,210.7,NaN,,12.883,,0 / 1,,160,2021-05-02 18:54:00:273
0.184359,0.124502,9.77343,0.097346,0.111986,9.805528,-0.003421,0.003969,0.405429,-6.54,-32.22,-8.64,169.8115,-0.6645,-0.5615,55.81407,37.500324,210.7,NaN,,12.883,,0 / 1,,170,2021-05-02 18:54:00:283
0.184359,0.124502,9.77343,0.097352,0.110881,9.805539,2.44E-4,0.003969,0.393823,-7.26,-32.76,-8.34,168.1235,-0.6543,-0.5688,55.81407,37.500324,210.7,NaN,,12.883,,0 / 1,,180,2021-05-02 18:54:00:293
0.201119,0.102954,9.761458,0.097352,0.110881,9.805539,-0.002199,9.15E-4,0.38466,-7.26,-32.76,-8.34,168.1235,-0.6543,-0.5688,55.81407,37.500324,210.7,NaN,,12.883,,0 / 1,,190,2021-05-02 18:54:00:303
0.071828,0.081405,9.780613,0.09743,0.110364,9.805546,2.44E-4,0.002137,0.388936,-8.1,-32.82,-8.22,168.1235,-0.6543,-0.5688,55.81407,37.500324,210.7,NaN,,12.883,,0 / 1,,200,2021-05-02 18:54:00:313
-0.052674,0.076617,9.785401,0.097788,0.109107,9.805556,2.44E-4,0.003969,0.413982,-9.3,-32.7,-8.28,168.1235,-0.6543,-0.5688,55.81407,37.500324,210.7,NaN,,12.883,,0 / 1,,210,2021-05-02 18:54:00:323
-0.088588,0.098165,9.780613,0.097788,0.109107,9.805556,-0.001588,-3.07E-4,0.443914,-9.3,-32.7,-8.28,168.1235,-0.6543,-0.5688,55.81407,37.500324,210.7,NaN,,12.883,,0 / 1,,220,2021-05-02 18:54:00:333
-0.088588,0.098165,9.780613,0.098278,0.108001,9.805563,-9.77E-4,-9.18E-4,0.471403,-8.82,-32.28,-7.8,164.3819,-0.6375,-0.5714,55.81407,37.500324,210.7,NaN,,12.883,,0 / 1,,230,2021-05-02 18:54:00:343
0.052674,0.177176,9.742304,0.098278,0.108001,9.805563,-0.002199,-0.020465,0.480566,-8.82,-32.28,-7.8,164.3819,-0.6375,-0.5714,55.81407,37.500324,210.7,NaN,,12.883,,0 / 1,,241,2021-05-02 18:54:00:354
0.110137,0.131685,9.768641,0.096787,0.107955,9.805579,-9.77E-4,-0.001528,0.485453,-8.7,-32.28,-8.22,164.3819,-0.6375,-0.5714,55.81407,37.500324,210.7,NaN,,12.883,,0 / 1,,250,2021-05-02 18:54:00:363
0.110137,0.131685,9.768641,0.096787,0.107955,9.805579,-9.77E-4,-0.001528,0.485453,-8.7,-32.28,-8.22,164.3819,-0.6375,-0.5714,55.81407,37.500324,210.7,NaN,,12.883,,0 / 1,,260,2021-05-02 18:54:00:373
0.210696,0.150839,9.747093,0.09489,0.108587,9.80559,0.002077,-0.008859,0.484231,-8.88,-31.68,-8.58,164.3819,-0.6375,-0.5714,55.81407,37.500324,210.7,NaN,,12.883,,0 / 1,,271,2021-05-02 18:54:00:384
0.155628,0.098165,9.703996,0.094579,0.109167,9.805586,2.44E-4,0.014965,0.479344,-9.78,-31.62,-8.52,162.7368,-0.6344,-0.5544,55.81407,37.500324,210.7,NaN,,12.883,,0 / 1,,280,2021-05-02 18:54:00:393
0.169994,0.122108,9.749487,0.095253,0.108703,9.805585,-0.004643,0.001526,0.462851,-9.9,-31.44,-7.98,162.7368,-0.6344,-0.5544,55.81407,37.500324,210.7,NaN,,12.883,,0 / 1,,290,2021-05-02 18:54:00:403
0.129291,0.122108,9.744699,0.095253,0.108703,9.805585,2.44E-4,0.002748,0.465905,-9.9,-31.44,-7.98,162.7368,-0.6344,-0.5544,55.81407,37.500324,210.7,NaN,,12.883,,0 / 1,,301,2021-05-02 18:54:00:414
0.129291,0.122108,9.744699,0.096788,0.107724,9.80558,0.001466,0.003359,0.462851,-10.62,-30.84,-7.98,162.7368,-0.6344,-0.5544,55.81407,37.500324,210.7,NaN,,12.883,,0 / 1,,310,2021-05-02 18:54:00:423
0.079011,0.105348,9.754275,0.096788,0.107724,9.80558,-0.002199,0.005191,0.467738,-10.62,-30.84,-7.98,162.7368,-0.6344,-0.5544,55.81407,37.500324,210.7,NaN,,12.883,,0 / 1,,321,2021-05-02 18:54:00:434
0.124502,0.098165,9.814133,0.097287,0.107354,9.80558,2.44E-4,0.003359,0.472625,-11.52,-30.24,-7.5,158.2616,-0.6272,-0.5684,55.81407,37.500324,210.7,NaN,,12.883,,0 / 1,,330,2021-05-02 18:54:00:443
0.055068,0.074223,9.77343,0.097675,0.106505,9.805585,-9.77E-4,0.006413,0.475679,-11.52,-30.24,-7.5,158.2616,-0.6272,-0.5684,55.81407,37.500324,210.7,NaN,,12.883,,0 / 1,,340,2021-05-02 18:54:00:453
0.055068,0.035914,9.763853,0.097675,0.106505,9.805585,0.001466,0.00458,0.494005,-11.76,-30.9,-7.26,158.2616,-0.6272,-0.5684,55.81407,37.500324,210.7,NaN,,12.883,,0 / 1,,351,2021-05-02 18:54:00:464
0.009577,0.035914,9.763853,0.097584,0.105113,9.805601,-9.77E-4,0.00458,0.501946,-12.06,-30.66,-7.56,158.2616,-0.6272,-0.5684,55.81407,37.500324,210.7,NaN,,12.883,,0 / 1,,360,2021-05-02 18:54:00:473
0.124502,0.098165,9.79019,0.097584,0.105113,9.805601,2.44E-4,0.002748,0.505611,-12.06,-30.66,-7.56,158.2616,-0.6272,-0.5684,55.81407,37.500324,210.7,NaN,,12.883,,0 / 1,,370,2021-05-02 18:54:00:483
0.134079,0.117319,9.759064,0.098162,0.103581,9.805612,-0.00281,0.001526,0.501335,-12.84,-30.78,-8.28,157.3168,-0.6141,-0.5702,55.81407,37.500324,210.7,NaN,,12.883,,0 / 1,,380,2021-05-02 18:54:00:493
0.134079,0.117319,9.759064,0.098162,0.103581,9.805612,-0.004643,9.15E-4,0.503779,-12.84,-30.78,-8.28,157.3168,-0.6141,-0.5702,55.81407,37.500324,210.7,NaN,,12.883,,0 / 1,,390,2021-05-02 18:54:00:503
0.251399,0.225062,9.785401,0.100153,0.103552,9.805593,-9.77E-4,0.006413,0.50439,-13.26,-30.9,-8.64,157.3168,-0.6141,-0.5702,55.81407,37.500324,210.7,NaN,,12.883,,0 / 1,,401,2021-05-02 18:54:00:514
0.287313,0.148445,9.730332,0.100153,0.103552,9.805593,-0.00281,0.003359,0.487896,-13.26,-30.9,-8.64,157.3168,-0.6141,-0.5702,55.81407,37.500324,210.7,NaN,,12.883,,0 / 1,,410,2021-05-02 18:54:00:523
0.253793,0.158022,9.780613,0.111856,0.107501,9.805423,-0.00281,0.003359,0.487896,-13.14,-30.54,-8.46,157.321,-0.605,-0.5852,55.81407,37.500324,210.7,NaN,,12.883,,0 / 1,,420,2021-05-02 18:54:00:533
0.253793,0.158022,9.780613,0.111856,0.107501,9.805423,-0.00281,0.010689,0.479955,-13.14,-30.54,-8.46,157.321,-0.605,-0.5852,55.81407,37.500324,210.7,NaN,,12.883,,0 / 1,,430,2021-05-02 18:54:00:543
0.301679,0.143657,9.785401,0.126933,0.112376,9.805184,-0.002199,0.008856,0.468349,-13.68,-29.4,-8.46,157.321,-0.605,-0.5852,55.81407,37.500324,210.7,NaN,,12.883,,0 / 1,,440,2021-05-02 18:54:00:553
0.189148,0.064645,9.75667,0.126933,0.112376,9.805184,-3.67E-4,0.005802,0.492172,-13.68,-29.4,-8.46,157.321,-0.605,-0.5852,55.81407,37.500324,210.7,NaN,,12.883,,0 / 1,,450,2021-05-02 18:54:00:563
0.155628,0.047885,9.737515,0.141959,0.11383,9.804962,-0.001588,-0.003361,0.496448,-14.34,-29.22,-8.34,154.3249,-0.6566,-0.7417,55.81407,37.500324,210.7,NaN,,12.883,,0 / 1,,460,2021-05-02 18:54:00:573
0.035914,-0.026337,9.77343,0.141959,0.11383,9.804962,-0.001588,-0.003361,0.496448,-14.34,-29.22,-8.34,154.3249,-0.6566,-0.7417,55.81407,37.500324,210.7,NaN,,12.883,,0 / 1,,470,2021-05-02 18:54:00:583
0.035914,-0.026337,9.77343,0.148999,0.110463,9.804896,8.55E-4,-0.001528,0.495837,-14.22,-29.64,-8.04,154.3249,-0.6566,-0.7417,55.81407,37.500324,210.7,NaN,,12.883,,0 / 1,,480,2021-05-02 18:54:00:593
-0.098165,-0.043097,9.79019,0.148999,0.110463,9.804896,-0.001588,3.04E-4,0.509277,-14.22,-29.64,-8.04,154.3249,-0.6566,-0.7417,55.81407,37.500324,210.7,NaN,,12.883,,0 / 1,,490,2021-05-02 18:54:00:603
0.05028,0.026337,9.799767,0.142606,0.100396,9.805099,-0.002199,0.002137,0.512942,-15.0,-29.76,-7.38,153.5368,-0.6454,-0.8706,55.81407,37.500324,210.7,NaN,,12.883,,0 / 1,,500,2021-05-02 18:54:00:613
0.143657,0.093377,9.730332,0.142606,0.100396,9.805099,-0.001588,0.008856,0.520272,-15.0,-29.76,-7.38,153.5368,-0.6454,-0.8706,55.81407,37.500324,210.7,NaN,,12.883,,0 / 1,,510,2021-05-02 18:54:00:623
0.215485,0.114925,9.737515,0.134267,0.091149,9.805307,-3.67E-4,0.003969,0.527603,-16.14,-29.46,-7.02,153.5368,-0.6454,-0.8706,55.81407,37.500324,210.7,NaN,,12.883,,0 / 1,,520,2021-05-02 18:54:00:633
0.215485,0.114925,9.737515,0.134267,0.091149,9.805307,-0.001588,0.005191,0.558146,-16.14,-29.46,-7.02,153.5368,-0.6454,-0.8706,55.81407,37.500324,210.7,NaN,,12.883,,0 / 1,,530,2021-05-02 18:54:00:643
0.299284,0.172388,9.802161,0.135315,0.087324,9.805328,8.55E-4,0.003969,0.594187,-16.38,-28.56,-7.44,151.204,-0.5325,-0.7845,55.81407,37.500324,210.7,NaN,,12.883,,0 / 1,,540,2021-05-02 18:54:00:653
0.299284,0.237033,9.761458,0.135315,0.087324,9.805328,-0.00281,0.006413,0.608848,-16.38,-28.56,-7.44,151.204,-0.5325,-0.7845,55.81407,37.500324,210.7,NaN,,12.883,,0 / 1,,551,2021-05-02 18:54:00:664
0.26337,0.193936,9.794978,0.139431,0.087146,9.805272,-9.77E-4,-0.002139,0.62473,-17.16,-28.26,-6.6,151.204,-0.5325,-0.7845,55.81407,37.500324,210.7,NaN,,12.883,,0 / 1,,561,2021-05-02 18:54:00:674
0.06704,0.179571,9.79019,0.139431,0.087146,9.805272,-9.77E-4,3.04E-4,0.639391,-17.16,-28.26,-6.6,151.204,-0.5325,-0.7845,55.81407,37.500324,210.7,NaN,,12.883,,0 / 1,,570,2021-05-02 18:54:00:683
0.06704,0.179571,9.79019,0.140298,0.085204,9.805277,-0.002199,0.00458,0.635115,-17.58,-28.08,-6.54,147.3508,-0.5092,-0.8147,55.81407,37.500324,210.7,NaN,,12.883,,0 / 1,,580,2021-05-02 18:54:00:693
-0.076617,0.158022,9.749487,0.140298,0.085204,9.805277,-9.77E-4,-0.003361,0.624119,-17.58,-28.08,-6.54,147.3508,-0.5092,-0.8147,55.81407,37.500324,210.7,NaN,,12.883,,0 / 1,,590,2021-05-02 18:54:00:703
-0.026337,0.193936,9.754275,0.141452,0.083431,9.805275,-3.67E-4,0.005191,0.613124,-18.18,-27.54,-7.14,147.3508,-0.5092,-0.8147,55.81407,37.500324,210.7,NaN,,12.883,,0 / 1,,601,2021-05-02 18:54:00:714
0.055068,0.22985,9.749487,0.141452,0.083431,9.805275,-9.77E-4,0.001526,0.613124,-18.18,-27.54,-7.14,147.3508,-0.5092,-0.8147,55.81407,37.500324,210.7,NaN,,12.883,,0 / 1,,611,2021-05-02 18:54:00:724
0.098165,0.284919,9.747093,0.142282,0.081497,9.80528,-0.002199,0.007024,0.632671,-18.12,-28.2,-6.36,147.3425,-0.4875,-0.8265,55.81407,37.500324,210.7,NaN,,12.883,,0 / 1,,620,2021-05-02 18:54:00:733
0.222668,0.287313,9.787795,0.142282,0.081497,9.80528,-0.00281,9.15E-4,0.645499,-18.12,-28.2,-6.36,147.3425,-0.4875,-0.8265,55.81407,37.500324,210.7,NaN,,12.883,,0 / 1,,631,2021-05-02 18:54:00:744
0.222668,0.287313,9.787795,0.142321,0.079536,9.805295,-0.004032,0.008245,0.647332,-18.66,-28.62,-6.84,147.3425,-0.4875,-0.8265,55.81407,37.500324,210.7,NaN,,12.883,,0 / 1,,640,2021-05-02 18:54:00:753
0.227456,0.177176,9.72315,0.142321,0.079536,9.805295,-0.002199,0.008856,0.634504,-18.66,-28.62,-6.84,147.3425,-0.4875,-0.8265,55.81407,37.500324,210.7,NaN,,12.883,,0 / 1,,650,2021-05-02 18:54:00:763
0.268159,0.112531,9.761458,0.141861,0.077285,9.80532,-0.005253,0.019852,0.595409,-19.56,-27.78,-6.84,144.545,-0.4647,-0.8316,55.81407,37.500324,210.7,NaN,,12.883,,0 / 1,,661,2021-05-02 18:54:00:774
0.26337,-0.055068,9.737515,0.141861,0.077285,9.80532,-0.005253,0.019852,0.595409,-19.56,-27.78,-6.84,144.545,-0.4647,-0.8316,55.81407,37.500324,210.7,NaN,,12.883,,0 / 1,,670,2021-05-02 18:54:00:783
0.26337,-0.055068,9.737515,0.140503,0.075132,9.805356,-0.00281,9.15E-4,0.545929,-19.56,-27.06,-7.02,144.545,-0.4647,-0.8316,55.81407,37.500324,210.7,NaN,,12.883,,0 / 1,,680,2021-05-02 18:54:00:793
0.03352,-0.064645,9.751882,0.140503,0.075132,9.805356,-0.00281,0.002748,0.528213,-19.56,-27.06,-7.02,144.545,-0.4647,-0.8316,55.81407,37.500324,210.7,NaN,,12.883,,0 / 1,,691,2021-05-02 18:54:00:804
-0.119714,-0.028731,9.761458,0.140451,0.073496,9.805368,-3.67E-4,0.002137,0.534322,-20.7,-26.34,-7.32,141.1496,-0.4294,-0.8206,55.81407,37.500324,210.7,NaN,,12.883,,0 / 1,,701,2021-05-02 18:54:00:814
-0.057463,-0.002394,9.794978,0.140451,0.073496,9.805368,-0.005253,0.008245,0.544096,-20.7,-26.34,-7.32,141.1496,-0.4294,-0.8206,55.81407,37.500324,210.7,NaN,,12.883,,0 / 1,,710,2021-05-02 18:54:00:823
0.062251,0.05028,9.823709,0.139678,0.071407,9.805395,-0.001588,9.15E-4,0.555091,-21.48,-25.62,-6.0,141.1496,-0.4294,-0.8206,55.81407,37.500324,210.7,NaN,,12.883,,0 / 1,,720,2021-05-02 18:54:00:833
0.062251,0.05028,9.823709,0.139678,0.071407,9.805395,-0.005253,0.019852,0.576472,-21.48,-25.62,-6.0,141.1496,-0.4294,-0.8206,55.81407,37.500324,210.7,NaN,,12.883,,0 / 1,,730,2021-05-02 18:54:00:843
0.201119,0.131685,9.761458,0.140276,0.069585,9.8054,-0.002199,3.04E-4,0.559368,-20.76,-25.68,-6.48,141.1411,-0.4066,-0.8196,55.81407,37.500324,210.7,NaN,,12.883,,0 / 1,,741,2021-05-02 18:54:00:854
0.323227,0.0838,9.727939,0.140276,0.069585,9.8054,-3.67E-4,9.15E-4,0.540431,-20.76,-25.68,-6.48,141.1411,-0.4066,-0.8196,55.81407,37.500324,210.7,NaN,,12.883,,0 / 1,,750,2021-05-02 18:54:00:863
0.316044,0.076617,9.754275,0.140655,0.068042,9.805405,-0.00281,0.001526,0.510498,-20.76,-25.14,-7.14,141.1411,-0.4066,-0.8196,55.81407,37.500324,210.7,NaN,,12.883,,0 / 1,,760,2021-05-02 18:54:00:873
0.28013,0.064645,9.732727,0.140655,0.068042,9.805405,-9.77E-4,-0.002139,0.489118,-20.76,-25.14,-7.14,141.1411,-0.4066,-0.8196,55.81407,37.500324,210.7,NaN,,12.883,,0 / 1,,770,2021-05-02 18:54:00:883
0.28013,0.064645,9.732727,0.14153,0.066397,9.805404,-0.003421,0.002748,0.494616,-21.78,-24.66,-6.3,138.716,-0.3975,-0.8218,55.81407,37.500324,210.7,NaN,,12.883,,0 / 1,,780,2021-05-02 18:54:00:893
0.098165,0.10056,9.735122,0.14153,0.066397,9.805404,-0.001588,-0.003972,0.514163,-21.78,-24.66,-6.3,138.716,-0.3975,-0.8218,55.81407,37.500324,210.7,NaN,,12.883,,0 / 1,,790,2021-05-02 18:54:00:903
0.098165,0.141262,9.75667,0.14153,0.066397,9.805404,-9.77E-4,-0.006415,0.552648,-22.98,-24.96,-5.7,138.716,-0.3975,-0.8218,55.81407,37.500324,210.7,NaN,,12.883,,0 / 1,,800,2021-05-02 18:54:00:913
0.26337,0.205908,9.794978,0.142366,0.064502,9.805405,-0.002199,-9.18E-4,0.604571,-22.98,-24.96,-5.7,138.716,-0.3975,-0.8218,55.81407,37.500324,210.7,NaN,,12.883,,0 / 1,,811,2021-05-02 18:54:00:924
0.287313,0.179571,9.799767,0.143529,0.062871,9.805398,-0.002199,-9.18E-4,0.604571,-24.42,-24.18,-6.06,135.0567,-0.3769,-0.8318,55.81407,37.500324,210.7,NaN,,12.883,,0 / 1,,820,2021-05-02 18:54:00:933
0.287313,0.179571,9.799767,0.143529,0.062871,9.805398,-0.00281,0.005191,0.625341,-24.42,-24.18,-6.06,135.0567,-0.3769,-0.8318,55.81407,37.500324,210.7,NaN,,12.883,,0 / 1,,830,2021-05-02 18:54:00:943
0.284919,0.038308,9.763853,0.143646,0.060646,9.80541,-0.001588,0.00458,0.62473,-24.6,-23.28,-6.72,135.0567,-0.3769,-0.8318,55.81407,37.500324,210.7,NaN,,12.883,,0 / 1,,840,2021-05-02 18:54:00:953
0.090982,-0.045491,9.792584,0.143646,0.060646,9.80541,-3.67E-4,0.007024,0.621065,-24.6,-23.28,-6.72,135.0567,-0.3769,-0.8318,55.81407,37.500324,210.7,NaN,,12.883,,0 / 1,,851,2021-05-02 18:54:00:964
0.071828,-0.047885,9.766247,0.14415,0.058495,9.805416,0.002077,0.005802,0.591132,-24.48,-23.16,-6.48,133.8398,-0.3543,-0.8393,55.81407,37.500324,210.7,NaN,,12.883,,0 / 1,,860,2021-05-02 18:54:00:973
-0.009577,0.045491,9.747093,0.14415,0.058495,9.805416,-3.67E-4,-9.18E-4,0.549594,-24.48,-23.16,-6.48,133.8398,-0.3543,-0.8393,55.81407,37.500324,210.7,NaN,,12.883,,0 / 1,,871,2021-05-02 18:54:00:984
-0.009577,0.045491,9.747093,0.14454,0.056663,9.805422,2.44E-4,-0.003972,0.501946,-24.96,-23.46,-6.3,133.8398,-0.3543,-0.8393,55.81407,37.500324,210.7,NaN,,12.883,,0 / 1,,880,2021-05-02 18:54:00:993
0.014366,0.136474,9.751882,0.14454,0.056663,9.805422,2.44E-4,-0.003972,0.501946,-24.96,-23.46,-6.3,133.8398,-0.3543,-0.8393,55.81407,37.500324,210.7,NaN,,12.883,,0 / 1,,890,2021-05-02 18:54:01:003
0.217879,0.119714,9.778218,0.145199,0.055964,9.805416,-9.77E-4,-0.004583,0.470792,-24.84,-22.86,-6.06,133.8398,-0.3543,-0.8393,55.81407,37.500324,210.7,NaN,,12.883,,0 / 1,,900,2021-05-02 18:54:01:013
0.24661,0.126897,9.751882,0.146008,0.054415,9.805412,-0.001588,-0.00275,0.449412,-25.08,-22.38,-5.82,131.4046,-0.327,-0.8484,55.81407,37.500324,210.7,NaN,,12.883,,0 / 1,,910,2021-05-02 18:54:01:023
0.088588,0.011971,9.737515,0.146008,0.054415,9.805412,-0.00281,-0.002139,0.439638,-25.08,-22.38,-5.82,131.4046,-0.327,-0.8484,55.81407,37.500324,210.7,NaN,,12.883,,0 / 1,,920,2021-05-02 18:54:01:033
0.088588,0.011971,9.737515,0.146352,0.053119,9.805414,-0.002199,0.001526,0.443303,-25.38,-22.5,-5.82,131.4046,-0.327,-0.8484,55.81407,37.500324,210.7,NaN,,12.883,,0 / 1,,930,2021-05-02 18:54:01:043
-0.019154,-0.090982,9.742304,0.146352,0.053119,9.805414,-0.002199,0.00458,0.467738,-25.38,-22.5,-5.82,131.4046,-0.327,-0.8484,55.81407,37.500324,210.7,NaN,,12.883,,0 / 1,,940,2021-05-02 18:54:01:053
-0.107742,-0.162811,9.761458,0.14566,0.051337,9.805434,-3.67E-4,0.008856,0.50439,-25.56,-22.08,-5.4,130.2828,-0.3103,-0.8551,55.81407,37.500324,210.7,NaN,,12.883,,0 / 1,,950,2021-05-02 18:54:01:063
-0.124502,-0.112531,9.747093,0.14566,0.051337,9.805434,-0.004032,0.005191,0.548372,-25.56,-22.08,-5.4,130.2828,-0.3103,-0.8551,55.81407,37.500324,210.7,NaN,,12.883,,0 / 1,,961,2021-05-02 18:54:01:074
-0.124502,-0.112531,9.747093,0.144354,0.049408,9.805463,-0.003421,0.007635,0.589911,-26.28,-21.18,-5.1,130.2828,-0.3103,-0.8551,55.81407,37.500324,210.7,NaN,,12.883,,0 / 1,,970,2021-05-02 18:54:01:083
-0.043097,-0.007183,9.742304,0.143005,0.048138,9.80549,-0.001588,0.0113,0.622897,-26.58,-20.94,-5.58,130.2828,-0.3103,-0.8551,55.81407,37.500324,210.7,NaN,,12.883,,0 / 1,,981,2021-05-02 18:54:01:094
0.146051,0.129291,9.73991,0.143005,0.048138,9.80549,-0.002199,0.013132,0.658939,-26.58,-20.94,-5.58,130.2828,-0.3103,-0.8551,55.81407,37.500324,210.7,NaN,,12.883,,0 / 1,,992,2021-05-02 18:54:01:105
0.39745,0.299284,9.751882,0.141905,0.045772,9.805517,-0.003421,0.008245,0.658328,-26.58,-20.82,-4.98,127.9177,-0.2813,-0.8356,55.81407,37.500324,210.7,NaN,,12.883,,0 / 1,,1000,2021-05-02 18:54:01:113
0.39745,0.299284,9.751882,0.141905,0.045772,9.805517,-9.77E-4,0.008856,0.622897,-26.58,-20.82,-4.98,127.9177,-0.2813,-0.8356,55.81407,37.500324,210.7,NaN,,12.883,,0 / 1,,1010,2021-05-02 18:54:01:123
0.153234,0.160416,9.73991,0.141241,0.043746,9.805535,-3.67E-4,0.002748,0.594798,-26.64,-20.4,-4.98,127.9177,-0.2813,-0.8356,55.81407,37.500324,210.7,NaN,,12.883,,0 / 1,,1023,2021-05-02 18:54:01:136
0.153234,0.160416,9.73991,0.141241,0.043746,9.805535,-0.003421,3.04E-4,0.588689,-26.64,-20.4,-4.98,127.9177,-0.2813,-0.8356,55.81407,37.500324,210.7,NaN,,12.883,,0 / 1,,1030,2021-05-02 18:54:01:143
0.009577,0.090982,9.725544,0.141241,0.043746,9.805535,-0.003421,3.04E-4,0.588689,-26.64,-20.4,-4.98,127.9177,-0.2813,-0.8356,55.81407,37.500324,210.7,NaN,,12.883,,0 / 1,,1040,2021-05-02 18:54:01:153
0.0,0.105348,9.754275,0.141476,0.041842,9.80554,8.55E-4,0.00458,0.640613,-26.76,-19.74,-5.28,126.5717,-0.2556,-0.8252,55.81407,37.500324,210.7,NaN,,12.883,,0 / 1,,1051,2021-05-02 18:54:01:164
0.093377,0.079011,9.761458,0.141982,0.040086,9.805541,8.55E-4,0.00458,0.640613,-26.46,-19.62,-4.5,126.5717,-0.2556,-0.8252,55.81407,37.500324,210.7,NaN,,12.883,,0 / 1,,1060,2021-05-02 18:54:01:173
0.093377,0.079011,9.761458,0.141982,0.040086,9.805541,-0.001588,-0.001528,0.65283,-26.46,-19.62,-4.5,126.5717,-0.2556,-0.8252,55.81407,37.500324,210.7,NaN,,12.883,,0 / 1,,1071,2021-05-02 18:54:01:184
0.402238,0.155628,9.775824,0.141531,0.037835,9.805556,-0.001588,0.002748,0.633282,-27.36,-18.9,-4.56,125.1779,-0.2342,-0.8296,55.81407,37.500324,210.7,NaN,,12.883,,0 / 1,,1080,2021-05-02 18:54:01:193
0.452518,0.186753,9.715967,0.141025,0.036956,9.805567,8.55E-4,0.00458,0.592965,-27.6,-18.12,-3.66,125.1779,-0.2342,-0.8296,55.81407,37.500324,210.7,NaN,,12.883,,0 / 1,,1090,2021-05-02 18:54:01:203
0.399844,0.158022,9.754275,0.141025,0.036956,9.805567,-0.005253,0.005802,0.555091,-27.6,-18.12,-3.66,125.1779,-0.2342,-0.8296,55.81407,37.500324,210.7,NaN,,12.883,,0 / 1,,1101,2021-05-02 18:54:01:214
0.268159,0.126897,9.751882,0.140562,0.034959,9.80558,-9.77E-4,0.008856,0.514163,-27.72,-17.7,-3.78,125.1779,-0.2342,-0.8296,55.81407,37.500324,210.7,NaN,,12.883,,0 / 1,,1111,2021-05-02 18:54:01:224
0.268159,0.126897,9.751882,0.140562,0.034959,9.80558,-9.77E-4,0.003359,0.494616,-27.72,-17.7,-3.78,125.1779,-0.2342,-0.8296,55.81407,37.500324,210.7,NaN,,12.883,,0 / 1,,1120,2021-05-02 18:54:01:233
0.179571,0.059857,9.747093,0.14049,0.033685,9.805586,-0.001588,0.003359,0.482398,-27.12,-17.46,-4.38,122.2294,-0.2042,-0.8213,55.81407,37.500324,210.7,NaN,,12.883,,0 / 1,,1130,2021-05-02 18:54:01:243
0.138868,0.028731,9.730332,0.14049,0.033685,9.805586,-3.67E-4,0.001526,0.493394,-27.12,-17.46,-4.38,122.2294,-0.2042,-0.8213,55.81407,37.500324,210.7,NaN,,12.883,,0 / 1,,1140,2021-05-02 18:54:01:253
0.028731,0.011971,9.759064,0.140831,0.032296,9.805586,-3.67E-4,0.005191,0.506833,-27.72,-17.4,-5.22,122.2294,-0.2042,-0.8213,55.81407,37.500324,210.7,NaN,,12.883,,0 / 1,,1151,2021-05-02 18:54:01:264
0.011971,-0.009577,9.766247,0.140515,0.031763,9.805592,2.44E-4,0.002748,0.536765,-28.26,-17.28,-5.16,122.2294,-0.2042,-0.8213,55.81407,37.500324,210.7,NaN,,12.883,,0 / 1,,1160,2021-05-02 18:54:01:273
0.011971,-0.009577,9.766247,0.140515,0.031763,9.805592,-0.001588,3.04E-4,0.570363,-28.26,-17.28,-5.16,122.2294,-0.2042,-0.8213,55.81407,37.500324,210.7,NaN,,12.883,,0 / 1,,1171,2021-05-02 18:54:01:284
0.227456,0.090982,9.945818,0.14183,0.030172,9.805578,-0.004032,0.014354,0.579526,-28.62,-17.52,-4.5,121.8603,-0.1856,-0.821,55.81407,37.500324,210.7,NaN,,12.883,,0 / 1,,1180,2021-05-02 18:54:01:293
0.24661,0.069434,9.742304,0.14183,0.030172,9.805578,0.001466,0.006413,0.596019,-28.62,-17.52,-4.5,121.8603,-0.1856,-0.821,55.81407,37.500324,210.7,NaN,,12.883,,0 / 1,,1191,2021-05-02 18:54:01:304
0.258582,0.095771,9.725544,0.141376,0.028871,9.805589,2.44E-4,-0.002139,0.609458,-28.2,-17.1,-3.6,121.8603,-0.1856,-0.821,55.81407,37.500324,210.7,NaN,,12.883,,0 / 1,,1200,2021-05-02 18:54:01:313
0.24661,0.112531,9.780613,0.141376,0.028871,9.805589,-0.00281,-3.07E-4,0.627174,-28.2,-17.1,-3.6,121.8603,-0.1856,-0.821,55.81407,37.500324,210.7,NaN,,12.883,,0 / 1,,1211,2021-05-02 18:54:01:324
0.24661,0.131685,9.730332,0.141773,0.026945,9.805589,-0.004032,0.002748,0.647943,-27.66,-16.62,-3.66,121.2993,-0.1687,-0.826,55.81407,37.500324,210.7,NaN,,12.883,,0 / 1,,1220,2021-05-02 18:54:01:333
0.24661,0.131685,9.730332,0.141773,0.026945,9.805589,-0.001588,0.002137,0.660771,-27.66,-16.62,-3.66,121.2993,-0.1687,-0.826,55.81407,37.500324,210.7,NaN,,12.883,,0 / 1,,1230,2021-05-02 18:54:01:343
0.31365,0.165205,9.715967,0.141785,0.025091,9.805593,-0.002199,0.005802,0.679097,-28.08,-15.9,-3.6,121.2993,-0.1687,-0.826,55.81407,37.500324,210.7,NaN,,12.883,,0 / 1,,1240,2021-05-02 18:54:01:353
0.378295,0.239427,9.699207,0.141785,0.025091,9.805593,-0.004032,0.010078,0.678486,-28.08,-15.9,-3.6,121.2993,-0.1687,-0.826,55.81407,37.500324,210.7,NaN,,12.883,,0 / 1,,1250,2021-05-02 18:54:01:363
0.318439,0.052674,9.778218,0.140773,0.022758,9.805614,-0.003421,0.007024,0.718192,-28.92,-15.3,-2.4,117.3659,-0.1466,-0.8284,55.81407,37.500324,210.7,NaN,,12.883,,0 / 1,,1261,2021-05-02 18:54:01:374
0.366324,0.074223,9.715967,0.140773,0.022758,9.805614,-0.005253,0.005802,0.764618,-28.92,-15.3,-2.4,117.3659,-0.1466,-0.8284,55.81407,37.500324,210.7,NaN,,12.883,,0 / 1,,1271,2021-05-02 18:54:01:384
0.366324,0.074223,9.715967,0.139437,0.020279,9.805637,-0.004643,0.010689,0.781112,-28.8,-15.18,-2.7,117.3659,-0.1466,-0.8284,55.81407,37.500324,210.7,NaN,,12.883,,0 / 1,,1280,2021-05-02 18:54:01:393
0.275342,-0.009577,9.75667,0.139437,0.020279,9.805637,-0.002199,0.0113,0.804324,-28.8,-15.18,-2.7,117.3659,-0.1466,-0.8284,55.81407,37.500324,210.7,NaN,,12.883,,0 / 1,,1290,2021-05-02 18:54:01:403
0.282524,-0.035914,9.737515,0.13741,0.017494,9.805672,-0.002199,0.0113,0.804324,-28.56,-14.34,-3.72,115.801,-0.1185,-0.8147,55.81407,37.500324,210.7,NaN,,12.883,,0 / 1,,1300,2021-05-02 18:54:01:413
0.174782,0.009577,9.79019,0.13741,0.017494,9.805672,-0.001588,0.007635,0.818374,-28.56,-14.34,-3.72,115.801,-0.1185,-0.8147,55.81407,37.500324,210.7,NaN,,12.883,,0 / 1,,1310,2021-05-02 18:54:01:423
0.038308,0.069434,9.778218,0.135732,0.014183,9.8057,-0.00281,0.007024,0.811044,-29.64,-13.68,-3.36,115.801,-0.1185,-0.8147,55.81407,37.500324,210.7,NaN,,12.883,,0 / 1,,1321,2021-05-02 18:54:01:434
0.038308,0.069434,9.778218,0.135732,0.014183,9.8057,-0.001588,0.003969,0.790275,-29.64,-13.68,-3.36,115.801,-0.1185,-0.8147,55.81407,37.500324,210.7,NaN,,12.883,,0 / 1,,1331,2021-05-02 18:54:01:444
0.011971,0.095771,9.742304,0.135732,0.014183,9.8057,-0.004643,0.007635,0.778668,-29.64,-13.68,-3.36,115.801,-0.1185,-0.8147,55.81407,37.500324,210.7,NaN,,12.883,,0 / 1,,1340,2021-05-02 18:54:01:453
-0.01676,0.10056,9.703996,0.136487,0.011959,9.805694,-0.005253,0.00458,0.772559,-31.02,-13.26,-2.76,112.7725,-0.0829,-0.793,55.81407,37.500324,210.7,NaN,,12.883,,0 / 1,,1350,2021-05-02 18:54:01:463
-0.002394,0.088588,9.75667,0.136411,0.009124,9.805697,-0.001588,0.005191,0.764007,-30.78,-12.9,-2.88,112.7725,-0.0829,-0.793,55.81407,37.500324,210.7,NaN,,12.883,,0 / 1,,1360,2021-05-02 18:54:01:473
-0.002394,0.088588,9.75667,0.136411,0.009124,9.805697,-0.002199,-0.003972,0.766451,-30.78,-12.9,-2.88,112.7725,-0.0829,-0.793,55.81407,37.500324,210.7,NaN,,12.883,,0 / 1,,1370,2021-05-02 18:54:01:483
0.045491,0.114925,9.783007,0.136025,0.006911,9.805704,-3.67E-4,0.001526,0.761564,-30.72,-12.6,-3.42,112.7755,-0.0533,-0.797,55.81407,37.500324,210.7,NaN,,12.883,,0 / 1,,1380,2021-05-02 18:54:01:493
0.110137,0.110137,9.735122,0.136025,0.006911,9.805704,-0.004032,0.002748,0.735908,-30.72,-12.6,-3.42,112.7755,-0.0533,-0.797,55.81407,37.500324,210.7,NaN,,12.883,,0 / 1,,1390,2021-05-02 18:54:01:503
0.126897,0.090982,9.768641,0.135648,0.004593,9.805711,-0.001588,3.04E-4,0.699867,-30.36,-12.6,-3.6,112.7755,-0.0533,-0.797,55.81407,37.500324,210.7,NaN,,12.883,,0 / 1,,1401,2021-05-02 18:54:01:514
0.10056,0.055068,9.77343,0.135648,0.004593,9.805711,-0.001588,0.002748,0.665658,-30.36,-12.6,-3.6,112.7755,-0.0533,-0.797,55.81407,37.500324,210.7,NaN,,12.883,,0 / 1,,1410,2021-05-02 18:54:01:523
0.10056,0.055068,9.77343,0.135105,0.002648,9.805719,-0.001588,0.002748,0.665658,-29.16,-12.06,-3.36,112.5077,-0.0268,-0.7926,55.81407,37.500324,210.7,NaN,,12.883,,0 / 1,,1420,2021-05-02 18:54:01:533
0.184359,0.002394,9.735122,0.135105,0.002648,9.805719,-0.001588,0.001526,0.646721,-29.16,-12.06,-3.36,112.5077,-0.0268,-0.7926,55.81407,37.500324,210.7,NaN,,12.883,,0 / 1,,1431,2021-05-02 18:54:01:544
0.191542,0.10056,9.768641,0.134652,0.001082,9.805726,-0.001588,9.15E-4,0.63878,-30.12,-10.86,-3.06,112.5077,-0.0268,-0.7926,55.81407,37.500324,210.7,NaN,,12.883,,0 / 1,,1440,2021-05-02 18:54:01:553
0.282524,0.126897,9.768641,0.134652,0.001082,9.805726,-0.003421,0.002748,0.63145,-30.12,-10.86,-3.06,112.5077,-0.0268,-0.7926,55.81407,37.500324,210.7,NaN,,12.883,,0 / 1,,1450,2021-05-02 18:54:01:563
0.208302,0.071828,9.77343,0.134642,-7.68E-4,9.805726,-0.001588,0.002137,0.618621,-31.2,-10.98,-3.0,109.5628,0.0045,-0.7867,55.81407,37.500324,210.7,NaN,,12.883,,0 / 1,,1460,2021-05-02 18:54:01:573
0.208302,0.071828,9.77343,0.134642,-7.68E-4,9.805726,-0.001588,-0.00275,0.614956,-31.2,-10.98,-3.0,109.5628,0.0045,-0.7867,55.81407,37.500324,210.7,NaN,,12.883,,0 / 1,,1470,2021-05-02 18:54:01:583
0.258582,0.081405,9.715967,0.133873,-0.002386,9.805736,-0.001588,9.15E-4,0.621676,-31.5,-10.56,-3.18,109.5628,0.0045,-0.7867,55.81407,37.500324,210.7,NaN,,12.883,,0 / 1,,1480,2021-05-02 18:54:01:593
0.284919,0.110137,9.730332,0.133873,-0.002386,9.805736,-0.004643,-0.002139,0.632671,-31.5,-10.56,-3.18,109.5628,0.0045,-0.7867,55.81407,37.500324,210.7,NaN,,12.883,,0 / 1,,1490,2021-05-02 18:54:01:603
0.29689,0.090982,9.732727,0.133794,-0.004434,9.805737,-3.67E-4,-0.008248,0.625341,-31.56,-10.2,-3.12,107.3778,0.0139,-0.7822,55.81407,37.500324,210.7,NaN,,12.883,,0 / 1,,1500,2021-05-02 18:54:01:613
0.445335,0.122108,9.749487,0.133794,-0.004434,9.805737,-0.001588,0.002137,0.655273,-31.56,-10.2,-3.12,107.3778,0.0139,-0.7822,55.81407,37.500324,210.7,NaN,,12.883,,0 / 1,,1510,2021-05-02 18:54:01:623
0.359141,0.129291,9.747093,0.133881,-0.006147,9.805735,-0.002199,0.005191,0.649165,-31.56,-10.44,-2.64,107.3778,0.0139,-0.7822,55.81407,37.500324,210.7,NaN,,12.883,,0 / 1,,1520,2021-05-02 18:54:01:633
0.167599,0.124502,9.747093,0.133881,-0.006147,9.805735,-0.00281,-0.001528,0.635726,-31.56,-10.44,-2.64,107.3778,0.0139,-0.7822,55.81407,37.500324,210.7,NaN,,12.883,,0 / 1,,1531,2021-05-02 18:54:01:644
0.167599,0.124502,9.747093,0.134191,-0.008031,9.805729,-0.00281,-3.07E-4,0.654052,-31.86,-9.72,-2.58,107.38,0.0359,-0.7822,55.81407,37.500324,210.7,NaN,,12.883,,0 / 1,,1540,2021-05-02 18:54:01:653
0.01676,0.105348,9.747093,0.134191,-0.008031,9.805729,-0.003421,0.007024,0.670545,-31.86,-9.72,-2.58,107.38,0.0359,-0.7822,55.81407,37.500324,210.7,NaN,,12.883,,0 / 1,,1550,2021-05-02 18:54:01:663
0.107742,0.136474,9.763853,0.133105,-0.009648,9.805742,2.44E-4,0.002137,0.673599,-31.92,-9.84,-2.22,107.38,0.0359,-0.7822,55.81407,37.500324,210.7,NaN,,12.883,,0 / 1,,1560,2021-05-02 18:54:01:673
0.107742,0.136474,9.763853,0.133105,-0.009648,9.805742,2.44E-4,0.002137,0.673599,-31.92,-9.84,-2.22,107.38,0.0359,-0.7822,55.81407,37.500324,210.7,NaN,,12.883,,0 / 1,,1571,2021-05-02 18:54:01:684
0.208302,0.146051,9.742304,0.132405,-0.011298,9.805749,0.002077,0.003969,0.629617,-31.8,-9.72,-2.34,107.3733,0.0564,-0.7777,55.81407,37.500324,210.7,NaN,,12.883,,0 / 1,,1581,2021-05-02 18:54:01:694
0.232245,0.105348,9.73991,0.132405,-0.011298,9.805749,0.002077,0.003969,0.629617,-31.8,-9.72,-2.34,107.3733,0.0564,-0.7777,55.81407,37.500324,210.7,NaN,,12.883,,0 / 1,,1590,2021-05-02 18:54:01:703
0.232245,0.107742,9.718362,0.144966,0.012763,9.805571,-0.001588,-0.008859,0.619232,-32.28,-8.76,-2.46,107.3733,0.0564,-0.7777,55.81407,37.500324,210.7,NaN,,12.883,,0 / 1,,1601,2021-05-02 18:54:01:714
0.150839,0.064645,9.761458,0.144966,0.012763,9.805571,-0.00281,0.007635,0.615567,-32.28,-8.76,-2.46,107.3733,0.0564,-0.7777,55.81407,37.500324,210.7,NaN,,12.883,,0 / 1,,1613,2021-05-02 18:54:01:726
0.150839,0.064645,9.761458,0.156767,0.03149,9.805346,-0.00281,0.007635,0.615567,-32.34,-8.64,-2.64,105.7235,-0.0746,-0.847,55.81407,37.500324,210.7,NaN,,12.883,,0 / 1,,1620,2021-05-02 18:54:01:733
0.239427,0.045491,9.732727,0.156767,0.03149,9.805346,2.44E-4,0.003359,0.600296,-32.34,-8.64,-2.64,105.7235,-0.0746,-0.847,55.81407,37.500324,210.7,NaN,,12.883,,0 / 1,,1631,2021-05-02 18:54:01:744
0.239427,0.045491,9.732727,0.156767,0.03149,9.805346,-3.67E-4,0.005191,0.562422,-32.34,-8.64,-2.64,105.7235,-0.0746,-0.847,55.81407,37.500324,210.7,NaN,,12.883,,0 / 1,,1641,2021-05-02 18:54:01:754
0.232245,0.004789,9.751882,0.165598,0.043176,9.805157,8.55E-4,0.007024,0.541042,-32.7,-8.04,-3.06,105.7235,-0.0746,-0.847,55.81407,37.500324,210.7,NaN,,12.883,,0 / 1,,1650,2021-05-02 18:54:01:763
0.217879,0.028731,9.783007,0.165598,0.043176,9.805157,2.44E-4,0.00458,0.540431,-32.7,-8.04,-3.06,105.7235,-0.0746,-0.847,55.81407,37.500324,210.7,NaN,,12.883,,0 / 1,,1660,2021-05-02 18:54:01:773
0.177176,0.045491,9.761458,0.169935,0.045121,9.805074,-0.002199,-3.07E-4,0.558757,-32.94,-7.38,-3.12,101.9695,-0.2523,-0.9676,55.81407,37.500324,210.7,NaN,,12.883,,0 / 1,,1670,2021-05-02 18:54:01:783
0.177176,0.045491,9.761458,0.17015,0.043095,9.805079,2.44E-4,0.003359,0.589911,-31.62,-7.14,-3.06,101.9695,-0.2523,-0.9676,55.81407,37.500324,210.7,NaN,,12.883,,0 / 1,,1680,2021-05-02 18:54:01:793
0.186753,0.079011,9.778218,0.17015,0.043095,9.805079,-0.00281,0.003359,0.613124,-31.62,-7.14,-3.06,101.9695,-0.2523,-0.9676,55.81407,37.500324,210.7,NaN,,12.883,,0 / 1,,1690,2021-05-02 18:54:01:803
0.160416,0.093377,9.75667,0.170122,0.040619,9.80509,-0.004032,0.007635,0.616789,-31.74,-6.48,-3.18,100.611,-0.2518,-0.9942,55.81407,37.500324,210.7,NaN,,12.883,,0 / 1,,1700,2021-05-02 18:54:01:813
0.21309,0.098165,9.778218,0.170122,0.040619,9.80509,-0.004032,0.009467,0.607626,-31.74,-6.48,-3.18,100.611,-0.2518,-0.9942,55.81407,37.500324,210.7,NaN,,12.883,,0 / 1,,1710,2021-05-02 18:54:01:823
0.179571,0.071828,9.77343,0.169528,0.037934,9.805112,-0.00281,0.002748,0.5893,-32.4,-6.3,-2.88,100.611,-0.2518,-0.9942,55.81407,37.500324,210.7,NaN,,12.883,,0 / 1,,1720,2021-05-02 18:54:01:833
0.179571,0.071828,9.77343,0.169528,0.037934,9.805112,-0.00281,0.007024,0.585635,-32.4,-6.3,-2.88,100.611,-0.2518,-0.9942,55.81407,37.500324,210.7,NaN,,12.883,,0 / 1,,1730,2021-05-02 18:54:01:843
0.227456,0.023943,9.783007,0.169484,0.03565,9.80512,-0.00281,0.007024,0.585635,-32.52,-6.42,-2.22,100.3001,-0.2216,-0.9905,55.81407,37.500324,210.7,NaN,,12.883,,0 / 1,,1740,2021-05-02 18:54:01:853
0.155628,0.047885,9.751882,0.169484,0.03565,9.80512,-0.001588,0.002748,0.593576,-32.52,-6.42,-2.22,100.3001,-0.2216,-0.9905,55.81407,37.500324,210.7,NaN,,12.883,,0 / 1,,1751,2021-05-02 18:54:01:864
0.174782,0.047885,9.766247,0.168486,0.033282,9.805146,-0.002199,0.009467,0.605793,-32.52,-6.12,-2.16,100.3001,-0.2216,-0.9905,55.81407,37.500324,210.7,NaN,,12.883,,0 / 1,,1762,2021-05-02 18:54:01:875
0.174782,0.047885,9.766247,0.168486,0.033282,9.805146,-0.002199,0.009467,0.605793,-32.52,-6.12,-2.16,100.3001,-0.2216,-0.9905,55.81407,37.500324,210.7,NaN,,12.883,,0 / 1,,1770,2021-05-02 18:54:01:883
0.205908,0.071828,9.751882,0.170871,0.034414,9.8051,-9.77E-4,3.04E-4,0.633893,-32.46,-5.82,-1.98,100.6173,-0.1945,-0.9844,55.81407,37.500324,210.7,NaN,,12.883,,0 / 1,,1781,2021-05-02 18:54:01:894
0.150839,0.035914,9.761458,0.170871,0.034414,9.8051,-0.004032,0.009467,0.651608,-32.46,-5.82,-1.98,100.6173,-0.1945,-0.9844,55.81407,37.500324,210.7,NaN,,12.883,,0 / 1,,1791,2021-05-02 18:54:01:904
0.10056,0.05028,9.761458,0.171815,0.038297,9.80507,-0.004643,0.002748,0.665047,-32.4,-6.18,-1.86,100.6173,-0.1945,-0.9844,55.81407,37.500324,210.7,NaN,,12.883,,0 / 1,,1800,2021-05-02 18:54:01:913
0.124502,0.079011,9.864412,0.171447,0.03706,9.805081,-0.004643,0.006413,0.672988,-32.76,-6.06,-1.92,100.6173,-0.1945,-0.9844,55.81407,37.500324,210.7,NaN,,12.883,,0 / 1,,1810,2021-05-02 18:54:01:923
0.124502,0.079011,9.864412,0.171447,0.03706,9.805081,-3.67E-4,0.002748,0.644889,-32.76,-6.06,-1.92,100.6173,-0.1945,-0.9844,55.81407,37.500324,210.7,NaN,,12.883,,0 / 1,,1820,2021-05-02 18:54:01:933
0.047885,0.028731,9.725544,0.171815,0.035488,9.80508,-0.002199,-0.00947,0.64611,-32.7,-5.46,-1.8,98.6093,-0.2165,-1.0017,55.81407,37.500324,210.7,NaN,,12.883,,0 / 1,,1831,2021-05-02 18:54:01:944
0.169994,0.040703,9.751882,0.171815,0.035488,9.80508,8.55E-4,-0.014357,0.65283,-32.7,-5.46,-1.8,98.6093,-0.2165,-1.0017,55.81407,37.500324,210.7,NaN,,12.883,,0 / 1,,1841,2021-05-02 18:54:01:954
0.227456,0.052674,9.711179,0.175392,0.03326,9.805025,8.55E-4,-0.010691,0.660771,-32.7,-5.22,-1.62,98.6093,-0.2165,-1.0017,55.81407,37.500324,210.7,NaN,,12.883,,0 / 1,,1850,2021-05-02 18:54:01:963
0.227456,0.052674,9.711179,0.175392,0.03326,9.805025,-9.77E-4,-0.008248,0.669934,-32.7,-5.22,-1.62,98.6093,-0.2165,-1.0017,55.81407,37.500324,210.7,NaN,,12.883,,0 / 1,,1860,2021-05-02 18:54:01:973
0.308861,0.047885,9.751882,0.17814,0.031583,9.804981,0.001466,-0.014967,0.668712,-32.94,-5.58,-1.5,100.3028,-0.1943,-1.0248,55.81407,37.500324,210.7,NaN,,12.883,,0 / 1,,1871,2021-05-02 18:54:01:984
0.375901,0.06704,9.878778,0.18308,0.032643,9.804887,-0.002199,0.008245,0.618621,-32.88,-5.58,-1.68,100.3028,-0.1943,-1.0248,55.81407,37.500324,210.7,NaN,,12.883,,0 / 1,,1882,2021-05-02 18:54:01:995
0.292102,0.040703,9.478934,0.18308,0.032643,9.804887,-0.002199,0.008245,0.618621,-32.88,-5.58,-1.68,100.3028,-0.1943,-1.0248,55.81407,37.500324,210.7,NaN,,12.883,,0 / 1,,1890,2021-05-02 18:54:02:003
0.292102,0.040703,9.478934,0.187326,0.032895,9.804806,2.44E-4,-0.028406,0.578915,-32.52,-4.92,-1.8,100.3028,-0.1943,-1.0248,55.81407,37.500324,210.7,NaN,,12.883,,0 / 1,,1900,2021-05-02 18:54:02:013
0.445335,0.138868,9.857229,0.187326,0.032895,9.804806,0.009407,-0.018633,0.491561,-32.52,-4.92,-1.8,100.3028,-0.1943,-1.0248,55.81407,37.500324,210.7,NaN,,12.883,,0 / 1,,1911,2021-05-02 18:54:02:024
0.474066,0.040703,9.696813,0.178783,0.02971,9.804976,0.002688,-0.01008,0.459186,-32.94,-4.26,-1.98,96.9053,-0.1922,-1.0945,55.81407,37.500324,210.7,NaN,,12.883,,0 / 1,,1920,2021-05-02 18:54:02:033
0.440547,0.038308,9.689631,0.178783,0.02971,9.804976,-0.002199,0.03268,0.45491,-32.94,-4.26,-1.98,96.9053,-0.1922,-1.0945,55.81407,37.500324,210.7,NaN,,12.883,,0 / 1,,1930,2021-05-02 18:54:02:043
0.440547,0.038308,9.689631,0.179004,0.027579,9.804977,0.00452,-0.003972,0.492783,-34.08,-4.68,-2.04,96.9053,-0.1922,-1.0945,55.81407,37.500324,210.7,NaN,,12.883,,0 / 1,,1941,2021-05-02 18:54:02:054
0.201119,0.023943,9.926663,0.179004,0.027579,9.804977,-0.001588,0.002748,0.544707,-34.08,-4.68,-2.04,96.9053,-0.1922,-1.0945,55.81407,37.500324,210.7,NaN,,12.883,,0 / 1,,1951,2021-05-02 18:54:02:064
0.150839,0.03352,9.735122,0.181543,0.026312,9.804935,-0.001588,-0.002139,0.572807,-34.5,-4.26,-2.22,96.7058,-0.1611,-1.0459,55.81407,37.500324,210.7,NaN,,12.883,,0 / 1,,1960,2021-05-02 18:54:02:073
0.184359,0.110137,9.488511,0.181543,0.026312,9.804935,0.007575,-0.031461,0.567309,-34.5,-4.26,-2.22,96.7058,-0.1611,-1.0459,55.81407,37.500324,210.7,NaN,,12.883,,0 / 1,,1971,2021-05-02 18:54:02:084
0.028731,0.071828,9.730332,0.181978,0.023836,9.804933,0.002077,-0.004583,0.570363,-34.44,-3.42,-1.86,96.7058,-0.1611,-1.0459,55.81407,37.500324,210.7,NaN,,12.883,,0 / 1,,1980,2021-05-02 18:54:02:093
0.028731,0.071828,9.730332,0.181978,0.023836,9.804933,0.002077,-0.004583,0.570363,-34.44,-3.42,-1.86,96.7058,-0.1611,-1.0459,55.81407,37.500324,210.7,NaN,,12.883,,0 / 1,,1990,2021-05-02 18:54:02:103
0.10056,0.019154,9.792584,0.181978,0.023836,9.804933,-0.005253,0.009467,0.5612,-34.32,-3.72,-1.86,96.7076,-0.1393,-1.0633,55.81407,37.500324,210.7,NaN,,12.883,,0 / 1,,2000,2021-05-02 18:54:02:113
0.143657,0.035914,9.842864,0.18148,0.021357,9.804948,-0.00281,-0.010691,0.540431,-34.32,-3.72,-1.86,96.7076,-0.1393,-1.0633,55.81407,37.500324,210.7,NaN,,12.883,,0 / 1,,2012,2021-05-02 18:54:02:125
0.143657,0.035914,9.842864,0.179562,0.02022,9.804985,0.002688,-0.005194,0.532489,-34.08,-3.12,-1.68,96.7076,-0.1393,-1.0633,55.81407,37.500324,210.7,NaN,,12.883,,0 / 1,,2020,2021-05-02 18:54:02:133
0.201119,-0.007183,9.70639,0.179562,0.02022,9.804985,-0.002199,0.003969,0.556924,-34.08,-3.12,-1.68,96.7076,-0.1393,-1.0633,55.81407,37.500324,210.7,NaN,,12.883,,0 / 1,,2030,2021-05-02 18:54:02:143
0.0838,-0.040703,9.823709,0.179257,0.017848,9.804996,0.001466,0.025961,0.589911,-33.78,-2.46,-1.98,93.3616,-0.1181,-1.0492,55.81407,37.500324,210.7,NaN,,12.883,,0 / 1,,2040,2021-05-02 18:54:02:153
0.071828,-0.06704,9.79019,0.179257,0.017848,9.804996,-3.67E-4,0.001526,0.646721,-33.78,-2.46,-1.98,93.3616,-0.1181,-1.0492,55.81407,37.500324,210.7,NaN,,12.883,,0 / 1,,2050,2021-05-02 18:54:02:163
0.138868,0.007183,9.744699,0.176729,0.01576,9.805045,-0.00281,0.005802,0.666269,-33.36,-2.94,-2.58,93.3616,-0.1181,-1.0492,55.81407,37.500324,210.7,NaN,,12.883,,0 / 1,,2060,2021-05-02 18:54:02:173
0.138868,0.007183,9.744699,0.176729,0.01576,9.805045,-3.67E-4,0.005191,0.665047,-33.36,-2.94,-2.58,93.3616,-0.1181,-1.0492,55.81407,37.500324,210.7,NaN,,12.883,,0 / 1,,2070,2021-05-02 18:54:02:183
0.256187,0.098165,9.814133,0.175609,0.013044,9.805069,-9.77E-4,0.010689,0.623508,-34.14,-2.7,-2.46,95.0427,-0.0762,-1.0261,55.81407,37.500324,210.7,NaN,,12.883,,0 / 1,,2081,2021-05-02 18:54:02:194
0.26337,0.169994,9.814133,0.175609,0.013044,9.805069,-0.005864,-0.003361,0.558757,-34.14,-2.7,-2.46,95.0427,-0.0762,-1.0261,55.81407,37.500324,210.7,NaN,,12.883,,0 / 1,,2090,2021-05-02 18:54:02:203
0.119714,0.090982,9.720756,0.173847,0.010721,9.805103,-3.67E-4,0.007024,0.545318,-35.16,-2.1,-2.58,95.0427,-0.0762,-1.0261,55.81407,37.500324,210.7,NaN,,12.883,,0 / 1,,2100,2021-05-02 18:54:02:213
0.119714,0.090982,9.720756,0.173847,0.010721,9.805103,-3.67E-4,0.007635,0.543485,-35.16,-2.1,-2.58,95.0427,-0.0762,-1.0261,55.81407,37.500324,210.7,NaN,,12.883,,0 / 1,,2110,2021-05-02 18:54:02:223
-0.019154,0.019154,9.780613,0.172908,0.008748,9.805121,-3.67E-4,0.007635,0.543485,-35.34,-1.68,-2.1,93.2696,-0.0626,-1.0158,55.81407,37.500324,210.7,NaN,,12.883,,0 / 1,,2120,2021-05-02 18:54:02:233
-0.162811,-0.055068,9.735122,0.172908,0.008748,9.805121,-0.004643,0.013132,0.579526,-35.34,-1.68,-2.1,93.2696,-0.0626,-1.0158,55.81407,37.500324,210.7,NaN,,12.883,,0 / 1,,2131,2021-05-02 18:54:02:244
-0.093377,-0.081405,9.814133,0.168096,0.006603,9.805207,-0.006475,0.010689,0.618621,-34.68,-2.22,-1.62,93.2696,-0.0626,-1.0158,55.81407,37.500324,210.7,NaN,,12.883,,0 / 1,,2140,2021-05-02 18:54:02:253
-0.052674,-0.081405,9.768641,0.168096,0.006603,9.805207,-0.003421,-0.008248,0.649165,-34.68,-2.22,-1.62,93.2696,-0.0626,-1.0158,55.81407,37.500324,210.7,NaN,,12.883,,0 / 1,,2150,2021-05-02 18:54:02:263
0.119714,-0.076617,9.720756,0.165341,0.004185,9.805256,-0.004032,-0.001528,0.713916,-33.78,-1.74,-1.8,93.3674,-0.0386,-0.9822,55.81407,37.500324,210.7,NaN,,12.883,,0 / 1,,2160,2021-05-02 18:54:02:273
0.119714,-0.076617,9.720756,0.165341,0.004185,9.805256,0.001466,-0.01008,0.731631,-33.78,-1.74,-1.8,93.3674,-0.0386,-0.9822,55.81407,37.500324,210.7,NaN,,12.883,,0 / 1,,2170,2021-05-02 18:54:02:283
0.141262,0.019154,9.675264,0.1626,0.002047,9.805302,-3.67E-4,0.009467,0.764618,-34.02,-0.72,-1.2,93.3674,-0.0386,-0.9822,55.81407,37.500324,210.7,NaN,,12.883,,0 / 1,,2180,2021-05-02 18:54:02:293
0.292102,0.076617,9.648928,0.1626,0.002047,9.805302,-0.002199,-0.003361,0.743849,-34.02,-0.72,-1.2,93.3674,-0.0386,-0.9822,55.81407,37.500324,210.7,NaN,,12.883,,0 / 1,,2190,2021-05-02 18:54:02:303
0.311256,0.090982,9.881172,0.162469,-6.44E-4,9.805305,0.002077,0.009467,0.67421,-34.62,-0.72,-1.8,91.6375,-0.012,-0.95,55.81407,37.500324,210.7,NaN,,12.883,,0 / 1,,2201,2021-05-02 18:54:02:314
0.351958,0.155628,9.835681,0.162469,-6.44E-4,9.805305,-0.001588,-0.040624,0.618011,-34.62,-0.72,-1.8,91.6375,-0.012,-0.95,55.81407,37.500324,210.7,NaN,,12.883,,0 / 1,,2210,2021-05-02 18:54:02:323
0.351958,0.155628,9.835681,0.162031,-0.00299,9.805311,-0.005253,0.009467,0.609458,-34.5,-0.9,-1.8,91.6375,-0.012,-0.95,55.81407,37.500324,210.7,NaN,,12.883,,0 / 1,,2220,2021-05-02 18:54:02:333
0.308861,0.05028,9.672871,0.162031,-0.00299,9.805311,0.001466,-0.019854,0.591132,-34.5,-0.9,-1.8,91.6375,-0.012,-0.95,55.81407,37.500324,210.7,NaN,,12.883,,0 / 1,,2230,2021-05-02 18:54:02:343
0.284919,0.03352,9.809344,0.164331,-0.004839,9.805272,-9.77E-4,-0.016189,0.616789,-34.62,-0.72,-1.62,91.6396,0.0175,-0.9467,55.81407,37.500324,210.7,NaN,,12.883,,0 / 1,,2240,2021-05-02 18:54:02:353
0.131685,-0.110137,9.895537,0.164331,-0.004839,9.805272,-0.004643,0.018019,0.692536,-34.62,-0.72,-1.62,91.6396,0.0175,-0.9467,55.81407,37.500324,210.7,NaN,,12.883,,0 / 1,,2250,2021-05-02 18:54:02:363
0.196331,-0.023943,9.751882,0.162987,-0.007216,9.805293,-0.003421,0.008856,0.72369,-34.5,-0.36,-2.1,91.6396,0.0175,-0.9467,55.81407,37.500324,210.7,NaN,,12.883,,0 / 1,,2261,2021-05-02 18:54:02:374
0.196331,-0.023943,9.751882,0.162987,-0.007216,9.805293,-0.003421,0.008856,0.72369,-34.5,-0.36,-2.1,91.6396,0.0175,-0.9467,55.81407,37.500324,210.7,NaN,,12.883,,0 / 1,,2270,2021-05-02 18:54:02:383
0.191542,0.043097,9.862018,0.161646,-0.009607,9.805313,0.001466,0.014354,0.698645,-34.62,-0.18,-1.26,90.0019,0.0422,-0.9523,55.81407,37.500324,210.7,NaN,,12.883,,0 / 1,,2281,2021-05-02 18:54:02:394
0.306467,0.088588,9.768641,0.161646,-0.009607,9.805313,0.001466,0.014354,0.698645,-34.62,-0.18,-1.26,90.0019,0.0422,-0.9523,55.81407,37.500324,210.7,NaN,,12.883,,0 / 1,,2290,2021-05-02 18:54:02:403
0.186753,0.074223,9.802161,0.15808,-0.012104,9.805368,-9.77E-4,0.005802,0.642445,-34.56,0.0,-1.68,90.0019,0.0422,-0.9523,55.81407,37.500324,210.7,NaN,,12.883,,0 / 1,,2301,2021-05-02 18:54:02:414
0.186753,0.074223,9.802161,0.15808,-0.012104,9.805368,-3.67E-4,0.01863,0.668102,-34.56,0.0,-1.68,90.0019,0.0422,-0.9523,55.81407,37.500324,210.7,NaN,,12.883,,0 / 1,,2310,2021-05-02 18:54:02:423
0.22985,0.011971,9.737515,0.158146,-0.014392,9.805365,-3.67E-4,0.01863,0.668102,-34.26,0.18,-1.74,90.0053,0.0707,-0.9236,55.81407,37.500324,210.7,NaN,,12.883,,0 / 1,,2320,2021-05-02 18:54:02:433
0.22985,0.011971,9.737515,0.158146,-0.014392,9.805365,-0.002199,0.003969,0.697423,-34.26,0.18,-1.74,90.0053,0.0707,-0.9236,55.81407,37.500324,210.7,NaN,,12.883,,0 / 1,,2330,2021-05-02 18:54:02:443
0.253793,0.01676,9.725544,0.158248,-0.015454,9.805361,-0.001588,0.002137,0.704143,-34.26,0.78,-1.32,90.0053,0.0707,-0.9236,55.81407,37.500324,210.7,NaN,,12.883,,0 / 1,,2340,2021-05-02 18:54:02:453
0.193936,0.059857,9.677659,0.156888,-0.017864,9.805379,-3.67E-4,0.00458,0.726745,-34.44,0.48,-0.9,90.0053,0.0707,-0.9236,55.81407,37.500324,210.7,NaN,,12.883,,0 / 1,,2350,2021-05-02 18:54:02:463
0.158022,0.035914,9.804555,0.157482,-0.019199,9.805367,-0.005253,0.017408,0.720636,-34.2,0.96,-0.6,88.3194,0.1122,-0.9201,55.81407,37.500324,210.7,NaN,,12.883,,0 / 1,,2360,2021-05-02 18:54:02:473
0.158022,0.035914,9.804555,0.157482,-0.019199,9.805367,-3.67E-4,0.006413,0.732853,-34.2,0.96,-0.6,88.3194,0.1122,-0.9201,55.81407,37.500324,210.7,NaN,,12.883,,0 / 1,,2370,2021-05-02 18:54:02:483
0.162811,0.021548,9.768641,0.157217,-0.021807,9.805366,-0.002199,0.003969,0.752401,-34.14,1.32,-1.2,88.3194,0.1122,-0.9201,55.81407,37.500324,210.7,NaN,,12.883,,0 / 1,,2380,2021-05-02 18:54:02:493
-0.028731,-0.055068,9.780613,0.157217,-0.021807,9.805366,0.002077,0.005191,0.767062,-34.14,1.32,-1.2,88.3194,0.1122,-0.9201,55.81407,37.500324,210.7,NaN,,12.883,,0 / 1,,2390,2021-05-02 18:54:02:503
-0.079011,-0.028731,9.792584,0.155603,-0.024345,9.805386,-0.003421,-0.00275,0.788442,-33.9,1.56,-1.68,86.6395,0.1274,-0.9186,55.81407,37.500324,210.7,NaN,,12.883,,0 / 1,,2400,2021-05-02 18:54:02:513
-0.179571,-0.057463,9.802161,0.155603,-0.024345,9.805386,0.002077,0.002748,0.818374,-33.9,1.56,-1.68,86.6395,0.1274,-0.9186,55.81407,37.500324,210.7,NaN,,12.883,,0 / 1,,2411,2021-05-02 18:54:02:524
-0.179571,-0.057463,9.802161,0.155853,-0.026513,9.805376,-0.001588,0.003969,0.870909,-33.6,2.22,-1.56,86.6395,0.1274,-0.9186,55.81407,37.500324,210.7,NaN,,12.883,,0 / 1,,2420,2021-05-02 18:54:02:533
-0.071828,-0.014366,9.840469,0.155853,-0.026513,9.805376,0.003299,-0.01008,0.877017,-33.6,2.22,-1.56,86.6395,0.1274,-0.9186,55.81407,37.500324,210.7,NaN,,12.883,,0 / 1,,2430,2021-05-02 18:54:02:543
0.098165,0.074223,9.804555,0.154599,-0.02979,9.805386,-9.77E-4,0.00458,0.863578,-34.02,3.0,-1.5,84.9616,0.1549,-0.9106,55.81407,37.500324,210.7,NaN,,12.883,,0 / 1,,2441,2021-05-02 18:54:02:554
0.239427,0.0838,9.727939,0.154599,-0.02979,9.805386,2.44E-4,0.002748,0.838533,-34.02,3.0,-1.5,84.9616,0.1549,-0.9106,55.81407,37.500324,210.7,NaN,,12.883,,0 / 1,,2450,2021-05-02 18:54:02:563
0.239427,0.0838,9.727939,0.154599,-0.02979,9.805386,2.44E-4,0.002748,0.838533,-34.02,3.0,-1.5,84.9616,0.1549,-0.9106,55.81407,37.500324,210.7,NaN,,12.883,,0 / 1,,2460,2021-05-02 18:54:02:573
0.268159,0.021548,9.809344,0.151334,-0.033107,9.805427,-0.002199,0.002748,0.818985,-35.1,3.36,-0.72,84.9616,0.1549,-0.9106,55.81407,37.500324,210.7,NaN,,12.883,,0 / 1,,2470,2021-05-02 18:54:02:583
0.299284,0.023943,9.804555,0.152844,-0.035311,9.805395,-0.004032,-0.02413,0.772559,-34.86,2.94,-1.38,85.1067,0.1934,-0.8842,55.81407,37.500324,210.7,NaN,,12.883,,0 / 1,,2481,2021-05-02 18:54:02:594
0.294496,0.117319,9.778218,0.152844,-0.035311,9.805395,-0.004032,-0.02413,0.772559,-34.86,2.94,-1.38,85.1067,0.1934,-0.8842,55.81407,37.500324,210.7,NaN,,12.883,,0 / 1,,2490,2021-05-02 18:54:02:603
0.294496,0.117319,9.778218,0.152844,-0.035311,9.805395,-0.001588,0.003969,0.740184,-34.86,2.94,-1.38,85.1067,0.1934,-0.8842,55.81407,37.500324,210.7,NaN,,12.883,,0 / 1,,2500,2021-05-02 18:54:02:613
0.332804,0.110137,9.737515,0.153914,-0.038236,9.805367,2.44E-4,0.005191,0.702921,-34.5,3.0,-1.26,85.1067,0.1934,-0.8842,55.81407,37.500324,210.7,NaN,,12.883,,0 / 1,,2510,2021-05-02 18:54:02:623
0.318439,0.059857,9.75667,0.153172,-0.040833,9.805368,-0.001588,0.002748,0.685817,-35.04,3.72,-0.42,83.4829,0.2234,-0.8993,55.81407,37.500324,210.7,NaN,,12.883,,0 / 1,,2520,2021-05-02 18:54:02:633
0.244216,-0.023943,9.768641,0.153172,-0.040833,9.805368,0.002077,-0.00275,0.678486,-35.04,3.72,-0.42,83.4829,0.2234,-0.8993,55.81407,37.500324,210.7,NaN,,12.883,,0 / 1,,2531,2021-05-02 18:54:02:644
0.244216,-0.023943,9.768641,0.15274,-0.04316,9.805366,-3.67E-4,-0.005194,0.702921,-34.68,3.96,-0.72,83.4829,0.2234,-0.8993,55.81407,37.500324,210.7,NaN,,12.883,,0 / 1,,2540,2021-05-02 18:54:02:653
0.117319,-0.035914,9.725544,0.15274,-0.04316,9.805366,-9.77E-4,-0.011302,0.735908,-34.68,3.96,-0.72,83.4829,0.2234,-0.8993,55.81407,37.500324,210.7,NaN,,12.883,,0 / 1,,2550,2021-05-02 18:54:02:663
0.057463,-0.040703,9.787795,0.153448,-0.045563,9.805344,0.001466,-0.006415,0.775003,-34.26,4.14,-1.5,83.2976,0.2522,-0.8924,55.81407,37.500324,210.7,NaN,,12.883,,0 / 1,,2560,2021-05-02 18:54:02:673
-0.011971,-0.043097,9.862018,0.153448,-0.045563,9.805344,-3.67E-4,0.028404,0.821429,-34.26,4.14,-1.5,83.2976,0.2522,-0.8924,55.81407,37.500324,210.7,NaN,,12.883,,0 / 1,,2570,2021-05-02 18:54:02:683
0.114925,0.014366,9.890749,0.150632,-0.04816,9.805375,0.00391,-0.033293,0.837922,-35.28,3.78,-2.22,83.2976,0.2522,-0.8924,55.81407,37.500324,210.7,NaN,,12.883,,0 / 1,,2581,2021-05-02 18:54:02:694
0.114925,0.014366,9.890749,0.150632,-0.04816,9.805375,-3.67E-4,0.016187,0.848918,-35.28,3.78,-2.22,83.2976,0.2522,-0.8924,55.81407,37.500324,210.7,NaN,,12.883,,0 / 1,,2590,2021-05-02 18:54:02:703
0.167599,0.004789,9.70639,0.151478,-0.050279,9.80535,-0.006475,0.017408,0.856859,-35.7,3.78,-1.44,83.6685,0.2814,-0.8801,55.81407,37.500324,210.7,NaN,,12.883,,0 / 1,,2600,2021-05-02 18:54:02:713
0.304073,0.019154,9.862018,0.151478,-0.050279,9.80535,-0.003421,0.008245,0.835479,-35.7,3.78,-1.44,83.6685,0.2814,-0.8801,55.81407,37.500324,210.7,NaN,,12.883,,0 / 1,,2610,2021-05-02 18:54:02:723
0.399844,0.011971,9.703996,0.149134,-0.05303,9.805372,-3.67E-4,0.016798,0.819596,-34.86,4.44,-1.02,83.6685,0.2814,-0.8801,55.81407,37.500324,210.7,NaN,,12.883,,0 / 1,,2620,2021-05-02 18:54:02:733
0.399844,0.011971,9.703996,0.149134,-0.05303,9.805372,-3.67E-4,0.016798,0.819596,-34.86,4.44,-1.02,83.6685,0.2814,-0.8801,55.81407,37.500324,210.7,NaN,,12.883,,0 / 1,,2630,2021-05-02 18:54:02:743
0.325621,-0.007183,9.696813,0.145345,-0.055248,9.805417,-3.67E-4,3.04E-4,0.796994,-35.22,4.8,-1.62,81.8841,0.3098,-0.8714,55.81407,37.500324,210.7,NaN,,12.883,,0 / 1,,2640,2021-05-02 18:54:02:753
0.34717,0.026337,9.680053,0.145345,-0.055248,9.805417,-0.003421,0.025961,0.777446,-35.22,4.8,-1.62,81.8841,0.3098,-0.8714,55.81407,37.500324,210.7,NaN,,12.883,,0 / 1,,2650,2021-05-02 18:54:02:763
0.34717,0.026337,9.680053,0.145345,-0.055248,9.805417,-0.00281,0.008856,0.754844,-35.22,4.8,-1.62,81.8841,0.3098,-0.8714,55.81407,37.500324,210.7,NaN,,12.883,,0 / 1,,2660,2021-05-02 18:54:02:773
0.378295,0.028731,9.826104,0.143566,-0.057392,9.805431,-9.77E-4,0.010689,0.729799,-35.22,5.28,-1.08,81.8841,0.3098,-0.8714,55.81407,37.500324,210.7,NaN,,12.883,,0 / 1,,2670,2021-05-02 18:54:02:783
0.232245,0.028731,9.658504,0.142266,-0.059354,9.805438,-0.00281,-0.003361,0.722469,-34.62,5.88,-0.78,80.2817,0.3353,-0.8388,55.81407,37.500324,210.7,NaN,,12.883,,0 / 1,,2680,2021-05-02 18:54:02:793
0.03352,-0.117319,9.658504,0.142266,-0.059354,9.805438,0.001466,0.025961,0.740794,-34.62,5.88,-0.78,80.2817,0.3353,-0.8388,55.81407,37.500324,210.7,NaN,,12.883,,0 / 1,,2690,2021-05-02 18:54:02:803
-0.090982,-0.045491,9.804555,0.14102,-0.061378,9.805445,-0.004643,-0.042456,0.78722,-34.8,6.12,-1.08,80.2817,0.3353,-0.8388,55.81407,37.500324,210.7,NaN,,12.883,,0 / 1,,2700,2021-05-02 18:54:02:813
-0.090982,-0.045491,9.804555,0.14102,-0.061378,9.805445,-0.003421,0.002748,0.81532,-34.8,6.12,-1.08,80.2817,0.3353,-0.8388,55.81407,37.500324,210.7,NaN,,12.883,,0 / 1,,2710,2021-05-02 18:54:02:823
0.045491,0.009577,9.783007,0.139976,-0.063324,9.805447,-0.004032,-0.036348,0.800659,-35.22,6.3,-1.2,80.2827,0.3586,-0.824,55.81407,37.500324,210.7,NaN,,12.883,,0 / 1,,2720,2021-05-02 18:54:02:833
0.222668,0.102954,9.684841,0.139976,-0.063324,9.805447,-0.002199,-0.003972,0.754234,-35.22,6.3,-1.2,80.2827,0.3586,-0.824,55.81407,37.500324,210.7,NaN,,12.883,,0 / 1,,2730,2021-05-02 18:54:02:843
0.253793,0.107742,9.694419,0.139198,-0.065373,9.805445,0.002077,-0.013746,0.698645,-34.98,6.54,-1.14,80.2827,0.3586,-0.824,55.81407,37.500324,210.7,NaN,,12.883,,0 / 1,,2740,2021-05-02 18:54:02:853
0.31365,0.122108,9.737515,0.139198,-0.065373,9.805445,-0.00281,-0.018022,0.650386,-34.98,6.54,-1.14,80.2827,0.3586,-0.824,55.81407,37.500324,210.7,NaN,,12.883,,0 / 1,,2750,2021-05-02 18:54:02:863
0.31365,0.122108,9.737515,0.141492,-0.067129,9.805399,-0.001588,0.010078,0.607015,-36.06,6.72,-0.9,79.0068,0.3819,-0.8133,55.81407,37.500324,210.7,NaN,,12.883,,0 / 1,,2760,2021-05-02 18:54:02:873
0.361536,0.03352,9.780613,0.141492,-0.067129,9.805399,-3.67E-4,0.016798,0.599685,-36.06,6.72,-0.9,79.0068,0.3819,-0.8133,55.81407,37.500324,210.7,NaN,,12.883,,0 / 1,,2770,2021-05-02 18:54:02:883
0.284919,-0.055068,9.780613,0.138209,-0.068808,9.805435,-0.00281,-3.07E-4,0.644278,-36.48,6.48,-0.96,79.0068,0.3819,-0.8133,55.81407,37.500324,210.7,NaN,,12.883,,0 / 1,,2780,2021-05-02 18:54:02:893
0.189148,-0.150839,9.761458,0.138209,-0.068808,9.805435,0.003299,0.0113,0.733464,-36.48,6.48,-0.96,79.0068,0.3819,-0.8133,55.81407,37.500324,210.7,NaN,,12.883,,0 / 1,,2791,2021-05-02 18:54:02:904
0.114925,-0.184359,9.873989,0.136882,-0.070275,9.805443,-3.67E-4,0.013132,0.820207,-35.52,6.9,-1.02,79.0077,0.402,-0.8075,55.81407,37.500324,210.7,NaN,,12.883,,0 / 1,,2801,2021-05-02 18:54:02:914
0.114925,-0.184359,9.873989,0.136882,-0.070275,9.805443,-3.67E-4,0.013132,0.820207,-35.52,6.9,-1.02,79.0077,0.402,-0.8075,55.81407,37.500324,210.7,NaN,,12.883,,0 / 1,,2810,2021-05-02 18:54:02:923
0.10056,-0.074223,9.797373,0.136673,-0.072858,9.805427,-0.004032,0.008245,0.873352,-35.76,6.9,-1.02,79.0077,0.402,-0.8075,55.81407,37.500324,210.7,NaN,,12.883,,0 / 1,,2821,2021-05-02 18:54:02:934
0.114925,0.01676,9.656111,0.136673,-0.072858,9.805427,-0.004032,0.018019,0.881294,-35.76,6.9,-1.02,79.0077,0.402,-0.8075,55.81407,37.500324,210.7,NaN,,12.883,,0 / 1,,2830,2021-05-02 18:54:02:943
0.186753,0.088588,9.692024,0.133709,-0.075863,9.805446,-0.002199,0.029626,0.833646,-36.24,6.9,-1.02,79.0087,0.4257,-0.7986,55.81407,37.500324,210.7,NaN,,12.883,,0 / 1,,2840,2021-05-02 18:54:02:953
0.186753,0.088588,9.692024,0.133709,-0.075863,9.805446,-0.004032,0.016798,0.795772,-36.24,6.9,-1.02,79.0087,0.4257,-0.7986,55.81407,37.500324,210.7,NaN,,12.883,,0 / 1,,2850,2021-05-02 18:54:02:963
0.059857,0.081405,9.883567,0.128449,-0.078614,9.805494,-0.002199,0.006413,0.711473,-35.64,7.5,-1.5,79.0087,0.4257,-0.7986,55.81407,37.500324,210.7,NaN,,12.883,,0 / 1,,2861,2021-05-02 18:54:02:974
0.052674,0.076617,9.814133,0.128449,-0.078614,9.805494,-0.003421,0.0113,0.66688,-35.64,7.5,-1.5,79.0087,0.4257,-0.7986,55.81407,37.500324,210.7,NaN,,12.883,,0 / 1,,2870,2021-05-02 18:54:02:983
0.031126,0.03352,9.785401,0.126414,-0.080325,9.805507,0.001466,-0.006415,0.660771,-35.1,7.44,-1.2,78.7038,0.4593,-0.7505,55.81407,37.500324,210.7,NaN,,12.883,,0 / 1,,2880,2021-05-02 18:54:02:993
0.031126,0.03352,9.785401,0.126414,-0.080325,9.805507,0.002688,-0.013746,0.682762,-35.1,7.44,-1.2,78.7038,0.4593,-0.7505,55.81407,37.500324,210.7,NaN,,12.883,,0 / 1,,2890,2021-05-02 18:54:03:003
-0.057463,-0.0838,9.811738,0.125774,-0.081778,9.805503,-0.004032,9.15E-4,0.748736,-35.58,8.1,-1.26,78.7038,0.4593,-0.7505,55.81407,37.500324,210.7,NaN,,12.883,,0 / 1,,2900,2021-05-02 18:54:03:013
-0.093377,-0.165205,9.754275,0.125774,-0.081778,9.805503,-0.004032,9.15E-4,0.748736,-35.58,8.1,-1.26,78.7038,0.4593,-0.7505,55.81407,37.500324,210.7,NaN,,12.883,,0 / 1,,2910,2021-05-02 18:54:03:023
-0.06704,-0.165205,9.759064,0.125075,-0.08374,9.805494,-9.77E-4,0.002137,0.848918,-35.04,8.76,-1.98,75.5998,0.4778,-0.7349,55.81407,37.500324,210.7,NaN,,12.883,,0 / 1,,2920,2021-05-02 18:54:03:033
-0.007183,-0.110137,9.878778,0.125075,-0.08374,9.805494,8.55E-4,0.003969,0.928941,-35.04,8.76,-1.98,75.5998,0.4778,-0.7349,55.81407,37.500324,210.7,NaN,,12.883,,0 / 1,,2930,2021-05-02 18:54:03:043
-0.007183,-0.110137,9.878778,0.124343,-0.086,9.805485,-0.00281,0.008245,0.966815,-34.62,8.82,-1.56,75.5998,0.4778,-0.7349,55.81407,37.500324,210.7,NaN,,12.883,,0 / 1,,2940,2021-05-02 18:54:03:053
0.040703,-0.052674,9.687236,0.124343,-0.086,9.805485,-9.77E-4,3.04E-4,0.986362,-34.8,8.58,-1.08,75.5998,0.4778,-0.7349,55.81407,37.500324,210.7,NaN,,12.883,,0 / 1,,2950,2021-05-02 18:54:03:063
0.146051,-0.014366,9.763853,0.121091,-0.088816,9.8055,-3.67E-4,0.005191,0.982697,-34.8,8.58,-1.08,75.5998,0.4778,-0.7349,55.81407,37.500324,210.7,NaN,,12.883,,0 / 1,,2960,2021-05-02 18:54:03:073
0.21309,0.023943,9.73991,0.121091,-0.088816,9.8055,-0.00281,0.009467,0.95643,-35.58,8.76,-0.6,75.9783,0.5189,-0.7075,55.81407,37.500324,210.7,NaN,,12.883,,0 / 1,,2970,2021-05-02 18:54:03:083
0.21309,0.023943,9.73991,0.121091,-0.088816,9.8055,-0.00281,0.009467,0.95643,-35.58,8.76,-0.6,75.9783,0.5189,-0.7075,55.81407,37.500324,210.7,NaN,,12.883,,0 / 1,,2980,2021-05-02 18:54:03:093
0.332804,0.047885,9.818921,0.11826,-0.091429,9.805511,-0.003421,0.006413,0.930163,-35.94,8.22,0.18,75.9783,0.5189,-0.7075,55.81407,37.500324,210.7,NaN,,12.883,,0 / 1,,2990,2021-05-02 18:54:03:103
0.407027,0.009577,9.828498,0.114718,-0.093808,9.805531,-0.004032,0.005802,0.895954,-36.24,9.36,0.36,75.9783,0.5189,-0.7075,55.81407,37.500324,210.7,NaN,,12.883,,0 / 1,,3000,2021-05-02 18:54:03:113
0.416604,-0.007183,9.713573,0.114718,-0.093808,9.805531,8.55E-4,0.00458,0.873352,-36.24,9.36,0.36,75.9783,0.5189,-0.7075,55.81407,37.500324,210.7,NaN,,12.883,,0 / 1,,3011,2021-05-02 18:54:03:124
0.275342,-0.086194,9.737515,0.111405,-0.095804,9.80555,-0.004032,0.00458,0.860524,-36.18,9.9,-0.9,74.4908,0.5481,-0.6703,55.81407,37.500324,210.7,NaN,,12.883,,0 / 1,,3020,2021-05-02 18:54:03:133
0.275342,-0.086194,9.737515,0.111405,-0.095804,9.80555,-9.77E-4,0.002748,0.855637,-36.18,9.9,-0.9,74.4908,0.5481,-0.6703,55.81407,37.500324,210.7,NaN,,12.883,,0 / 1,,3030,2021-05-02 18:54:03:143
0.009577,-0.165205,9.783007,0.111405,-0.095804,9.80555,-9.77E-4,0.002748,0.855637,-36.18,9.9,-0.9,74.4908,0.5481,-0.6703,55.81407,37.500324,210.7,NaN,,12.883,,0 / 1,,3040,2021-05-02 18:54:03:153
0.009577,-0.165205,9.783007,0.111405,-0.095804,9.80555,-9.77E-4,0.002748,0.855637,-36.18,9.9,-0.9,74.4908,0.5481,-0.6703,55.81407,37.500324,210.7,NaN,,12.883,,0 / 1,,3050,2021-05-02 18:54:03:163
0.009577,-0.165205,9.783007,0.111405,-0.095804,9.80555,-9.77E-4,0.002748,0.855637,-36.18,9.9,-0.9,74.4908,0.5481,-0.6703,55.81407,37.500324,210.7,NaN,,12.883,,0 / 1,,3060,2021-05-02 18:54:03:173
0.014366,-0.172388,9.771035,0.109002,-0.097583,9.805559,-0.003421,-0.001528,0.883737,-35.94,10.26,-1.62,74.5011,0.5597,-0.6509,55.81407,37.500324,210.7,NaN,,12.883,,0 / 1,,3070,2021-05-02 18:54:03:183
0.222668,-0.110137,9.703996,0.101151,-0.102642,9.805592,0.001466,0.008245,0.993082,-35.82,10.62,-0.42,74.5011,0.5597,-0.6509,55.81407,37.500324,210.7,NaN,,12.883,,0 / 1,,3080,2021-05-02 18:54:03:193
0.38069,-0.064645,9.787795,0.101151,-0.102642,9.805592,0.001466,0.016187,0.999801,-35.82,10.62,-0.42,74.5011,0.5597,-0.6509,55.81407,37.500324,210.7,NaN,,12.883,,0 / 1,,3090,2021-05-02 18:54:03:203
0.38069,-0.064645,9.787795,0.097466,-0.105196,9.805601,-0.00281,0.003969,1.001634,-35.7,10.38,-0.72,74.5011,0.5597,-0.6509,55.81407,37.500324,210.7,NaN,,12.883,,0 / 1,,3100,2021-05-02 18:54:03:213
0.320833,-0.031126,9.749487,0.097466,-0.105196,9.805601,-0.00281,3.04E-4,0.979643,-35.7,10.38,-0.72,74.5011,0.5597,-0.6509,55.81407,37.500324,210.7,NaN,,12.883,,0 / 1,,3111,2021-05-02 18:54:03:224
0.215485,-0.01676,9.75667,0.094533,-0.107373,9.805607,-0.001588,3.04E-4,0.964371,-36.0,11.46,-0.9,73.0261,0.6146,-0.5695,55.81407,37.500324,210.7,NaN,,12.883,,0 / 1,,3120,2021-05-02 18:54:03:233
-0.028731,-0.009577,9.749487,0.094533,-0.107373,9.805607,-0.005253,0.011911,0.931995,-36.0,11.46,-0.9,73.0261,0.6146,-0.5695,55.81407,37.500324,210.7,NaN,,12.883,,0 / 1,,3130,2021-05-02 18:54:03:243
-0.028731,-0.009577,9.749487,0.091182,-0.109442,9.805615,0.001466,9.15E-4,0.911226,-36.18,11.64,-1.2,73.0261,0.6146,-0.5695,55.81407,37.500324,210.7,NaN,,12.883,,0 / 1,,3140,2021-05-02 18:54:03:253
-0.208302,-0.040703,9.761458,0.091182,-0.109442,9.805615,-3.67E-4,0.010078,0.90695,-36.18,11.64,-1.2,73.0261,0.6146,-0.5695,55.81407,37.500324,210.7,NaN,,12.883,,0 / 1,,3150,2021-05-02 18:54:03:263
-0.299284,-0.06704,9.751882,0.088364,-0.111309,9.80562,-0.003421,0.005802,0.944823,-35.94,11.28,-0.84,73.027,0.6394,-0.5328,55.81407,37.500324,210.7,NaN,,12.883,,0 / 1,,3160,2021-05-02 18:54:03:273
-0.088588,-0.074223,9.871595,0.088364,-0.111309,9.80562,-0.00281,0.003969,0.986973,-35.94,11.28,-0.84,73.027,0.6394,-0.5328,55.81407,37.500324,210.7,NaN,,12.883,,0 / 1,,3170,2021-05-02 18:54:03:283
0.110137,-0.110137,9.804555,0.085057,-0.113474,9.805625,-0.001588,0.006413,1.01263,-35.58,12.06,-0.66,73.027,0.6394,-0.5328,55.81407,37.500324,210.7,NaN,,12.883,,0 / 1,,3180,2021-05-02 18:54:03:293
0.110137,-0.110137,9.804555,0.085057,-0.113474,9.805625,-0.004643,0.003969,1.072494,-35.58,12.06,-0.66,73.027,0.6394,-0.5328,55.81407,37.500324,210.7,NaN,,12.883,,0 / 1,,3190,2021-05-02 18:54:03:303
0.29689,-0.134079,9.701602,0.081816,-0.115298,9.805631,-0.00281,-0.002139,1.117087,-35.88,12.48,-0.36,71.5707,0.663,-0.497,55.81407,37.500324,210.7,NaN,,12.883,,0 / 1,,3201,2021-05-02 18:54:03:314
0.325621,-0.141262,9.785401,0.081816,-0.115298,9.805631,-0.00281,-0.002139,1.117087,-35.88,12.48,-0.36,71.5707,0.663,-0.497,55.81407,37.500324,210.7,NaN,,12.883,,0 / 1,,3211,2021-05-02 18:54:03:324
0.308861,-0.136474,9.725544,0.078308,-0.117473,9.805634,-0.00281,3.04E-4,1.145798,-35.76,11.76,-0.48,71.5707,0.663,-0.497,55.81407,37.500324,210.7,NaN,,12.883,,0 / 1,,3220,2021-05-02 18:54:03:333
0.323227,0.026337,9.792584,0.075632,-0.118203,9.805646,-0.004032,0.006413,1.160459,-35.64,11.58,-0.9,71.5707,0.663,-0.497,55.81407,37.500324,210.7,NaN,,12.883,,0 / 1,,3231,2021-05-02 18:54:03:344
0.323227,0.026337,9.792584,0.075632,-0.118203,9.805646,2.44E-4,0.02535,1.115866,-35.64,11.58,-0.9,71.5707,0.663,-0.497,55.81407,37.500324,210.7,NaN,,12.883,,0 / 1,,3240,2021-05-02 18:54:03:353
0.411815,0.055068,9.754275,0.071608,-0.12046,9.805649,-0.002199,-0.006415,1.049892,-35.4,12.48,-1.2,71.0947,0.6906,-0.4419,55.81407,37.500324,210.7,NaN,,12.883,,0 / 1,,3250,2021-05-02 18:54:03:363
0.464489,0.045491,9.768641,0.071608,-0.12046,9.805649,-0.003421,0.028404,0.985141,-35.4,12.48,-1.2,71.0947,0.6906,-0.4419,55.81407,37.500324,210.7,NaN,,12.883,,0 / 1,,3260,2021-05-02 18:54:03:373
0.464489,0.045491,9.768641,0.068746,-0.121972,9.805651,-0.004032,-0.013135,0.898398,-35.1,13.86,-0.78,71.0947,0.6906,-0.4419,55.81407,37.500324,210.7,NaN,,12.883,,0 / 1,,3270,2021-05-02 18:54:03:383
0.328016,-0.035914,9.768641,0.067796,-0.122821,9.805647,-0.00281,0.0113,0.8648,-34.8,13.86,-0.3,71.0947,0.6906,-0.4419,55.81407,37.500324,210.7,NaN,,12.883,,0 / 1,,3281,2021-05-02 18:54:03:394
0.294496,-0.071828,9.768641,0.067796,-0.122821,9.805647,-0.002199,0.003359,0.864189,-34.8,13.86,-0.3,71.0947,0.6906,-0.4419,55.81407,37.500324,210.7,NaN,,12.883,,0 / 1,,3290,2021-05-02 18:54:03:403
0.339987,-0.026337,9.797373,0.064587,-0.124091,9.805653,-0.002199,0.007024,0.858081,-36.0,14.28,-0.48,68.7549,0.7176,-0.3961,55.81407,37.500324,210.7,NaN,,12.883,,0 / 1,,3301,2021-05-02 18:54:03:414
0.339987,-0.026337,9.797373,0.064587,-0.124091,9.805653,8.55E-4,0.023517,0.854415,-36.0,14.28,-0.48,68.7549,0.7176,-0.3961,55.81407,37.500324,210.7,NaN,,12.883,,0 / 1,,3310,2021-05-02 18:54:03:423
0.462095,0.019154,9.72315,0.064587,-0.124091,9.805653,-0.004032,3.04E-4,0.833035,-36.0,14.28,-0.48,68.7549,0.7176,-0.3961,55.81407,37.500324,210.7,NaN,,12.883,,0 / 1,,3320,2021-05-02 18:54:03:433
0.404632,-0.040703,9.768641,0.061031,-0.124857,9.805665,-0.004643,0.014354,0.810433,-36.54,14.22,-0.66,68.7549,0.7176,-0.3961,55.81407,37.500324,210.7,NaN,,12.883,,0 / 1,,3331,2021-05-02 18:54:03:444
0.404632,-0.040703,9.768641,0.056159,-0.126122,9.805678,-0.00281,0.007635,0.801881,-36.3,14.64,-0.72,67.3993,0.7369,-0.3281,55.81407,37.500324,210.7,NaN,,12.883,,0 / 1,,3341,2021-05-02 18:54:03:454
0.469278,0.0,9.735122,0.056159,-0.126122,9.805678,-0.004032,0.003969,0.764007,-36.3,14.64,-0.72,67.3993,0.7369,-0.3281,55.81407,37.500324,210.7,NaN,,12.883,,0 / 1,,3350,2021-05-02 18:54:03:463
0.474066,0.05028,9.857229,0.057314,-0.127562,9.805653,-0.001588,0.006413,0.682151,-36.54,15.0,-1.02,67.3993,0.7369,-0.3281,55.81407,37.500324,210.7,NaN,,12.883,,0 / 2,,3360,2021-05-02 18:54:03:473
0.509981,0.081405,9.80695,0.057314,-0.127562,9.805653,0.002688,0.001526,0.613735,-36.54,15.0,-1.02,67.3993,0.7369,-0.3281,55.81407,37.500324,210.7,NaN,,12.883,,0 / 2,,3370,2021-05-02 18:54:03:483
0.509981,0.081405,9.80695,0.057314,-0.127562,9.805653,0.002688,0.001526,0.613735,-36.54,15.0,-1.02,67.3993,0.7369,-0.3281,55.81407,37.500324,210.7,NaN,,12.883,,0 / 2,,3380,2021-05-02 18:54:03:493
0.445335,0.110137,9.660899,0.056301,-0.127996,9.805653,-0.001588,0.002137,0.540431,-36.18,14.82,-0.48,67.3852,0.7478,-0.329,55.81407,37.500324,210.7,NaN,,12.883,,0 / 2,,3390,2021-05-02 18:54:03:503
0.471672,0.038308,9.749487,0.055392,-0.128438,9.805653,-0.003421,9.15E-4,0.465905,-35.58,15.42,-0.78,67.3852,0.7478,-0.329,55.81407,37.500324,210.7,NaN,,12.883,,0 / 2,,3400,2021-05-02 18:54:03:513
-0.316044,-0.148445,9.847652,0.055392,-0.128438,9.805653,-0.001588,0.007635,0.42009,-35.58,15.42,-0.78,67.3852,0.7478,-0.329,55.81407,37.500324,210.7,NaN,,12.883,,0 / 2,,3410,2021-05-02 18:54:03:523
-0.316044,-0.148445,9.847652,0.054252,-0.129419,9.805646,-0.003421,-0.002139,0.484231,-35.46,15.42,-1.32,66.8212,0.7504,-0.3237,55.81407,37.500324,210.7,NaN,,12.883,,0 / 2,,3420,2021-05-02 18:54:03:533
-0.679974,-0.249005,9.730332,0.054252,-0.129419,9.805646,-9.77E-4,-0.001528,0.611291,-35.46,15.42,-1.32,66.8212,0.7504,-0.3237,55.81407,37.500324,210.7,NaN,,12.883,,0 / 2,,3430,2021-05-02 18:54:03:543
-0.72786,-0.284919,9.60583,0.054252,-0.129419,9.805646,-0.004032,-0.00947,0.715138,-35.46,15.06,-1.38,66.8212,0.7504,-0.3237,55.81407,37.500324,210.7,NaN,,12.883,,0 / 2,,3440,2021-05-02 18:54:03:553
-0.529135,-0.179571,9.711179,0.050771,-0.129833,9.805659,-0.003421,0.003359,0.82204,-35.46,15.06,-1.38,66.8212,0.7504,-0.3237,55.81407,37.500324,210.7,NaN,,12.883,,0 / 2,,3450,2021-05-02 18:54:03:563
-0.117319,0.002394,9.847652,0.049172,-0.131238,9.805648,8.55E-4,-0.016189,0.861746,-35.34,15.54,-1.32,65.4524,0.7586,-0.2967,55.81407,37.500324,210.7,NaN,,12.883,,0 / 2,,3460,2021-05-02 18:54:03:573
-0.117319,0.131685,9.883567,0.049172,-0.131238,9.805648,0.001466,-0.017411,0.814098,-35.34,15.54,-1.32,65.4524,0.7586,-0.2967,55.81407,37.500324,210.7,NaN,,12.883,,0 / 2,,3470,2021-05-02 18:54:03:583
0.284919,0.131685,9.883567,0.049172,-0.131238,9.805648,0.001466,-0.017411,0.814098,-35.34,15.54,-1.32,65.4524,0.7586,-0.2967,55.81407,37.500324,210.7,NaN,,12.883,,0 / 2,,3480,2021-05-02 18:54:03:593
0.41421,0.093377,9.72315,0.04984,-0.132025,9.805634,-0.00281,0.011911,0.775614,-36.06,15.9,-0.96,65.4524,0.7586,-0.2967,55.81407,37.500324,210.7,NaN,,12.883,,0 / 2,,3490,2021-05-02 18:54:03:603
0.591386,0.035914,9.792584,0.045772,-0.133076,9.80564,-0.004032,0.002137,0.651608,-36.24,16.02,-0.42,66.0424,0.7714,-0.2912,55.81407,37.500324,210.7,NaN,,12.883,,0 / 2,,3500,2021-05-02 18:54:03:613
0.591386,0.035914,9.792584,0.045772,-0.133076,9.80564,-9.77E-4,-0.005804,0.58258,-36.24,16.02,-0.42,66.0424,0.7714,-0.2912,55.81407,37.500324,210.7,NaN,,12.883,,0 / 2,,3511,2021-05-02 18:54:03:624
0.407027,0.05028,9.775824,0.04505,-0.133748,9.805634,-3.67E-4,0.007635,0.545929,-35.76,16.08,-0.12,66.0424,0.7714,-0.2912,55.81407,37.500324,210.7,NaN,,12.883,,0 / 2,,3521,2021-05-02 18:54:03:634
0.189148,-0.059857,9.783007,0.04505,-0.133748,9.805634,8.55E-4,-0.003972,0.526992,-35.76,16.08,-0.12,66.0424,0.7714,-0.2912,55.81407,37.500324,210.7,NaN,,12.883,,0 / 2,,3530,2021-05-02 18:54:03:643
0.189148,-0.059857,9.783007,0.044608,-0.134026,9.805633,-9.77E-4,0.007024,0.545318,-36.0,16.26,-0.66,66.0577,0.7815,-0.2632,55.81407,37.500324,210.7,NaN,,12.883,,0 / 2,,3540,2021-05-02 18:54:03:653
0.179571,-0.105348,9.771035,0.044608,-0.134026,9.805633,-0.001588,-0.003361,0.548983,-36.0,16.26,-0.66,66.0577,0.7815,-0.2632,55.81407,37.500324,210.7,NaN,,12.883,,0 / 2,,3552,2021-05-02 18:54:03:665
0.253793,-0.040703,9.842864,0.043106,-0.134553,9.805633,-0.001588,0.02535,0.556313,-35.76,15.84,-0.6,66.0577,0.7815,-0.2632,55.81407,37.500324,210.7,NaN,,12.883,,0 / 2,,3560,2021-05-02 18:54:03:673
0.292102,-0.021548,9.689631,0.043106,-0.134553,9.805633,-3.67E-4,0.001526,0.550204,-35.76,15.84,-0.6,66.0577,0.7815,-0.2632,55.81407,37.500324,210.7,NaN,,12.883,,0 / 2,,3570,2021-05-02 18:54:03:683
0.383084,0.026337,9.775824,0.03971,-0.134814,9.805643,-0.003421,0.002748,0.514163,-36.0,16.02,-0.6,66.0578,0.7862,-0.2519,55.81407,37.500324,210.7,NaN,,12.883,,0 / 2,,3580,2021-05-02 18:54:03:693
0.383084,0.026337,9.775824,0.03971,-0.134814,9.805643,-0.003421,0.002748,0.514163,-36.0,16.02,-0.6,66.0578,0.7862,-0.2519,55.81407,37.500324,210.7,NaN,,12.883,,0 / 2,,3590,2021-05-02 18:54:03:703
0.344776,0.0,9.797373,0.039342,-0.135054,9.805641,-0.00281,-0.008859,0.457353,-36.06,17.4,-1.08,66.0578,0.7862,-0.2519,55.81407,37.500324,210.7,NaN,,12.883,,0 / 2,,3601,2021-05-02 18:54:03:714
0.308861,-0.023943,9.850046,0.039342,-0.135054,9.805641,-0.00281,-0.008859,0.457353,-36.06,17.4,-1.08,66.0578,0.7862,-0.2519,55.81407,37.500324,210.7,NaN,,12.883,,0 / 2,,3610,2021-05-02 18:54:03:723
0.234639,-0.01676,9.751882,0.039841,-0.135268,9.805636,-9.77E-4,-3.07E-4,0.454299,-35.46,17.4,-1.44,64.1137,0.7903,-0.2328,55.81407,37.500324,210.7,NaN,,12.883,,0 / 2,,3620,2021-05-02 18:54:03:733
0.086194,-0.031126,9.754275,0.039841,-0.135268,9.805636,-0.004032,-9.18E-4,0.438416,-35.46,17.4,-1.44,64.1137,0.7903,-0.2328,55.81407,37.500324,210.7,NaN,,12.883,,0 / 2,,3631,2021-05-02 18:54:03:744
0.086194,-0.031126,9.754275,0.038966,-0.135765,9.805634,-0.004032,-9.18E-4,0.438416,-36.18,17.4,-0.84,64.1137,0.7903,-0.2328,55.81407,37.500324,210.7,NaN,,12.883,,0 / 2,,3640,2021-05-02 18:54:03:753
-0.126897,-0.064645,9.708784,0.038966,-0.135765,9.805634,-0.004643,0.001526,0.446357,-36.18,17.4,-0.84,64.1137,0.7903,-0.2328,55.81407,37.500324,210.7,NaN,,12.883,,0 / 2,,3650,2021-05-02 18:54:03:763
-0.165205,-0.107742,9.802161,0.036906,-0.136201,9.805634,-0.002199,0.001526,0.476901,-35.94,17.52,-0.54,63.4546,0.7932,-0.2277,55.81407,37.500324,210.7,NaN,,12.883,,0 / 2,,3660,2021-05-02 18:54:03:773
-0.081405,-0.093377,9.878778,0.036906,-0.136201,9.805634,-0.003421,0.002748,0.530046,-35.94,17.52,-0.54,63.4546,0.7932,-0.2277,55.81407,37.500324,210.7,NaN,,12.883,,0 / 2,,3671,2021-05-02 18:54:03:784
-0.081405,-0.093377,9.878778,0.036906,-0.136201,9.805634,-0.001588,0.006413,0.557535,-35.94,17.52,-0.54,63.4546,0.7932,-0.2277,55.81407,37.500324,210.7,NaN,,12.883,,0 / 2,,3680,2021-05-02 18:54:03:793
-0.0838,-0.076617,9.835681,0.035533,-0.13738,9.805624,-0.001588,0.001526,0.576472,-35.04,16.86,-0.54,63.4546,0.7932,-0.2277,55.81407,37.500324,210.7,NaN,,12.883,,0 / 2,,3690,2021-05-02 18:54:03:803
-0.014366,-0.06704,9.766247,0.03353,-0.137691,9.805626,-0.003421,-3.07E-4,0.599685,-35.1,16.5,-0.72,64.1141,0.8027,-0.2076,55.81407,37.500324,210.7,NaN,,12.883,,0 / 2,,3700,2021-05-02 18:54:03:813
0.119714,-0.06704,9.732727,0.03353,-0.137691,9.805626,0.001466,0.003359,0.618621,-35.1,16.5,-0.72,64.1141,0.8027,-0.2076,55.81407,37.500324,210.7,NaN,,12.883,,0 / 2,,3710,2021-05-02 18:54:03:823
0.21309,-0.007183,9.754275,0.030403,-0.137696,9.805636,8.55E-4,0.007024,0.621676,-35.34,17.04,-1.08,64.1141,0.8027,-0.2076,55.81407,37.500324,210.7,NaN,,12.883,,0 / 2,,3720,2021-05-02 18:54:03:833
0.21309,-0.007183,9.754275,0.030403,-0.137696,9.805636,-0.004032,-9.18E-4,0.6174,-35.34,17.04,-1.08,64.1141,0.8027,-0.2076,55.81407,37.500324,210.7,NaN,,12.883,,0 / 2,,3730,2021-05-02 18:54:03:843
0.019154,-0.093377,9.80695,0.027728,-0.138563,9.805632,-0.00281,0.007635,0.636337,-36.3,18.36,-0.96,63.455,0.8045,-0.1777,55.81407,37.500324,210.7,NaN,,12.883,,0 / 2,,3740,2021-05-02 18:54:03:853
0.031126,-0.090982,9.826104,0.027728,-0.138563,9.805632,-0.001588,0.010078,0.653441,-36.3,18.36,-0.96,63.455,0.8045,-0.1777,55.81407,37.500324,210.7,NaN,,12.883,,0 / 2,,3750,2021-05-02 18:54:03:863
0.03352,-0.093377,9.890749,0.02442,-0.138886,9.805636,-0.005253,0.00458,0.671156,-36.72,18.54,-1.26,63.455,0.8045,-0.1777,55.81407,37.500324,210.7,NaN,,12.883,,0 / 2,,3760,2021-05-02 18:54:03:873
-0.047885,-0.134079,9.668081,0.02442,-0.138886,9.805636,-9.77E-4,0.019852,0.713916,-36.72,18.54,-1.26,63.455,0.8045,-0.1777,55.81407,37.500324,210.7,NaN,,12.883,,0 / 2,,3770,2021-05-02 18:54:03:883
-0.047885,-0.134079,9.668081,0.019614,-0.139678,9.805635,-0.001588,0.003359,0.74446,-36.24,18.24,-0.84,63.4552,0.8115,-0.1427,55.81407,37.500324,210.7,NaN,,12.883,,0 / 2,,3781,2021-05-02 18:54:03:894
0.071828,-0.107742,9.792584,0.019614,-0.139678,9.805635,-3.67E-4,-0.01008,0.764007,-36.24,18.24,-0.84,63.4552,0.8115,-0.1427,55.81407,37.500324,210.7,NaN,,12.883,,0 / 2,,3790,2021-05-02 18:54:03:903
0.409421,-0.028731,9.70639,0.017668,-0.140026,9.805634,-9.77E-4,0.001526,0.746292,-35.52,18.48,-0.96,63.4552,0.8115,-0.1427,55.81407,37.500324,210.7,NaN,,12.883,,0 / 2,,3800,2021-05-02 18:54:03:913
0.409421,-0.028731,9.70639,0.017668,-0.140026,9.805634,2.44E-4,0.002137,0.729188,-35.52,18.48,-0.96,63.4552,0.8115,-0.1427,55.81407,37.500324,210.7,NaN,,12.883,,0 / 2,,3810,2021-05-02 18:54:03:923
0.407027,-0.064645,9.792584,0.014895,-0.139791,9.805642,8.55E-4,-0.001528,0.724912,-35.34,18.78,-1.02,61.5247,0.8181,-0.1032,55.81407,37.500324,210.7,NaN,,12.883,,0 / 2,,3820,2021-05-02 18:54:03:933
0.122108,-0.153234,9.73991,0.014895,-0.139791,9.805642,8.55E-4,-0.001528,0.724912,-35.34,18.78,-1.02,61.5247,0.8181,-0.1032,55.81407,37.500324,210.7,NaN,,12.883,,0 / 2,,3830,2021-05-02 18:54:03:943
0.205908,0.021548,9.775824,0.012547,-0.140545,9.805634,2.44E-4,0.012522,0.746292,-35.52,18.72,-0.66,61.5247,0.8181,-0.1032,55.81407,37.500324,210.7,NaN,,12.883,,0 / 2,,3840,2021-05-02 18:54:03:953
0.205908,0.021548,9.775824,0.012547,-0.140545,9.805634,0.00391,0.015576,0.725523,-35.52,18.72,-0.66,61.5247,0.8181,-0.1032,55.81407,37.500324,210.7,NaN,,12.883,,0 / 2,,3850,2021-05-02 18:54:03:963
0.22985,0.01676,9.778218,0.009289,-0.141255,9.805629,2.44E-4,0.010689,0.690093,-35.34,19.2,-1.02,61.5249,0.8212,-0.0733,55.81407,37.500324,210.7,NaN,,12.883,,0 / 2,,3860,2021-05-02 18:54:03:973
0.172388,-0.043097,9.749487,0.009289,-0.141255,9.805629,-0.00281,0.008245,0.679097,-35.34,19.2,-1.02,61.5249,0.8212,-0.0733,55.81407,37.500324,210.7,NaN,,12.883,,0 / 2,,3870,2021-05-02 18:54:03:983
0.237033,-0.064645,9.687236,0.0069,-0.141327,9.80563,-0.00281,0.005802,0.680319,-35.34,19.26,-0.72,61.5249,0.8212,-0.0733,55.81407,37.500324,210.7,NaN,,12.883,,0 / 2,,3880,2021-05-02 18:54:03:993
0.28013,-0.055068,9.823709,0.0069,-0.141327,9.80563,-0.001588,-0.003361,0.673599,-35.34,19.26,-0.72,61.5249,0.8212,-0.0733,55.81407,37.500324,210.7,NaN,,12.883,,0 / 2,,3890,2021-05-02 18:54:04:003
0.28013,-0.055068,9.823709,0.004592,-0.141844,9.805623,2.44E-4,0.005191,0.669934,-35.1,18.84,-0.84,61.525,0.8257,-0.0403,55.81407,37.500324,210.7,NaN,,12.883,,0 / 2,,3900,2021-05-02 18:54:04:013
0.320833,-0.031126,9.931452,0.004592,-0.141844,9.805623,-0.002199,0.007635,0.654052,-35.1,18.84,-0.84,61.525,0.8257,-0.0403,55.81407,37.500324,210.7,NaN,,12.883,,0 / 2,,3910,2021-05-02 18:54:04:023
0.186753,-0.055068,9.608225,0.001828,-0.142136,9.80562,-0.004643,0.007635,0.644278,-35.22,19.2,-1.32,61.525,0.8257,-0.0403,55.81407,37.500324,210.7,NaN,,12.883,,0 / 2,,3920,2021-05-02 18:54:04:033
0.069434,-0.055068,9.785401,0.001828,-0.142136,9.80562,-0.005253,0.013132,0.629006,-35.22,19.2,-1.32,61.525,0.8257,-0.0403,55.81407,37.500324,210.7,NaN,,12.883,,0 / 2,,3930,2021-05-02 18:54:04:043
-0.146051,-0.114925,9.948212,-8.29E-4,-0.143282,9.805603,-0.005253,0.00458,0.63145,-35.28,19.32,-1.62,61.5434,0.8305,-0.0107,55.81407,37.500324,210.7,NaN,,12.883,,0 / 2,,3940,2021-05-02 18:54:04:053
-0.146051,-0.114925,9.948212,-8.29E-4,-0.143282,9.805603,2.44E-4,-3.07E-4,0.669934,-35.28,19.32,-1.62,61.5434,0.8305,-0.0107,55.81407,37.500324,210.7,NaN,,12.883,,0 / 2,,3950,2021-05-02 18:54:04:063
-0.146051,-0.098165,9.948212,-0.002904,-0.14361,9.805598,0.002077,-0.006415,0.707808,-35.16,19.62,-1.74,61.5434,0.8305,-0.0107,55.81407,37.500324,210.7,NaN,,12.883,,0 / 2,,3961,2021-05-02 18:54:04:074
0.009577,-0.06704,9.601042,-0.002904,-0.14361,9.805598,8.55E-4,-0.007637,0.712695,-35.16,19.62,-1.74,61.5434,0.8305,-0.0107,55.81407,37.500324,210.7,NaN,,12.883,,0 / 2,,3971,2021-05-02 18:54:04:084
0.071828,-0.0838,9.62259,-0.002904,-0.14361,9.805598,8.55E-4,-0.007637,0.712695,-35.34,21.12,-1.14,59.0566,0.8391,0.017,55.81407,37.500324,210.7,NaN,,12.883,,0 / 2,,3980,2021-05-02 18:54:04:093
0.071828,-0.0838,9.62259,-0.003544,-0.143175,9.805604,-0.00281,-0.004583,0.723079,-35.34,21.12,-1.14,59.0566,0.8391,0.017,55.81407,37.500324,210.7,NaN,,12.883,,0 / 2,,3990,2021-05-02 18:54:04:103
0.167599,-0.071828,10.060742,-0.004597,-0.143406,9.8056,0.00452,0.005191,0.732853,-34.68,21.9,-0.96,59.0566,0.8391,0.017,55.81407,37.500324,210.7,NaN,,12.883,,0 / 2,,4000,2021-05-02 18:54:04:113
0.184359,-0.026337,9.826104,-0.004597,-0.143406,9.8056,-0.002199,0.013743,0.754234,-34.68,21.9,-0.96,59.0566,0.8391,0.017,55.81407,37.500324,210.7,NaN,,12.883,,0 / 2,,4010,2021-05-02 18:54:04:123
0.143657,-0.093377,9.634562,-0.009229,-0.143303,9.805598,2.44E-4,9.15E-4,0.769505,-35.1,21.66,-0.84,57.8677,0.8379,0.0269,55.81407,37.500324,210.7,NaN,,12.883,,0 / 2,,4021,2021-05-02 18:54:04:134
0.179571,-0.069434,9.830893,-0.009229,-0.143303,9.805598,-9.77E-4,0.0113,0.771949,-35.1,21.66,-0.84,57.8677,0.8379,0.0269,55.81407,37.500324,210.7,NaN,,12.883,,0 / 2,,4032,2021-05-02 18:54:04:145
0.179571,-0.069434,9.830893,-0.011772,-0.142949,9.805601,-9.77E-4,0.0113,0.771949,-35.34,21.36,-0.12,57.8677,0.8379,0.0269,55.81407,37.500324,210.7,NaN,,12.883,,0 / 2,,4040,2021-05-02 18:54:04:153
0.119714,-0.043097,9.73991,-0.011772,-0.142949,9.805601,0.001466,0.013743,0.760953,-35.34,21.36,-0.12,57.8677,0.8379,0.0269,55.81407,37.500324,210.7,NaN,,12.883,,0 / 2,,4050,2021-05-02 18:54:04:163
0.102954,-0.021548,9.715967,-0.015112,-0.143634,9.805587,-0.003421,0.008856,0.73774,-34.62,21.12,-0.18,59.0382,0.8352,0.0688,55.81407,37.500324,210.7,NaN,,12.883,,0 / 2,,4060,2021-05-02 18:54:04:173
-0.062251,-0.076617,9.917087,-0.015112,-0.143634,9.805587,-0.006475,0.00458,0.727966,-34.62,21.12,-0.18,59.0382,0.8352,0.0688,55.81407,37.500324,210.7,NaN,,12.883,,0 / 2,,4070,2021-05-02 18:54:04:183
-0.150839,-0.134079,9.859624,-0.018245,-0.143526,9.805583,8.55E-4,0.010689,0.743849,-33.84,21.18,-0.66,59.0382,0.8352,0.0688,55.81407,37.500324,210.7,NaN,,12.883,,0 / 2,,4081,2021-05-02 18:54:04:194
-0.150839,-0.134079,9.859624,-0.018245,-0.143526,9.805583,0.001466,-3.07E-4,0.796383,-33.84,21.18,-0.66,59.0382,0.8352,0.0688,55.81407,37.500324,210.7,NaN,,12.883,,0 / 2,,4090,2021-05-02 18:54:04:203
-0.155628,-0.167599,9.648928,-0.020837,-0.143646,9.805575,-0.003421,-0.008248,0.855637,-33.66,21.48,-0.72,58.3194,0.8386,0.1066,55.81407,37.500324,210.7,NaN,,12.883,,0 / 2,,4100,2021-05-02 18:54:04:213
-0.007183,-0.138868,9.689631,-0.020837,-0.143646,9.805575,-0.005253,0.007635,0.910004,-33.66,21.48,-0.72,58.3194,0.8386,0.1066,55.81407,37.500324,210.7,NaN,,12.883,,0 / 2,,4110,2021-05-02 18:54:04:223
0.112531,-0.126897,9.852441,-0.022635,-0.14359,9.805573,-0.004032,0.008856,0.922221,-33.9,22.56,-0.84,58.3194,0.8386,0.1066,55.81407,37.500324,210.7,NaN,,12.883,,0 / 2,,4121,2021-05-02 18:54:04:234
0.112531,-0.126897,9.852441,-0.022635,-0.14359,9.805573,-3.67E-4,0.010078,0.923443,-33.9,22.56,-0.84,58.3194,0.8386,0.1066,55.81407,37.500324,210.7,NaN,,12.883,,0 / 2,,4130,2021-05-02 18:54:04:243
0.225062,-0.031126,9.854836,-0.026668,-0.143429,9.805565,-0.002199,0.003969,0.883737,-34.08,23.04,-1.08,55.943,0.839,0.1323,55.81407,37.500324,210.7,NaN,,12.883,,0 / 2,,4140,2021-05-02 18:54:04:253
0.205908,-0.014366,9.658504,-0.026668,-0.143429,9.805565,-0.002199,0.003969,0.883737,-34.08,23.04,-1.08,55.943,0.839,0.1323,55.81407,37.500324,210.7,NaN,,12.883,,0 / 2,,4151,2021-05-02 18:54:04:264
0.217879,-0.064645,9.847652,-0.028278,-0.14294,9.805568,-0.00281,0.001526,0.829981,-33.72,22.74,-1.32,55.943,0.839,0.1323,55.81407,37.500324,210.7,NaN,,12.883,,0 / 2,,4160,2021-05-02 18:54:04:273
0.217879,-0.064645,9.847652,-0.030759,-0.142634,9.805565,-0.001588,0.001526,0.802492,-34.14,22.74,-0.72,55.943,0.839,0.1323,55.81407,37.500324,210.7,NaN,,12.883,,0 / 2,,4171,2021-05-02 18:54:04:284
0.158022,-0.0838,9.866806,-0.030759,-0.142634,9.805565,2.44E-4,0.003359,0.804324,-34.14,22.74,-0.72,55.943,0.839,0.1323,55.81407,37.500324,210.7,NaN,,12.883,,0 / 2,,4180,2021-05-02 18:54:04:293
0.26337,-0.090982,9.775824,-0.033025,-0.142355,9.805561,-0.001588,0.003969,0.811655,-34.38,23.1,0.0,55.9237,0.8334,0.1797,55.81407,37.500324,210.7,NaN,,12.883,,0 / 2,,4190,2021-05-02 18:54:04:303
0.335198,-0.071828,9.751882,-0.033025,-0.142355,9.805561,0.002077,-0.00275,0.82937,-34.26,23.46,0.0,55.9237,0.8334,0.1797,55.81407,37.500324,210.7,NaN,,12.883,,0 / 2,,4200,2021-05-02 18:54:04:313
0.335198,-0.071828,9.751882,-0.034776,-0.141611,9.805567,0.002688,9.15E-4,0.82937,-34.26,23.46,0.0,55.9237,0.8334,0.1797,55.81407,37.500324,210.7,NaN,,12.883,,0 / 2,,4210,2021-05-02 18:54:04:323
0.41421,-0.019154,9.759064,-0.035739,-0.141235,9.805568,-3.67E-4,0.007024,0.816542,-34.62,23.22,-0.36,55.9237,0.8334,0.1797,55.81407,37.500324,210.7,NaN,,12.883,,0 / 2,,4220,2021-05-02 18:54:04:333
0.335198,-0.019154,9.701602,-0.035739,-0.141235,9.805568,-0.004643,0.015576,0.783555,-34.62,23.22,-0.36,55.9237,0.8334,0.1797,55.81407,37.500324,210.7,NaN,,12.883,,0 / 2,,4231,2021-05-02 18:54:04:344
0.308861,-0.047885,9.802161,-0.03997,-0.141135,9.805553,-0.003421,0.010689,0.753623,-34.74,23.34,-0.48,56.6898,0.8252,0.2088,55.81407,37.500324,210.7,NaN,,12.883,,0 / 2,,4240,2021-05-02 18:54:04:353
0.196331,-0.057463,9.883567,-0.041768,-0.14109,9.805547,-0.00281,0.007635,0.734686,-34.38,23.58,-0.6,56.6898,0.8252,0.2088,55.81407,37.500324,210.7,NaN,,12.883,,0 / 2,,4250,2021-05-02 18:54:04:363
0.196331,-0.057463,9.883567,-0.041768,-0.14109,9.805547,-0.00281,0.007635,0.734686,-34.38,23.58,-0.6,56.6898,0.8252,0.2088,55.81407,37.500324,210.7,NaN,,12.883,,0 / 2,,4260,2021-05-02 18:54:04:373
0.126897,-0.059857,9.854836,-0.04323,-0.140895,9.805543,8.55E-4,-9.18E-4,0.718192,-33.6,23.88,-0.24,56.6898,0.8252,0.2088,55.81407,37.500324,210.7,NaN,,12.883,,0 / 2,,4271,2021-05-02 18:54:04:384
0.062251,-0.098165,9.783007,-0.043694,-0.140367,9.805549,8.55E-4,-9.18E-4,0.718192,-33.6,23.88,-0.24,56.6898,0.8252,0.2088,55.81407,37.500324,210.7,NaN,,12.883,,0 / 2,,4280,2021-05-02 18:54:04:393
-0.028731,-0.117319,9.75667,-0.043694,-0.140367,9.805549,0.001466,9.15E-4,0.747514,-34.32,24.12,-1.32,54.8021,0.8201,0.2553,55.81407,37.500324,210.7,NaN,,12.883,,0 / 2,,4290,2021-05-02 18:54:04:403
0.028731,-0.141262,9.845258,-0.04577,-0.139691,9.805549,-0.003421,9.15E-4,0.784777,-34.56,24.66,-1.08,54.8021,0.8201,0.2553,55.81407,37.500324,210.7,NaN,,12.883,,0 / 2,,4300,2021-05-02 18:54:04:413
0.028731,-0.141262,9.845258,-0.04577,-0.139691,9.805549,-3.67E-4,0.003359,0.814098,-34.56,24.66,-1.08,54.8021,0.8201,0.2553,55.81407,37.500324,210.7,NaN,,12.883,,0 / 2,,4310,2021-05-02 18:54:04:423
0.098165,-0.117319,9.75667,-0.049115,-0.138839,9.805544,0.001466,0.005802,0.839144,-34.26,25.5,-1.14,54.8021,0.8201,0.2553,55.81407,37.500324,210.7,NaN,,12.883,,0 / 2,,4320,2021-05-02 18:54:04:433
0.210696,-0.105348,9.783007,-0.049115,-0.138839,9.805544,0.002077,0.005191,0.849528,-33.78,25.68,-0.72,52.6136,0.8112,0.287,55.81407,37.500324,210.7,NaN,,12.883,,0 / 2,,4330,2021-05-02 18:54:04:443
0.196331,-0.057463,9.859624,-0.050728,-0.1375,9.805554,0.001466,3.04E-4,0.858081,-33.78,25.68,-0.72,52.6136,0.8112,0.287,55.81407,37.500324,210.7,NaN,,12.883,,0 / 2,,4340,2021-05-02 18:54:04:453
0.196331,-0.057463,9.859624,-0.050728,-0.1375,9.805554,0.001466,3.04E-4,0.858081,-33.54,25.56,-0.72,52.6136,0.8112,0.287,55.81407,37.500324,210.7,NaN,,12.883,,0 / 2,,4350,2021-05-02 18:54:04:463
0.225062,-0.064645,9.77343,-0.052694,-0.136649,9.805556,-9.77E-4,0.002748,0.854415,-33.54,25.56,-0.72,52.6136,0.8112,0.287,55.81407,37.500324,210.7,NaN,,12.883,,0 / 2,,4360,2021-05-02 18:54:04:473
0.33041,-0.009577,9.759064,-0.054407,-0.136245,9.805552,2.44E-4,-0.005194,0.820207,-34.02,26.1,-0.9,52.6134,0.7984,0.3079,55.81407,37.500324,210.7,NaN,,12.883,,0 / 2,,4370,2021-05-02 18:54:04:483
0.361536,-0.002394,9.747093,-0.054407,-0.136245,9.805552,2.44E-4,0.00458,0.784166,-34.02,26.1,-0.9,52.6134,0.7984,0.3079,55.81407,37.500324,210.7,NaN,,12.883,,0 / 2,,4381,2021-05-02 18:54:04:494
0.292102,0.035914,9.766247,-0.055593,-0.135524,9.805556,-0.002199,0.00458,0.721858,-34.2,26.04,-1.92,52.6134,0.7984,0.3079,55.81407,37.500324,210.7,NaN,,12.883,,0 / 2,,4390,2021-05-02 18:54:04:503
0.292102,0.035914,9.766247,-0.055593,-0.135524,9.805556,-0.00281,-0.002139,0.654663,-34.2,26.04,-1.92,52.6134,0.7984,0.3079,55.81407,37.500324,210.7,NaN,,12.883,,0 / 2,,4400,2021-05-02 18:54:04:513
0.22985,-0.026337,9.79019,-0.057196,-0.134814,9.805557,2.44E-4,0.00458,0.630228,-33.6,25.92,-1.8,52.6326,0.7918,0.3248,55.81407,37.500324,210.7,NaN,,12.883,,0 / 2,,4410,2021-05-02 18:54:04:523
-0.06704,-0.117319,9.917087,-0.057196,-0.134814,9.805557,-3.67E-4,-0.00275,0.637558,-33.6,25.92,-1.8,52.6326,0.7918,0.3248,55.81407,37.500324,210.7,NaN,,12.883,,0 / 2,,4420,2021-05-02 18:54:04:533
-0.268159,-0.117319,9.888355,-0.059105,-0.134083,9.805555,0.001466,-0.007026,0.70964,-32.88,26.64,-1.8,52.6326,0.7918,0.3248,55.81407,37.500324,210.7,NaN,,12.883,,0 / 2,,4430,2021-05-02 18:54:04:543
-0.268159,-0.117319,9.888355,-0.059105,-0.134083,9.805555,-3.67E-4,0.007024,0.755455,-32.88,26.64,-1.8,52.6326,0.7918,0.3248,55.81407,37.500324,210.7,NaN,,12.883,,0 / 2,,4440,2021-05-02 18:54:04:553
-0.208302,-0.047885,9.75667,-0.06079,-0.132974,9.80556,-0.00281,0.006413,0.75851,-33.18,26.7,-1.32,50.7292,0.7834,0.3454,55.81407,37.500324,210.7,NaN,,12.883,,0 / 2,,4450,2021-05-02 18:54:04:563
0.011971,0.038308,9.799767,-0.06079,-0.132974,9.80556,-0.005864,0.007024,0.708419,-33.18,26.7,-1.32,50.7292,0.7834,0.3454,55.81407,37.500324,210.7,NaN,,12.883,,0 / 2,,4460,2021-05-02 18:54:04:573
0.172388,0.038308,9.809344,-0.064875,-0.132243,9.805544,-3.67E-4,-0.002139,0.647332,-32.82,26.94,-0.9,50.7292,0.7834,0.3454,55.81407,37.500324,210.7,NaN,,12.883,,0 / 2,,4470,2021-05-02 18:54:04:583
0.196331,-0.03352,9.80695,-0.064875,-0.132243,9.805544,-3.67E-4,-0.002139,0.647332,-32.82,26.94,-0.9,50.7292,0.7834,0.3454,55.81407,37.500324,210.7,NaN,,12.883,,0 / 2,,4480,2021-05-02 18:54:04:593
0.196331,-0.03352,9.80695,-0.067151,-0.1319,9.805533,2.44E-4,0.001526,0.627174,-32.04,27.36,-1.08,49.8629,0.7727,0.3791,55.81407,37.500324,210.7,NaN,,12.883,,0 / 2,,4490,2021-05-02 18:54:04:603
0.256187,-0.035914,9.80695,-0.067806,-0.131539,9.805533,2.44E-4,-9.18E-4,0.612513,-31.92,27.84,-0.72,49.8629,0.7727,0.3791,55.81407,37.500324,210.7,NaN,,12.883,,0 / 2,,4501,2021-05-02 18:54:04:614
0.253793,-0.06704,9.732727,-0.067806,-0.131539,9.805533,-3.67E-4,0.003969,0.611291,-31.92,27.84,-0.72,49.8629,0.7727,0.3791,55.81407,37.500324,210.7,NaN,,12.883,,0 / 2,,4510,2021-05-02 18:54:04:623
0.299284,-0.047885,9.771035,-0.069139,-0.130831,9.805533,-0.004032,0.003969,0.592965,-32.28,27.12,-1.14,49.8629,0.7727,0.3791,55.81407,37.500324,210.7,NaN,,12.883,,0 / 2,,4521,2021-05-02 18:54:04:634
0.299284,-0.047885,9.771035,-0.069139,-0.130831,9.805533,0.001466,3.04E-4,0.58258,-32.28,27.12,-1.14,49.8629,0.7727,0.3791,55.81407,37.500324,210.7,NaN,,12.883,,0 / 2,,4531,2021-05-02 18:54:04:644
0.21309,-0.059857,9.833286,-0.070088,-0.130268,9.805534,-0.002199,-9.18E-4,0.580137,-32.7,27.6,-1.8,49.7236,0.7644,0.404,55.81407,37.500324,210.7,NaN,,12.883,,0 / 2,,4540,2021-05-02 18:54:04:653
0.107742,-0.088588,9.763853,-0.070088,-0.130268,9.805534,0.001466,3.04E-4,0.596019,-32.7,27.6,-1.8,49.7236,0.7644,0.404,55.81407,37.500324,210.7,NaN,,12.883,,0 / 2,,4550,2021-05-02 18:54:04:663
0.107742,-0.088588,9.763853,-0.070939,-0.129058,9.805544,0.001466,3.04E-4,0.596019,-32.1,28.02,-2.16,49.7236,0.7644,0.404,55.81407,37.500324,210.7,NaN,,12.883,,0 / 2,,4560,2021-05-02 18:54:04:673
0.06704,-0.011971,9.713573,-0.070939,-0.129058,9.805544,-0.001588,0.008245,0.585635,-32.1,28.02,-2.16,49.7236,0.7644,0.404,55.81407,37.500324,210.7,NaN,,12.883,,0 / 2,,4570,2021-05-02 18:54:04:683
0.0838,0.002394,9.783007,-0.073278,-0.128102,9.805539,-0.001588,0.008245,0.585635,-32.46,27.42,-1.44,49.8627,0.7541,0.4145,55.81407,37.500324,210.7,NaN,,12.883,,0 / 2,,4580,2021-05-02 18:54:04:693
0.134079,-0.028731,9.845258,-0.073278,-0.128102,9.805539,-0.002199,0.001526,0.560589,-32.46,27.42,-1.44,49.8627,0.7541,0.4145,55.81407,37.500324,210.7,NaN,,12.883,,0 / 2,,4590,2021-05-02 18:54:04:703
0.10056,-0.05028,9.91948,-0.075115,-0.127637,9.805532,-9.77E-4,3.04E-4,0.53982,-32.82,27.72,-1.14,49.8627,0.7541,0.4145,55.81407,37.500324,210.7,NaN,,12.883,,0 / 2,,4600,2021-05-02 18:54:04:713
0.10056,-0.05028,9.91948,-0.075115,-0.127637,9.805532,-0.002199,-9.18E-4,0.542263,-32.82,27.72,-1.14,49.8627,0.7541,0.4145,55.81407,37.500324,210.7,NaN,,12.883,,0 / 2,,4611,2021-05-02 18:54:04:724
0.071828,-0.05028,9.689631,-0.074533,-0.126774,9.805548,-0.001588,0.001526,0.560589,-32.58,29.1,-1.74,48.7284,0.7457,0.4389,55.81407,37.500324,210.7,NaN,,12.883,,0 / 2,,4621,2021-05-02 18:54:04:734
-0.498009,-0.153234,9.80695,-0.074533,-0.126774,9.805548,-0.002199,0.008245,0.606404,-32.58,29.1,-1.74,48.7284,0.7457,0.4389,55.81407,37.500324,210.7,NaN,,12.883,,0 / 2,,4630,2021-05-02 18:54:04:743
-0.600963,-0.155628,9.869201,-0.077026,-0.12635,9.805533,-0.00281,-0.003361,0.753012,-32.34,29.76,-1.26,48.7284,0.7457,0.4389,55.81407,37.500324,210.7,NaN,,12.883,,0 / 2,,4640,2021-05-02 18:54:04:753
-0.600963,-0.155628,9.869201,-0.077026,-0.12635,9.805533,2.44E-4,9.15E-4,0.845252,-32.34,29.76,-1.26,48.7284,0.7457,0.4389,55.81407,37.500324,210.7,NaN,,12.883,,0 / 2,,4650,2021-05-02 18:54:04:763
-0.656031,-0.189148,9.77343,-0.07994,-0.124931,9.805529,2.44E-4,9.15E-4,0.845252,-32.28,28.86,-1.14,47.8335,0.7382,0.4501,55.81407,37.500324,210.7,NaN,,12.883,,0 / 2,,4660,2021-05-02 18:54:04:773
-0.215485,-0.107742,9.73991,-0.07994,-0.124931,9.805529,-0.002199,0.003969,0.933828,-32.28,28.86,-1.14,47.8335,0.7382,0.4501,55.81407,37.500324,210.7,NaN,,12.883,,0 / 2,,4670,2021-05-02 18:54:04:783
0.01676,-0.086194,9.751882,-0.083741,-0.123141,9.80552,-0.00281,0.005191,0.958262,-32.4,28.62,-1.02,47.8335,0.7382,0.4501,55.81407,37.500324,210.7,NaN,,12.883,,0 / 2,,4680,2021-05-02 18:54:04:793
0.105348,-0.06704,9.814133,-0.083741,-0.123141,9.80552,-0.002199,-0.006415,0.967425,-32.4,28.62,-1.02,47.8335,0.7382,0.4501,55.81407,37.500324,210.7,NaN,,12.883,,0 / 2,,4691,2021-05-02 18:54:04:804
0.105348,-0.06704,9.814133,-0.08692,-0.121731,9.80551,-0.004032,0.002748,0.982086,-32.1,28.86,-1.2,47.8333,0.7195,0.4893,55.81407,37.500324,210.7,NaN,,12.883,,0 / 2,,4700,2021-05-02 18:54:04:813
0.189148,-0.06704,9.804555,-0.08692,-0.121731,9.80551,-0.004032,0.007024,0.969869,-32.1,28.86,-1.2,47.8333,0.7195,0.4893,55.81407,37.500324,210.7,NaN,,12.883,,0 / 2,,4711,2021-05-02 18:54:04:824
0.186753,-0.045491,9.699207,-0.090921,-0.120366,9.80549,-3.67E-4,0.010078,0.946656,-31.74,28.5,-1.86,47.8333,0.7195,0.4893,55.81407,37.500324,210.7,NaN,,12.883,,0 / 2,,4720,2021-05-02 18:54:04:833
0.222668,-0.028731,9.811738,-0.090921,-0.120366,9.80549,-0.001588,0.007635,0.905728,-31.74,28.5,-1.86,47.8333,0.7195,0.4893,55.81407,37.500324,210.7,NaN,,12.883,,0 / 2,,4730,2021-05-02 18:54:04:843
0.28013,-0.026337,9.816526,-0.094369,-0.118943,9.805474,-0.004032,0.010689,0.856859,-31.38,28.98,-1.92,46.948,0.6949,0.5514,55.81407,37.500324,210.7,NaN,,12.883,,0 / 2,,4740,2021-05-02 18:54:04:853
0.318439,-0.011971,9.783007,-0.094369,-0.118943,9.805474,-0.001588,0.009467,0.807379,-31.38,28.98,-1.92,46.948,0.6949,0.5514,55.81407,37.500324,210.7,NaN,,12.883,,0 / 2,,4751,2021-05-02 18:54:04:864
0.318439,-0.011971,9.783007,-0.097954,-0.117778,9.805453,-9.77E-4,0.00458,0.756677,-30.9,29.64,-2.1,46.948,0.6949,0.5514,55.81407,37.500324,210.7,NaN,,12.883,,0 / 2,,4760,2021-05-02 18:54:04:873
0.277736,-0.069434,9.732727,-0.097954,-0.117778,9.805453,8.55E-4,0.002748,0.756066,-30.9,29.64,-2.1,46.948,0.6949,0.5514,55.81407,37.500324,210.7,NaN,,12.883,,0 / 2,,4771,2021-05-02 18:54:04:884
0.155628,-0.162811,9.75667,-0.099565,-0.116106,9.805457,2.44E-4,0.003969,0.803103,-30.96,30.42,-1.92,45.9777,0.6881,0.5724,55.81407,37.500324,210.7,NaN,,12.883,,0 / 2,,4781,2021-05-02 18:54:04:894
0.181965,-0.134079,9.75667,-0.099565,-0.116106,9.805457,-0.002199,0.002748,0.826316,-30.96,30.42,-1.92,45.9777,0.6881,0.5724,55.81407,37.500324,210.7,NaN,,12.883,,0 / 2,,4790,2021-05-02 18:54:04:903
0.181965,-0.134079,9.75667,-0.101041,-0.114777,9.805458,-0.002199,0.008245,0.829981,-31.08,30.36,-1.56,45.9777,0.6881,0.5724,55.81407,37.500324,210.7,NaN,,12.883,,0 / 2,,4800,2021-05-02 18:54:04:913
0.177176,-0.03352,9.751882,-0.101041,-0.114777,9.805458,-0.004032,0.007024,0.820818,-31.08,30.36,-1.56,45.9777,0.6881,0.5724,55.81407,37.500324,210.7,NaN,,12.883,,0 / 2,,4810,2021-05-02 18:54:04:923
-0.158022,-0.107742,9.73991,-0.10384,-0.113632,9.805442,-0.004643,0.013132,0.833646,-30.66,30.0,-1.68,45.9774,0.6706,0.5904,55.81407,37.500324,210.7,NaN,,12.883,,0 / 2,,4822,2021-05-02 18:54:04:935
-0.158022,-0.107742,9.73991,-0.10384,-0.113632,9.805442,-0.004643,0.013132,0.833646,-30.66,30.0,-1.68,45.9774,0.6706,0.5904,55.81407,37.500324,210.7,NaN,,12.883,,0 / 2,,4830,2021-05-02 18:54:04:943
0.052674,-0.021548,9.761458,-0.107512,-0.112812,9.805412,-9.77E-4,0.002748,0.838533,-30.72,31.2,-2.1,45.9774,0.6706,0.5904,55.81407,37.500324,210.7,NaN,,12.883,,0 / 2,,4840,2021-05-02 18:54:04:953
-0.069434,-0.0838,9.828498,-0.107512,-0.112812,9.805412,-0.004032,0.005191,0.81532,-30.72,31.2,-2.1,45.9774,0.6706,0.5904,55.81407,37.500324,210.7,NaN,,12.883,,0 / 2,,4851,2021-05-02 18:54:04:964
-0.031126,-0.0838,9.763853,-0.110857,-0.111362,9.805391,-0.004032,0.003359,0.812877,-30.78,32.04,-2.34,44.1281,0.6591,0.6282,55.81407,37.500324,210.7,NaN,,12.883,,0 / 2,,4860,2021-05-02 18:54:04:973
0.021548,-0.10056,9.737515,-0.110857,-0.111362,9.805391,-0.001588,0.003969,0.814098,-30.78,32.04,-2.34,44.1281,0.6591,0.6282,55.81407,37.500324,210.7,NaN,,12.883,,0 / 2,,4870,2021-05-02 18:54:04:983
0.021548,-0.10056,9.737515,-0.114272,-0.109889,9.805368,-9.77E-4,0.007635,0.826316,-29.94,31.98,-1.86,44.1281,0.6591,0.6282,55.81407,37.500324,210.7,NaN,,12.883,,0 / 2,,4881,2021-05-02 18:54:04:994
0.107742,-0.126897,9.72315,-0.114272,-0.109889,9.805368,-0.005253,-9.18E-4,0.866633,-29.94,31.98,-1.86,44.1281,0.6591,0.6282,55.81407,37.500324,210.7,NaN,,12.883,,0 / 2,,4891,2021-05-02 18:54:05:004
0.071828,-0.129291,9.797373,-0.117309,-0.108348,9.80535,-0.002199,0.008245,0.919778,-29.76,31.8,-1.74,43.191,0.642,0.6677,55.81407,37.500324,210.7,NaN,,12.883,,0 / 2,,4900,2021-05-02 18:54:05:013
0.071828,-0.129291,9.797373,-0.117309,-0.108348,9.80535,-0.001588,0.0113,0.963149,-29.76,31.8,-1.74,43.191,0.642,0.6677,55.81407,37.500324,210.7,NaN,,12.883,,0 / 2,,4910,2021-05-02 18:54:05:023
0.153234,-0.112531,9.802161,-0.120873,-0.106465,9.805326,-9.77E-4,-0.014357,0.955208,-29.94,32.22,-2.34,43.191,0.642,0.6677,55.81407,37.500324,210.7,NaN,,12.883,,0 / 2,,4920,2021-05-02 18:54:05:033
0.234639,-0.064645,9.747093,-0.120873,-0.106465,9.805326,-0.004643,0.010689,0.938715,-29.94,32.22,-2.34,43.191,0.642,0.6677,55.81407,37.500324,210.7,NaN,,12.883,,0 / 2,,4930,2021-05-02 18:54:05:043
0.311256,-0.026337,9.730332,-0.125502,-0.104436,9.805291,-0.005253,0.002748,0.892289,-29.76,32.64,-1.86,42.3119,0.622,0.7063,55.81407,37.500324,210.7,NaN,,12.883,,0 / 2,,4940,2021-05-02 18:54:05:053
0.311256,-0.026337,9.730332,-0.125502,-0.104436,9.805291,-0.005253,0.002748,0.892289,-29.76,32.64,-1.86,42.3119,0.622,0.7063,55.81407,37.500324,210.7,NaN,,12.883,,0 / 2,,4950,2021-05-02 18:54:05:063
0.395055,0.019154,9.763853,-0.128156,-0.102594,9.805276,-0.004643,0.009467,0.837311,-28.92,32.88,-1.62,42.3119,0.622,0.7063,55.81407,37.500324,210.7,NaN,,12.883,,0 / 2,,4961,2021-05-02 18:54:05:074
0.320833,-0.014366,9.809344,-0.128156,-0.102594,9.805276,-9.77E-4,3.04E-4,0.768283,-28.92,32.88,-1.62,42.3119,0.622,0.7063,55.81407,37.500324,210.7,NaN,,12.883,,0 / 2,,4971,2021-05-02 18:54:05:084
0.306467,-0.028731,9.718362,-0.129464,-0.100624,9.805279,-0.005864,-0.018022,0.727355,-28.44,32.88,-2.16,40.3543,0.5994,0.7488,55.81407,37.500324,210.7,NaN,,12.883,,0 / 2,,4980,2021-05-02 18:54:05:093
-0.011971,-0.093377,9.732727,-0.129464,-0.100624,9.805279,-0.002199,-0.005194,0.713916,-28.44,32.88,-2.16,40.3543,0.5994,0.7488,55.81407,37.500324,210.7,NaN,,12.883,,0 / 2,,4990,2021-05-02 18:54:05:103
-0.011971,-0.093377,9.732727,-0.129464,-0.100624,9.805279,-0.003421,0.006413,0.731021,-28.44,32.88,-2.16,40.3543,0.5994,0.7488,55.81407,37.500324,210.7,NaN,,12.883,,0 / 2,,5000,2021-05-02 18:54:05:113
-0.10056,-0.069434,9.811738,-0.131668,-0.098782,9.805268,-0.001588,-0.00275,0.743238,-29.52,33.0,-2.58,40.3543,0.5994,0.7488,55.81407,37.500324,210.7,NaN,,12.883,,0 / 2,,5010,2021-05-02 18:54:05:123
-0.440547,-0.086194,9.742304,-0.133185,-0.096603,9.80527,-3.67E-4,0.003359,0.768283,-29.76,33.54,-2.1,41.4614,0.5771,0.7693,55.81407,37.500324,210.7,NaN,,12.883,,0 / 2,,5021,2021-05-02 18:54:05:134
-0.706311,-0.165205,9.783007,-0.133185,-0.096603,9.80527,-0.001588,-0.002139,0.856859,-29.76,33.54,-2.1,41.4614,0.5771,0.7693,55.81407,37.500324,210.7,NaN,,12.883,,0 / 2,,5030,2021-05-02 18:54:05:143
-0.442941,-0.095771,9.80695,-0.135675,-0.094898,9.805253,-0.001588,-0.002139,0.856859,-28.38,33.54,-1.26,41.4614,0.5771,0.7693,55.81407,37.500324,210.7,NaN,,12.883,,0 / 2,,5040,2021-05-02 18:54:05:153
-0.442941,-0.095771,9.80695,-0.135675,-0.094898,9.805253,-0.003421,-0.003972,0.887402,-28.38,33.54,-1.26,41.4614,0.5771,0.7693,55.81407,37.500324,210.7,NaN,,12.883,,0 / 2,,5050,2021-05-02 18:54:05:163
-0.10056,-0.052674,9.761458,-0.139093,-0.09291,9.805223,-3.67E-4,0.006413,0.910615,-27.78,33.42,-1.62,40.354,0.5545,0.7928,55.81407,37.500324,210.7,NaN,,12.883,,0 / 2,,5060,2021-05-02 18:54:05:173
0.198725,-0.007183,9.830893,-0.139093,-0.09291,9.805223,-0.00281,0.002748,0.912448,-27.78,33.42,-1.62,40.354,0.5545,0.7928,55.81407,37.500324,210.7,NaN,,12.883,,0 / 2,,5070,2021-05-02 18:54:05:183
0.299284,0.062251,9.771035,-0.142119,-0.090788,9.8052,-0.001588,0.005802,0.8929,-28.08,34.14,-2.04,40.354,0.5545,0.7928,55.81407,37.500324,210.7,NaN,,12.883,,0 / 2,,5080,2021-05-02 18:54:05:193
0.354353,0.052674,9.749487,-0.142119,-0.090788,9.8052,-9.77E-4,0.0113,0.831203,-28.08,34.14,-2.04,40.354,0.5545,0.7928,55.81407,37.500324,210.7,NaN,,12.883,,0 / 2,,5090,2021-05-02 18:54:05:203
0.354353,0.052674,9.749487,-0.145028,-0.088658,9.805177,8.55E-4,0.00458,0.743849,-27.54,34.14,-1.5,39.4898,0.5304,0.8304,55.81407,37.500324,210.7,NaN,,12.883,,0 / 2,,5101,2021-05-02 18:54:05:214
0.205908,0.002394,9.783007,-0.145028,-0.088658,9.805177,0.001466,0.003969,0.699867,-27.54,34.14,-1.5,39.4898,0.5304,0.8304,55.81407,37.500324,210.7,NaN,,12.883,,0 / 2,,5110,2021-05-02 18:54:05:223
0.071828,-0.026337,9.768641,-0.146746,-0.085994,9.805175,-0.005864,0.003359,0.666269,-26.94,34.2,-0.78,39.4898,0.5304,0.8304,55.81407,37.500324,210.7,NaN,,12.883,,0 / 2,,5120,2021-05-02 18:54:05:233
0.03352,-0.05028,9.751882,-0.146746,-0.085994,9.805175,-0.005864,0.003359,0.666269,-26.94,34.2,-0.78,39.4898,0.5304,0.8304,55.81407,37.500324,210.7,NaN,,12.883,,0 / 2,,5130,2021-05-02 18:54:05:243
-0.01676,-0.045491,9.749487,-0.148342,-0.084126,9.805168,-0.002199,-0.025352,0.646721,-26.7,34.8,-1.2,37.6651,0.5024,0.8574,55.81407,37.500324,210.7,NaN,,12.883,,0 / 2,,5140,2021-05-02 18:54:05:253
-0.01676,-0.045491,9.749487,-0.148342,-0.084126,9.805168,-0.002199,-0.025352,0.646721,-26.7,34.8,-1.2,37.6651,0.5024,0.8574,55.81407,37.500324,210.7,NaN,,12.883,,0 / 2,,5150,2021-05-02 18:54:05:263
-0.052674,-0.079011,9.780613,-0.14994,-0.082446,9.805158,-3.67E-4,0.001526,0.678486,-26.4,35.22,-1.68,37.6651,0.5024,0.8574,55.81407,37.500324,210.7,NaN,,12.883,,0 / 2,,5160,2021-05-02 18:54:05:273
-0.031126,-0.06704,9.718362,-0.14994,-0.082446,9.805158,-0.00281,0.007024,0.701699,-26.22,35.28,-1.8,37.6651,0.5024,0.8574,55.81407,37.500324,210.7,NaN,,12.883,,0 / 2,,5170,2021-05-02 18:54:05:283
0.03352,0.014366,9.840469,-0.152044,-0.080469,9.805141,-0.001588,0.006413,0.71636,-26.22,35.28,-1.8,37.6651,0.5024,0.8574,55.81407,37.500324,210.7,NaN,,12.883,,0 / 2,,5181,2021-05-02 18:54:05:294
0.03352,0.014366,9.840469,-0.152044,-0.080469,9.805141,-0.00281,0.005191,0.70231,-26.46,35.1,-1.5,36.6249,0.4702,0.8884,55.81407,37.500324,210.7,NaN,,12.883,,0 / 2,,5191,2021-05-02 18:54:05:304
0.126897,0.023943,9.80695,-0.153921,-0.07883,9.805125,-0.001588,0.003359,0.675432,-26.46,35.1,-1.5,36.6249,0.4702,0.8884,55.81407,37.500324,210.7,NaN,,12.883,,0 / 2,,5201,2021-05-02 18:54:05:314
0.124502,-0.002394,9.749487,-0.153921,-0.07883,9.805125,-9.77E-4,0.005802,0.658939,-26.46,34.74,-1.74,36.6249,0.4702,0.8884,55.81407,37.500324,210.7,NaN,,12.883,,0 / 2,,5210,2021-05-02 18:54:05:323
0.24661,0.076617,9.73991,-0.15525,-0.076742,9.805121,-3.67E-4,-9.18E-4,0.605182,-26.46,34.74,-1.74,36.6249,0.4702,0.8884,55.81407,37.500324,210.7,NaN,,12.883,,0 / 2,,5220,2021-05-02 18:54:05:333
0.34717,0.081405,9.694419,-0.15525,-0.076742,9.805121,-0.003421,0.008856,0.541042,-26.28,35.28,-1.56,36.6476,0.4484,0.9071,55.81407,37.500324,210.7,NaN,,12.883,,0 / 2,,5231,2021-05-02 18:54:05:344
0.34717,0.081405,9.694419,-0.156355,-0.075164,9.805116,-0.001588,-0.002139,0.463462,-26.1,35.7,-1.56,36.6476,0.4484,0.9071,55.81407,37.500324,210.7,NaN,,12.883,,0 / 2,,5240,2021-05-02 18:54:05:353
0.462095,0.076617,9.797373,-0.156355,-0.075164,9.805116,-0.001588,-0.002139,0.463462,-26.1,35.7,-1.56,36.6476,0.4484,0.9071,55.81407,37.500324,210.7,NaN,,12.883,,0 / 2,,5250,2021-05-02 18:54:05:363
0.41421,0.090982,9.73991,-0.156981,-0.073889,9.805115,0.001466,-0.003361,0.393212,-26.16,35.34,-2.94,36.6476,0.4484,0.9071,55.81407,37.500324,210.7,NaN,,12.883,,0 / 2,,5260,2021-05-02 18:54:05:373
0.21309,0.014366,9.787795,-0.156981,-0.073889,9.805115,-9.77E-4,-3.07E-4,0.331515,-26.16,35.34,-2.94,36.6476,0.4484,0.9071,55.81407,37.500324,210.7,NaN,,12.883,,0 / 2,,5270,2021-05-02 18:54:05:383
-0.040703,-0.045491,9.72315,-0.156043,-0.072521,9.80514,-0.001588,3.04E-4,0.321741,-25.26,34.98,-2.88,35.6022,0.4317,0.9172,55.81407,37.500324,210.7,NaN,,12.883,,0 / 2,,5280,2021-05-02 18:54:05:393
-0.040703,-0.045491,9.72315,-0.156043,-0.072521,9.80514,-0.003421,0.003969,0.333347,-25.26,34.98,-2.88,35.6022,0.4317,0.9172,55.81407,37.500324,210.7,NaN,,12.883,,0 / 2,,5290,2021-05-02 18:54:05:403
-0.335198,-0.284919,9.701602,-0.156261,-0.07165,9.805143,8.55E-4,-0.006415,0.446357,-25.32,35.34,-2.4,35.6022,0.4317,0.9172,55.81407,37.500324,210.7,NaN,,12.883,,0 / 2,,5300,2021-05-02 18:54:05:413
-0.265764,-0.114925,9.763853,-0.156261,-0.07165,9.805143,-9.77E-4,0.007024,0.46957,-25.32,35.34,-2.4,35.6022,0.4317,0.9172,55.81407,37.500324,210.7,NaN,,12.883,,0 / 2,,5310,2021-05-02 18:54:05:423
0.265765,0.062251,9.660899,-0.156261,-0.07165,9.805143,-9.77E-4,0.007024,0.46957,-25.32,35.34,-2.4,35.6022,0.4317,0.9172,55.81407,37.500324,210.7,NaN,,12.883,,0 / 2,,5320,2021-05-02 18:54:05:433
0.459701,0.093377,9.730332,-0.157907,-0.070391,9.805126,2.44E-4,0.006413,0.428031,-26.28,35.94,-1.5,35.8548,0.4186,0.913,55.81407,37.500324,210.7,NaN,,12.883,,0 / 2,,5331,2021-05-02 18:54:05:444
0.304073,0.040703,9.783007,-0.158693,-0.06905,9.805122,-0.001588,3.04E-4,0.332126,-26.04,35.94,-0.9,35.8548,0.4186,0.913,55.81407,37.500324,210.7,NaN,,12.883,,0 / 2,,5340,2021-05-02 18:54:05:453
0.304073,0.040703,9.783007,-0.158693,-0.06905,9.805122,-0.00281,-0.005804,0.274704,-26.04,35.94,-0.9,35.8548,0.4186,0.913,55.81407,37.500324,210.7,NaN,,12.883,,0 / 2,,5350,2021-05-02 18:54:05:463
0.146051,-0.011971,9.873989,-0.158254,-0.068485,9.805134,-0.00281,-0.002139,0.226446,-25.2,35.94,-1.14,34.7955,0.4034,0.9272,55.81407,37.500324,210.7,NaN,,12.883,,0 / 2,,5360,2021-05-02 18:54:05:473
-0.275342,-0.10056,9.656111,-0.158254,-0.068485,9.805134,-3.67E-4,-0.002139,0.244772,-25.2,35.94,-1.14,34.7955,0.4034,0.9272,55.81407,37.500324,210.7,NaN,,12.883,,0 / 2,,5370,2021-05-02 18:54:05:483
-0.5435,-0.184359,9.759064,-0.158687,-0.067546,9.805133,2.44E-4,-0.003972,0.357782,-25.38,35.94,-1.5,34.7955,0.4034,0.9272,55.81407,37.500324,210.7,NaN,,12.883,,0 / 2,,5380,2021-05-02 18:54:05:493
-0.098165,-0.055068,9.768641,-0.15895,-0.067077,9.805133,-0.003421,0.008856,0.445136,-25.02,36.0,-1.92,34.7955,0.4034,0.9272,55.81407,37.500324,210.7,NaN,,12.883,,0 / 2,,5390,2021-05-02 18:54:05:503
-0.098165,-0.055068,9.768641,-0.15895,-0.067077,9.805133,-0.002199,0.008245,0.486675,-25.02,36.0,-1.92,34.7955,0.4034,0.9272,55.81407,37.500324,210.7,NaN,,12.883,,0 / 2,,5400,2021-05-02 18:54:05:513
0.043097,-0.009577,9.703996,-0.160026,-0.06595,9.805122,-0.005253,0.008245,0.516607,-25.38,36.48,-2.22,34.8179,0.3919,0.9287,55.81407,37.500324,210.7,NaN,,12.883,,0 / 2,,5410,2021-05-02 18:54:05:523
-0.03352,-0.023943,9.79019,-0.160026,-0.06595,9.805122,-3.67E-4,0.007024,0.540431,-25.08,36.78,-2.04,34.8179,0.3919,0.9287,55.81407,37.500324,210.7,NaN,,12.883,,0 / 2,,5420,2021-05-02 18:54:05:533
-0.03352,-0.05028,9.792584,-0.161289,-0.064939,9.805109,-3.67E-4,0.007024,0.540431,-25.08,36.78,-2.04,34.8179,0.3919,0.9287,55.81407,37.500324,210.7,NaN,,12.883,,0 / 2,,5430,2021-05-02 18:54:05:543
-0.03352,-0.05028,9.792584,-0.161289,-0.064939,9.805109,-0.002199,-9.18E-4,0.592354,-24.54,37.5,-1.92,34.8179,0.3919,0.9287,55.81407,37.500324,210.7,NaN,,12.883,,0 / 2,,5440,2021-05-02 18:54:05:553
0.086194,-0.028731,9.761458,-0.162743,-0.063321,9.805096,8.55E-4,0.003359,0.627174,-24.54,37.5,-1.92,34.8179,0.3919,0.9287,55.81407,37.500324,210.7,NaN,,12.883,,0 / 2,,5450,2021-05-02 18:54:05:563
0.141262,0.01676,9.730332,-0.162743,-0.063321,9.805096,2.44E-4,-0.00947,0.636947,-24.54,37.38,-2.34,34.0855,0.37,0.9509,55.81407,37.500324,210.7,NaN,,12.883,,0 / 2,,5460,2021-05-02 18:54:05:573
0.110137,-0.009577,9.775824,-0.162876,-0.061717,9.805103,2.44E-4,-9.18E-4,0.674821,-23.94,37.38,-2.28,34.0855,0.37,0.9509,55.81407,37.500324,210.7,NaN,,12.883,,0 / 2,,5470,2021-05-02 18:54:05:583
0.110137,-0.009577,9.775824,-0.162876,-0.061717,9.805103,-0.001588,-3.07E-4,0.716971,-23.94,37.38,-2.28,34.0855,0.37,0.9509,55.81407,37.500324,210.7,NaN,,12.883,,0 / 2,,5480,2021-05-02 18:54:05:593
0.129291,-0.040703,9.687236,-0.163062,-0.05965,9.805113,-3.67E-4,-0.003972,0.750568,-23.82,37.2,-2.28,34.0855,0.37,0.9509,55.81407,37.500324,210.7,NaN,,12.883,,0 / 2,,5490,2021-05-02 18:54:05:603
0.148445,-0.074223,9.761458,-0.163062,-0.05965,9.805113,0.003299,0.005802,0.749957,-23.82,37.2,-2.28,34.0855,0.37,0.9509,55.81407,37.500324,210.7,NaN,,12.883,,0 / 2,,5500,2021-05-02 18:54:05:613
0.138868,-0.031126,9.70639,-0.164916,-0.05648,9.8051,-0.002199,-0.001528,0.712084,-22.68,37.02,-2.7,31.9297,0.3485,0.9528,55.81407,37.500324,210.7,NaN,,12.883,,0 / 2,,5510,2021-05-02 18:54:05:623
-0.069434,-0.153234,9.72315,-0.164918,-0.055709,9.805105,-0.001588,0.008245,0.69498,-23.1,37.44,-2.4,31.9297,0.3485,0.9528,55.81407,37.500324,210.7,NaN,,12.883,,0 / 2,,5521,2021-05-02 18:54:05:634
-0.069434,-0.153234,9.72315,-0.164918,-0.055709,9.805105,-0.003421,0.002137,0.683984,-23.1,37.44,-2.4,31.9297,0.3485,0.9528,55.81407,37.500324,210.7,NaN,,12.883,,0 / 2,,5530,2021-05-02 18:54:05:643
-0.198725,-0.122108,9.713573,-0.164918,-0.055709,9.805105,-0.002199,0.0113,0.705364,-23.64,37.44,-2.52,31.9297,0.3485,0.9528,55.81407,37.500324,210.7,NaN,,12.883,,0 / 2,,5540,2021-05-02 18:54:05:653
-0.158022,-0.064645,9.75667,-0.165482,-0.053455,9.805108,-0.002199,0.0113,0.705364,-23.64,37.44,-2.52,31.9297,0.3485,0.9528,55.81407,37.500324,210.7,NaN,,12.883,,0 / 2,,5550,2021-05-02 18:54:05:663
-0.035914,-0.028731,9.792584,-0.165779,-0.051707,9.805112,8.55E-4,-0.005194,0.710862,-23.7,37.74,-2.88,32.3365,0.3123,0.9669,55.81407,37.500324,210.7,NaN,,12.883,,0 / 2,,5560,2021-05-02 18:54:05:673
0.136474,0.028731,9.80695,-0.166362,-0.05072,9.805108,0.002688,9.15E-4,0.672378,-23.82,37.8,-3.0,32.3365,0.3123,0.9669,55.81407,37.500324,210.7,NaN,,12.883,,0 / 2,,5571,2021-05-02 18:54:05:684
0.136474,0.028731,9.80695,-0.166362,-0.05072,9.805108,-0.005253,0.002748,0.620454,-23.82,37.8,-3.0,32.3365,0.3123,0.9669,55.81407,37.500324,210.7,NaN,,12.883,,0 / 2,,5580,2021-05-02 18:54:05:693
0.0,-0.011971,9.847652,-0.166913,-0.048495,9.80511,-0.00281,-0.001528,0.615567,-23.46,38.04,-2.4,32.3365,0.3123,0.9669,55.81407,37.500324,210.7,NaN,,12.883,,0 / 2,,5590,2021-05-02 18:54:05:703
-0.021548,-0.03352,9.77343,-0.166913,-0.048495,9.80511,-0.00281,-0.001528,0.615567,-23.46,38.04,-2.4,32.3365,0.3123,0.9669,55.81407,37.500324,210.7,NaN,,12.883,,0 / 2,,5600,2021-05-02 18:54:05:713
0.205908,0.021548,9.730332,-0.167822,-0.046776,9.805102,0.002077,0.00458,0.629006,-23.22,38.04,-2.28,31.2245,0.2833,0.9753,55.81407,37.500324,210.7,NaN,,12.883,,0 / 2,,5610,2021-05-02 18:54:05:723
0.402238,0.047885,9.759064,-0.168009,-0.045913,9.805103,-0.002199,0.005191,0.619232,-23.1,38.52,-1.68,31.2245,0.2833,0.9753,55.81407,37.500324,210.7,NaN,,12.883,,0 / 2,,5620,2021-05-02 18:54:05:733
0.402238,0.047885,9.759064,-0.168009,-0.045913,9.805103,-0.001588,0.007635,0.607626,-23.1,38.52,-1.68,31.2245,0.2833,0.9753,55.81407,37.500324,210.7,NaN,,12.883,,0 / 2,,5630,2021-05-02 18:54:05:743
0.409421,0.028731,9.778218,-0.169771,-0.044233,9.80508,-9.77E-4,0.013132,0.598463,-22.44,38.94,-1.68,31.2245,0.2833,0.9753,55.81407,37.500324,210.7,NaN,,12.883,,0 / 2,,5640,2021-05-02 18:54:05:753
0.105348,-0.045491,9.802161,-0.169771,-0.044233,9.80508,-0.002199,0.006413,0.611291,-22.44,38.94,-1.68,31.2245,0.2833,0.9753,55.81407,37.500324,210.7,NaN,,12.883,,0 / 2,,5650,2021-05-02 18:54:05:763
0.052674,-0.098165,9.732727,-0.1713,-0.042549,9.805061,2.44E-4,0.008245,0.63206,-21.72,39.12,-2.04,29.4672,0.2584,0.992,55.81407,37.500324,210.7,NaN,,12.883,,0 / 2,,5660,2021-05-02 18:54:05:773
0.052674,-0.098165,9.732727,-0.1713,-0.042549,9.805061,-3.67E-4,0.002748,0.656495,-21.72,39.12,-2.04,29.4672,0.2584,0.992,55.81407,37.500324,210.7,NaN,,12.883,,0 / 2,,5670,2021-05-02 18:54:05:783
-0.011971,-0.071828,9.73991,-0.172448,-0.040714,9.805049,2.44E-4,0.001526,0.687038,-21.18,39.18,-2.22,29.4672,0.2584,0.992,55.81407,37.500324,210.7,NaN,,12.883,,0 / 2,,5680,2021-05-02 18:54:05:793
0.019154,-0.055068,9.77343,-0.172448,-0.040714,9.805049,-0.003421,0.002748,0.690704,-21.18,39.18,-2.22,29.4672,0.2584,0.992,55.81407,37.500324,210.7,NaN,,12.883,,0 / 2,,5690,2021-05-02 18:54:05:803
0.095771,-0.004789,9.79019,-0.173425,-0.038887,9.805039,0.001466,0.003969,0.680319,-21.3,39.0,-2.58,28.364,0.2379,1.0076,55.81407,37.500324,210.7,NaN,,12.883,,0 / 2,,5701,2021-05-02 18:54:05:814
0.095771,-0.004789,9.79019,-0.173425,-0.038887,9.805039,2.44E-4,0.005191,0.68093,-21.3,39.0,-2.58,28.364,0.2379,1.0076,55.81407,37.500324,210.7,NaN,,12.883,,0 / 2,,5710,2021-05-02 18:54:05:823
-0.052674,-0.074223,9.737515,-0.174377,-0.036406,9.805032,2.44E-4,0.003359,0.696201,-21.24,38.88,-2.52,28.364,0.2379,1.0076,55.81407,37.500324,210.7,NaN,,12.883,,0 / 2,,5720,2021-05-02 18:54:05:833
-0.131685,-0.076617,9.763853,-0.174377,-0.036406,9.805032,-0.00281,0.003969,0.699867,-21.24,38.88,-2.52,28.364,0.2379,1.0076,55.81407,37.500324,210.7,NaN,,12.883,,0 / 2,,5731,2021-05-02 18:54:05:844
-0.177176,-0.088588,9.735122,-0.174775,-0.034251,9.805033,-0.002199,0.008245,0.721247,-20.82,39.36,-2.28,28.3413,0.2127,1.0189,55.81407,37.500324,210.7,NaN,,12.883,,0 / 2,,5741,2021-05-02 18:54:05:854
-0.155628,-0.038308,9.768641,-0.174775,-0.034251,9.805033,-0.002199,0.008245,0.721247,-20.82,39.36,-2.28,28.3413,0.2127,1.0189,55.81407,37.500324,210.7,NaN,,12.883,,0 / 2,,5750,2021-05-02 18:54:05:863
-0.155628,-0.038308,9.768641,-0.176345,-0.031996,9.805013,0.002077,-0.013135,0.746903,-21.06,39.48,-3.42,28.3413,0.2127,1.0189,55.81407,37.500324,210.7,NaN,,12.883,,0 / 2,,5760,2021-05-02 18:54:05:873
-0.275342,-0.071828,9.780613,-0.177153,-0.030972,9.805001,-0.002199,0.003359,0.765229,-20.76,39.18,-3.66,28.3413,0.2127,1.0189,55.81407,37.500324,210.7,NaN,,12.883,,0 / 2,,5770,2021-05-02 18:54:05:883
-0.337593,-0.064645,9.737515,-0.177153,-0.030972,9.805001,-0.002199,0.003359,0.765229,-20.76,39.18,-3.66,28.3413,0.2127,1.0189,55.81407,37.500324,210.7,NaN,,12.883,,0 / 2,,5780,2021-05-02 18:54:05:893
-0.311256,-0.081405,9.720756,-0.178128,-0.028555,9.804991,0.001466,0.001526,0.807379,-20.28,39.54,-2.94,26.6283,0.181,1.0351,55.81407,37.500324,210.7,NaN,,12.883,,0 / 2,,5790,2021-05-02 18:54:05:903
-0.311256,-0.081405,9.720756,-0.178128,-0.028555,9.804991,-0.005253,0.009467,0.848918,-20.28,39.54,-2.94,26.6283,0.181,1.0351,55.81407,37.500324,210.7,NaN,,12.883,,0 / 2,,5800,2021-05-02 18:54:05:913
-0.21309,-0.076617,9.73991,-0.178985,-0.025789,9.804982,0.002077,-0.003361,0.881294,-19.74,39.84,-2.1,26.6283,0.181,1.0351,55.81407,37.500324,210.7,NaN,,12.883,,0 / 2,,5810,2021-05-02 18:54:05:923
-0.004789,-0.047885,9.730332,-0.180171,-0.024174,9.804965,-0.001588,9.15E-4,0.922832,-19.8,39.72,-2.1,26.6283,0.181,1.0351,55.81407,37.500324,210.7,NaN,,12.883,,0 / 2,,5820,2021-05-02 18:54:05:933
-0.004789,-0.047885,9.730332,-0.180171,-0.024174,9.804965,-0.00281,0.005802,0.921611,-19.8,39.72,-2.1,26.6283,0.181,1.0351,55.81407,37.500324,210.7,NaN,,12.883,,0 / 2,,5830,2021-05-02 18:54:05:943
0.146051,0.019154,9.749487,-0.180951,-0.021935,9.804955,8.55E-4,-3.07E-4,0.879461,-19.14,40.38,-2.34,25.4492,0.1412,1.0527,55.81407,37.500324,210.7,NaN,,12.883,,0 / 2,,5841,2021-05-02 18:54:05:954
0.047885,-0.057463,9.799767,-0.180951,-0.021935,9.804955,-0.001588,0.005802,0.88557,-19.14,40.38,-2.34,25.4492,0.1412,1.0527,55.81407,37.500324,210.7,NaN,,12.883,,0 / 2,,5850,2021-05-02 18:54:05:963
0.351958,0.043097,9.857229,-0.182022,-0.018958,9.804942,-0.002199,-0.002139,0.856859,-18.36,40.92,-2.7,25.4492,0.1412,1.0527,55.81407,37.500324,210.7,NaN,,12.883,,0 / 2,,5860,2021-05-02 18:54:05:973
0.351958,0.043097,9.857229,-0.182022,-0.018958,9.804942,-3.67E-4,3.04E-4,0.772559,-18.36,40.92,-2.7,25.4492,0.1412,1.0527,55.81407,37.500324,210.7,NaN,,12.883,,0 / 2,,5870,2021-05-02 18:54:05:983
0.691945,0.158022,9.783007,-0.180867,-0.016206,9.804969,-0.001588,0.001526,0.650997,-18.36,41.28,-2.22,23.7437,0.0947,1.0568,55.81407,37.500324,210.7,NaN,,12.883,,0 / 2,,5880,2021-05-02 18:54:05:993
0.411815,0.043097,9.754275,-0.180867,-0.016206,9.804969,-0.001588,0.001526,0.650997,-18.36,41.28,-2.22,23.7437,0.0947,1.0568,55.81407,37.500324,210.7,NaN,,12.883,,0 / 2,,5890,2021-05-02 18:54:06:003
0.411815,0.043097,9.754275,-0.180127,-0.013664,9.804987,2.44E-4,0.002137,0.614345,-17.64,40.8,-1.38,23.7437,0.0947,1.0568,55.81407,37.500324,210.7,NaN,,12.883,,0 / 2,,5900,2021-05-02 18:54:06:013
-0.258582,-0.064645,9.766247,-0.180127,-0.013664,9.804987,8.55E-4,0.002137,0.643667,-17.64,40.8,-1.38,23.7437,0.0947,1.0568,55.81407,37.500324,210.7,NaN,,12.883,,0 / 2,,5910,2021-05-02 18:54:06:023
-0.069434,-0.043097,9.735122,-0.179899,-0.011493,9.804994,2.44E-4,0.007635,0.658939,-16.86,40.86,-1.74,22.5621,0.0798,1.0525,55.81407,37.500324,210.7,NaN,,12.883,,0 / 2,,5920,2021-05-02 18:54:06:033
-0.0838,-0.023943,9.761458,-0.179899,-0.011493,9.804994,-0.003421,0.00458,0.662604,-16.86,40.86,-1.74,22.5621,0.0798,1.0525,55.81407,37.500324,210.7,NaN,,12.883,,0 / 2,,5930,2021-05-02 18:54:06:043
-0.232245,-0.064645,9.749487,-0.180507,-0.009166,9.804985,-0.005253,0.005191,0.667491,-16.38,41.1,-2.4,22.5621,0.0798,1.0525,55.81407,37.500324,210.7,NaN,,12.883,,0 / 2,,5941,2021-05-02 18:54:06:054
-0.232245,-0.064645,9.749487,-0.180507,-0.009166,9.804985,-0.003421,9.15E-4,0.698034,-16.38,41.1,-2.4,22.5621,0.0798,1.0525,55.81407,37.500324,210.7,NaN,,12.883,,0 / 2,,5951,2021-05-02 18:54:06:064
-0.009577,0.002394,9.833286,-0.180407,-0.007493,9.804988,-0.001588,0.00458,0.711473,-16.56,41.34,-2.1,22.5616,0.0438,1.0541,55.81407,37.500324,210.7,NaN,,12.883,,0 / 2,,5961,2021-05-02 18:54:06:074
0.289707,0.071828,9.732727,-0.180407,-0.007493,9.804988,8.55E-4,0.005802,0.699867,-16.56,41.34,-2.1,22.5616,0.0438,1.0541,55.81407,37.500324,210.7,NaN,,12.883,,0 / 2,,5971,2021-05-02 18:54:06:084
0.471672,0.110137,9.768641,-0.180456,-0.005364,9.804988,-0.001588,-9.18E-4,0.669934,-17.1,41.46,-2.28,22.5616,0.0438,1.0541,55.81407,37.500324,210.7,NaN,,12.883,,0 / 2,,5980,2021-05-02 18:54:06:093
0.471672,0.110137,9.842864,-0.180456,-0.005364,9.804988,-3.67E-4,0.008856,0.605793,-17.1,41.46,-2.28,22.5616,0.0438,1.0541,55.81407,37.500324,210.7,NaN,,12.883,,0 / 2,,5990,2021-05-02 18:54:06:103
0.471672,0.110137,9.842864,-0.181112,-0.003198,9.804977,8.55E-4,9.15E-4,0.556313,-17.16,41.34,-2.46,22.5615,0.0313,1.0544,55.81407,37.500324,210.7,NaN,,12.883,,0 / 2,,6000,2021-05-02 18:54:06:113
0.215485,0.035914,9.644139,-0.181112,-0.003198,9.804977,-0.001588,0.003969,0.51844,-16.62,41.22,-2.7,22.5615,0.0313,1.0544,55.81407,37.500324,210.7,NaN,,12.883,,0 / 2,,6011,2021-05-02 18:54:06:124
0.215485,0.035914,9.644139,-0.181112,-0.003198,9.804977,-0.001588,0.003969,0.51844,-16.62,41.22,-2.7,22.5615,0.0313,1.0544,55.81407,37.500324,210.7,NaN,,12.883,,0 / 2,,6020,2021-05-02 18:54:06:133
-0.095771,-0.038308,9.636956,-0.180836,-0.001241,9.804982,2.44E-4,0.003969,0.505,-16.38,41.34,-1.98,22.5615,0.0313,1.0544,55.81407,37.500324,210.7,NaN,,12.883,,0 / 2,,6030,2021-05-02 18:54:06:143
-0.201119,-0.074223,9.744699,-0.181254,7.38E-4,9.804975,-3.67E-4,0.003969,0.522105,-15.9,41.46,-2.46,21.3594,-0.0043,1.059,55.81407,37.500324,210.7,NaN,,12.883,,0 / 2,,6040,2021-05-02 18:54:06:153
-0.043097,-0.023943,9.768641,-0.181254,7.38E-4,9.804975,0.00391,-9.18E-4,0.537987,-15.9,41.46,-2.46,21.3594,-0.0043,1.059,55.81407,37.500324,210.7,NaN,,12.883,,0 / 2,,6050,2021-05-02 18:54:06:163
0.095771,0.057463,9.742304,-0.181692,0.002049,9.804967,-0.00281,0.002748,0.51844,-15.48,41.88,-2.64,21.3594,-0.0043,1.059,55.81407,37.500324,210.7,NaN,,12.883,,0 / 2,,6060,2021-05-02 18:54:06:173
