ACCELEROMETER X (m/s²),ACCELEROMETER Y (m/s²),ACCELEROMETER Z (m/s²),GRAVITY X (m/s²),GRAVITY Y (m/s²),GRAVITY Z (m/s²),GYROSCOPE X (rad/s),GYROSCOPE Y (rad/s),GYROSCOPE Z (rad/s),MAGNETIC FIELD X (μT),MAGNETIC FIELD Y (μT),MAGNETIC FIELD Z (μT),ORIENTATION Z (azimuth °),ORIENTATION X (pitch °),ORIENTATION Y (roll °),LOCATION Latitude : ,LOCATION Longitude : ,LOCATION Altitude ( m),LOCATION Altitude-google ( m),LOCATION Speed ( m/s),LOCATION Accuracy ( m),LOCATION ORIENTATION (°),Satellites in range,GPS NMEA,Time since start in ms ,YYYY-MO-DD HH-MI-SS_SSS
0.153234,0.114925,9.77343,0.154624,0.121615,9.804677,6.29E-4,0.001368,-8.52E-4,11.16,0.96,-83.22,279.3762,-0.7149,-0.9076,55.814068,37.500385,210.7,NaN,,12.078001,,0 / 0,,20,2021-05-02 17:08:41:262
0.160416,0.114925,9.783007,0.154624,0.121615,9.804677,-0.002426,0.00259,-2.41E-4,11.16,0.96,-83.22,279.3762,-0.7149,-0.9076,55.814068,37.500385,210.7,NaN,,12.078001,,0 / 0,,30,2021-05-02 17:08:41:272
0.150839,0.131685,9.794978,0.154484,0.121736,9.804677,0.001239,0.001368,0.003425,10.62,1.08,-83.88,279.3762,-0.7149,-0.9076,55.814068,37.500385,210.7,NaN,,12.078001,,0 / 0,,40,2021-05-02 17:08:41:282
0.150839,0.131685,9.794978,0.154484,0.121736,9.804677,-0.001815,-4.64E-4,3.7E-4,10.62,1.08,-83.88,279.3762,-0.7149,-0.9076,55.814068,37.500385,210.7,NaN,,12.078001,,0 / 0,,50,2021-05-02 17:08:41:292
0.148445,0.119714,9.778218,0.154341,0.121343,9.804685,-5.93E-4,-4.64E-4,-0.001462,10.62,1.26,-83.82,279.4023,-0.7113,-0.9027,55.814068,37.500385,210.7,NaN,,12.078001,,0 / 0,,60,2021-05-02 17:08:41:302
0.141262,0.124502,9.787795,0.15438,0.121219,9.804686,-0.002426,-4.64E-4,-8.52E-4,11.28,1.56,-83.4,279.4023,-0.7113,-0.9027,55.814068,37.500385,210.7,NaN,,12.078001,,0 / 0,,70,2021-05-02 17:08:41:312
0.141262,0.114925,9.785401,0.15438,0.121219,9.804686,0.001239,1.47E-4,-2.41E-4,11.28,1.56,-83.4,279.4023,-0.7113,-0.9027,55.814068,37.500385,210.7,NaN,,12.078001,,0 / 0,,81,2021-05-02 17:08:41:323
0.141262,0.114925,9.785401,0.15438,0.121219,9.804686,0.003072,1.47E-4,-2.41E-4,11.28,1.56,-83.4,279.4023,-0.7113,-0.9027,55.814068,37.500385,210.7,NaN,,12.078001,,0 / 0,,90,2021-05-02 17:08:41:332
0.158022,0.117319,9.778218,0.154302,0.121327,9.804686,-5.93E-4,-0.001686,-0.003295,11.64,1.62,-83.46,282.8019,-0.7082,-0.9021,55.814068,37.500385,210.7,NaN,,12.078001,,0 / 0,,100,2021-05-02 17:08:41:342
0.138868,0.124502,9.785401,0.153897,0.121034,9.804695,-0.001204,-0.001075,-0.001462,11.52,1.14,-84.24,282.8019,-0.7082,-0.9021,55.814068,37.500385,210.7,NaN,,12.078001,,0 / 0,,111,2021-05-02 17:08:41:353
0.167599,0.122108,9.80695,0.153897,0.121034,9.804695,-0.001815,-4.64E-4,0.001592,11.52,1.14,-84.24,282.8019,-0.7082,-0.9021,55.814068,37.500385,210.7,NaN,,12.078001,,0 / 0,,120,2021-05-02 17:08:41:362
0.138868,0.124502,9.80695,0.153452,0.121246,9.8047,1.8E-5,0.003812,-0.002073,11.1,1.02,-85.02,279.423,-0.7072,-0.8993,55.814068,37.500385,210.7,NaN,,12.078001,,0 / 0,,130,2021-05-02 17:08:41:372
0.138868,0.124502,9.80695,0.153452,0.121246,9.8047,1.8E-5,0.003812,-0.002073,11.1,1.02,-85.02,279.423,-0.7072,-0.8993,55.814068,37.500385,210.7,NaN,,12.078001,,0 / 0,,140,2021-05-02 17:08:41:382
0.148445,0.117319,9.797373,0.153452,0.121246,9.8047,-0.002426,0.001979,-0.002684,11.1,1.02,-85.02,279.423,-0.7072,-0.8993,55.814068,37.500385,210.7,NaN,,12.078001,,0 / 0,,150,2021-05-02 17:08:41:392
0.172388,0.110137,9.792584,0.152532,0.120978,9.804717,-0.001204,7.57E-4,3.7E-4,10.92,1.08,-84.6,279.423,-0.7072,-0.8993,55.814068,37.500385,210.7,NaN,,12.078001,,0 / 0,,160,2021-05-02 17:08:41:402
0.167599,0.114925,9.794978,0.152434,0.120854,9.804721,-0.003037,1.47E-4,-8.52E-4,11.58,1.68,-84.24,282.8443,-0.7068,-0.8913,55.814068,37.500385,210.7,NaN,,12.078001,,0 / 0,,170,2021-05-02 17:08:41:412
0.172388,0.112531,9.768641,0.152434,0.120854,9.804721,-0.002426,7.57E-4,-8.52E-4,11.58,1.68,-84.24,282.8443,-0.7068,-0.8913,55.814068,37.500385,210.7,NaN,,12.078001,,0 / 0,,180,2021-05-02 17:08:41:422
0.172388,0.112531,9.768641,0.152716,0.120631,9.804719,-5.93E-4,-0.001075,-2.41E-4,11.46,1.32,-84.54,282.8443,-0.7068,-0.8913,55.814068,37.500385,210.7,NaN,,12.078001,,0 / 0,,190,2021-05-02 17:08:41:432
0.143657,0.126897,9.761458,0.152716,0.120631,9.804719,0.001239,1.47E-4,-0.001462,11.46,1.32,-84.54,282.8443,-0.7068,-0.8913,55.814068,37.500385,210.7,NaN,,12.078001,,0 / 0,,200,2021-05-02 17:08:41:442
0.141262,0.148445,9.828498,0.153167,0.120482,9.804713,1.8E-5,0.001368,-0.002684,10.92,1.14,-84.24,282.8443,-0.7068,-0.8913,55.814068,37.500385,210.7,NaN,,12.078001,,0 / 0,,210,2021-05-02 17:08:41:452
0.148445,0.122108,9.826104,0.152759,0.120548,9.804719,1.8E-5,0.001979,-8.52E-4,11.22,0.96,-83.82,279.3622,-0.7039,-0.895,55.814068,37.500385,210.7,NaN,,12.078001,,0 / 0,,220,2021-05-02 17:08:41:462
0.141262,0.126897,9.804555,0.152759,0.120548,9.804719,1.8E-5,0.001979,-0.003906,11.22,0.96,-83.82,279.3622,-0.7039,-0.895,55.814068,37.500385,210.7,NaN,,12.078001,,0 / 0,,230,2021-05-02 17:08:41:472
0.141262,0.126897,9.804555,0.152669,0.120483,9.804721,0.001239,1.47E-4,-8.52E-4,11.22,1.26,-83.52,279.3622,-0.7039,-0.895,55.814068,37.500385,210.7,NaN,,12.078001,,0 / 0,,240,2021-05-02 17:08:41:482
0.148445,0.122108,9.79019,0.152669,0.120483,9.804721,-0.001815,0.005644,-8.52E-4,11.22,1.26,-83.52,279.3622,-0.7039,-0.895,55.814068,37.500385,210.7,NaN,,12.078001,,0 / 0,,250,2021-05-02 17:08:41:492
0.150839,0.098165,9.780613,0.152472,0.120612,9.804723,-0.001815,0.001368,-8.52E-4,10.98,1.08,-83.94,279.3655,-0.7039,-0.8921,55.814068,37.500385,210.7,NaN,,12.078001,,0 / 0,,260,2021-05-02 17:08:41:502
0.141262,0.110137,9.768641,0.152472,0.120612,9.804723,-0.001815,0.001368,-8.52E-4,10.98,1.08,-83.94,279.3655,-0.7039,-0.8921,55.814068,37.500385,210.7,NaN,,12.078001,,0 / 0,,270,2021-05-02 17:08:41:512
0.153234,0.129291,9.792584,0.152289,0.120981,9.804721,6.29E-4,-4.64E-4,-0.003906,11.46,1.2,-84.06,279.3655,-0.7039,-0.8921,55.814068,37.500385,210.7,NaN,,12.078001,,0 / 0,,280,2021-05-02 17:08:41:522
0.153234,0.129291,9.792584,0.152289,0.120981,9.804721,1.8E-5,-0.001075,-2.41E-4,11.46,1.2,-84.06,279.3655,-0.7039,-0.8921,55.814068,37.500385,210.7,NaN,,12.078001,,0 / 0,,290,2021-05-02 17:08:41:532
0.134079,0.119714,9.79019,0.152289,0.120981,9.804721,1.8E-5,7.57E-4,-2.41E-4,11.46,1.2,-84.06,279.3655,-0.7039,-0.8921,55.814068,37.500385,210.7,NaN,,12.078001,,0 / 0,,300,2021-05-02 17:08:41:542
0.155628,0.114925,9.811738,0.152507,0.121224,9.804715,-0.001815,1.47E-4,-0.002073,11.58,1.62,-83.58,282.8463,-0.7069,-0.8899,55.814068,37.500385,210.7,NaN,,12.078001,,0 / 0,,310,2021-05-02 17:08:41:552
0.158022,0.102954,9.775824,0.152507,0.121224,9.804715,-5.93E-4,-0.002297,-0.001462,10.86,1.38,-83.46,282.8463,-0.7069,-0.8899,55.814068,37.500385,210.7,NaN,,12.078001,,0 / 0,,320,2021-05-02 17:08:41:562
0.148445,0.107742,9.787795,0.151997,0.121147,9.804724,-0.002426,0.001368,-8.52E-4,10.86,1.38,-83.46,282.8463,-0.7069,-0.8899,55.814068,37.500385,210.7,NaN,,12.078001,,0 / 0,,330,2021-05-02 17:08:41:572
0.150839,0.122108,9.780613,0.151919,0.121278,9.804724,-5.93E-4,0.001368,-0.001462,10.8,0.78,-83.82,282.8463,-0.7069,-0.8899,55.814068,37.500385,210.7,NaN,,12.078001,,0 / 0,,340,2021-05-02 17:08:41:582
0.150839,0.122108,9.780613,0.151919,0.121278,9.804724,-0.002426,-0.001075,-2.41E-4,10.8,0.78,-83.82,282.8463,-0.7069,-0.8899,55.814068,37.500385,210.7,NaN,,12.078001,,0 / 0,,350,2021-05-02 17:08:41:592
0.143657,0.126897,9.80695,0.151772,0.121103,9.804728,6.29E-4,7.57E-4,-8.52E-4,10.92,0.84,-84.12,279.4012,-0.7086,-0.8877,55.814068,37.500385,210.7,NaN,,12.078001,,0 / 0,,360,2021-05-02 17:08:41:602
0.165205,0.124502,9.797373,0.151023,0.121025,9.80474,-0.001204,0.003201,-0.002073,11.64,1.5,-83.46,279.4012,-0.7086,-0.8877,55.814068,37.500385,210.7,NaN,,12.078001,,0 / 0,,371,2021-05-02 17:08:41:613
0.165205,0.124502,9.797373,0.151023,0.121025,9.80474,-0.001204,0.003201,-0.002073,11.64,1.5,-83.46,279.4012,-0.7086,-0.8877,55.814068,37.500385,210.7,NaN,,12.078001,,0 / 0,,380,2021-05-02 17:08:41:622
0.146051,0.117319,9.792584,0.151023,0.121025,9.80474,-0.001815,-4.64E-4,-0.002073,11.64,1.5,-83.46,279.4012,-0.7086,-0.8877,55.814068,37.500385,210.7,NaN,,12.078001,,0 / 0,,390,2021-05-02 17:08:41:632
0.138868,0.107742,9.792584,0.150816,0.120979,9.804744,-0.003037,-4.64E-4,-8.52E-4,11.94,1.32,-83.52,278.7007,-0.7071,-0.8825,55.814068,37.500385,210.7,NaN,,12.078001,,0 / 0,,400,2021-05-02 17:08:41:642
0.155628,0.110137,9.787795,0.150675,0.120347,9.804754,-5.93E-4,0.00259,-0.002073,11.1,1.14,-83.76,278.7007,-0.7071,-0.8825,55.814068,37.500385,210.7,NaN,,12.078001,,0 / 0,,410,2021-05-02 17:08:41:652
0.158022,0.119714,9.783007,0.150675,0.120347,9.804754,1.8E-5,-0.001686,-0.003295,11.1,1.14,-83.76,278.7007,-0.7071,-0.8825,55.814068,37.500385,210.7,NaN,,12.078001,,0 / 0,,420,2021-05-02 17:08:41:662
0.169994,0.105348,9.787795,0.150474,0.119704,9.804765,-0.002426,-0.002297,-2.41E-4,10.44,1.32,-83.64,278.7007,-0.7071,-0.8825,55.814068,37.500385,210.7,NaN,,12.078001,,0 / 0,,430,2021-05-02 17:08:41:672
0.169994,0.105348,9.787795,0.150076,0.118695,9.804783,0.00185,-4.64E-4,0.001592,10.26,1.98,-84.3,284.9935,-0.6994,-0.8793,55.814068,37.500385,210.7,NaN,,12.078001,,0 / 0,,440,2021-05-02 17:08:41:682
0.153234,0.131685,9.794978,0.150076,0.118695,9.804783,-0.002426,7.57E-4,-0.003295,10.26,1.98,-84.3,284.9935,-0.6994,-0.8793,55.814068,37.500385,210.7,NaN,,12.078001,,0 / 0,,451,2021-05-02 17:08:41:693
0.150839,0.110137,9.775824,0.150367,0.118296,9.804784,-5.93E-4,-4.64E-4,9.81E-4,10.14,1.98,-84.54,284.9935,-0.6994,-0.8793,55.814068,37.500385,210.7,NaN,,12.078001,,0 / 0,,460,2021-05-02 17:08:41:702
0.143657,0.131685,9.783007,0.150367,0.118296,9.804784,6.29E-4,0.001979,-0.001462,10.14,1.98,-84.54,284.9935,-0.6994,-0.8793,55.814068,37.500385,210.7,NaN,,12.078001,,0 / 0,,470,2021-05-02 17:08:41:712
0.143657,0.122108,9.79019,0.150718,0.118001,9.804782,0.002461,0.004423,3.7E-4,10.8,2.28,-84.18,284.9935,-0.6994,-0.8793,55.814068,37.500385,210.7,NaN,,12.078001,,0 / 0,,480,2021-05-02 17:08:41:722
0.150839,0.119714,9.79019,0.150679,0.118008,9.804782,-0.001204,-4.64E-4,-8.52E-4,11.4,1.86,-84.48,283.7551,-0.6894,-0.8807,55.814068,37.500385,210.7,NaN,,12.078001,,0 / 0,,490,2021-05-02 17:08:41:732
0.150839,0.119714,9.79019,0.150679,0.118008,9.804782,-0.001204,-4.64E-4,-8.52E-4,11.4,1.86,-84.48,283.7551,-0.6894,-0.8807,55.814068,37.500385,210.7,NaN,,12.078001,,0 / 0,,500,2021-05-02 17:08:41:742
0.141262,0.124502,9.797373,0.150679,0.118008,9.804782,-0.001204,0.00259,9.81E-4,11.4,1.86,-84.48,283.7551,-0.6894,-0.8807,55.814068,37.500385,210.7,NaN,,12.078001,,0 / 0,,510,2021-05-02 17:08:41:752
0.155628,0.122108,9.797373,0.150481,0.117761,9.804789,-0.001815,1.47E-4,-0.002073,11.7,0.9,-84.24,283.7551,-0.6894,-0.8807,55.814068,37.500385,210.7,NaN,,12.078001,,0 / 0,,520,2021-05-02 17:08:41:762
0.172388,0.126897,9.802161,0.150083,0.117507,9.804798,1.8E-5,0.001979,-0.002684,11.58,0.66,-84.0,278.5862,-0.688,-0.8793,55.814068,37.500385,210.7,NaN,,12.078001,,0 / 0,,530,2021-05-02 17:08:41:772
0.158022,0.143657,9.811738,0.150083,0.117507,9.804798,-0.002426,-4.64E-4,-0.002073,11.58,0.66,-84.0,278.5862,-0.688,-0.8793,55.814068,37.500385,210.7,NaN,,12.078001,,0 / 0,,540,2021-05-02 17:08:41:782
0.158022,0.143657,9.811738,0.149922,0.117633,9.804798,-5.93E-4,-4.64E-4,0.001592,10.98,1.08,-84.3,278.5862,-0.688,-0.8793,55.814068,37.500385,210.7,NaN,,12.078001,,0 / 0,,550,2021-05-02 17:08:41:792
0.155628,0.114925,9.751882,0.149922,0.117633,9.804798,0.003072,0.004423,-0.003295,10.98,1.08,-84.3,278.5862,-0.688,-0.8793,55.814068,37.500385,210.7,NaN,,12.078001,,0 / 0,,560,2021-05-02 17:08:41:802
0.150839,0.119714,9.787795,0.149922,0.117633,9.804798,0.003072,0.001979,-0.001462,10.98,1.08,-84.3,278.5862,-0.688,-0.8793,55.814068,37.500385,210.7,NaN,,12.078001,,0 / 0,,571,2021-05-02 17:08:41:813
0.150839,0.143657,9.842864,0.150538,0.118154,9.804783,1.8E-5,-0.002297,-0.002684,10.92,1.38,-84.36,279.2727,-0.6873,-0.876,55.814068,37.500385,210.7,NaN,,12.078001,,0 / 0,,581,2021-05-02 17:08:41:823
0.138868,0.129291,9.814133,0.152179,0.118751,9.80475,-5.93E-4,7.57E-4,-8.52E-4,11.34,1.02,-83.94,279.2727,-0.6873,-0.876,55.814068,37.500385,210.7,NaN,,12.078001,,0 / 0,,590,2021-05-02 17:08:41:832
0.138868,0.129291,9.814133,0.152179,0.118751,9.80475,-0.003037,0.001979,3.7E-4,11.34,1.02,-83.94,279.2727,-0.6873,-0.876,55.814068,37.500385,210.7,NaN,,12.078001,,0 / 0,,600,2021-05-02 17:08:41:842
0.129291,0.114925,9.785401,0.152363,0.118921,9.804746,-0.003037,-0.002908,-2.41E-4,10.98,0.72,-84.42,279.3015,-0.6938,-0.8892,55.814068,37.500385,210.7,NaN,,12.078001,,0 / 0,,610,2021-05-02 17:08:41:852
0.146051,0.114925,9.761458,0.152363,0.118921,9.804746,6.29E-4,-0.001686,-0.001462,10.98,0.72,-84.42,279.3015,-0.6938,-0.8892,55.814068,37.500385,210.7,NaN,,12.078001,,0 / 0,,620,2021-05-02 17:08:41:862
0.146051,0.114925,9.761458,0.152363,0.118921,9.804746,0.003072,-4.64E-4,-2.41E-4,10.98,0.72,-84.42,279.3015,-0.6938,-0.8892,55.814068,37.500385,210.7,NaN,,12.078001,,0 / 0,,630,2021-05-02 17:08:41:872
0.162811,0.131685,9.814133,0.152359,0.119516,9.804738,0.003683,1.47E-4,-0.001462,10.68,0.48,-85.08,279.3015,-0.6938,-0.8892,55.814068,37.500385,210.7,NaN,,12.078001,,0 / 0,,640,2021-05-02 17:08:41:882
0.150839,0.129291,9.840469,0.152704,0.120433,9.804722,0.00185,7.57E-4,-8.52E-4,10.5,0.9,-84.06,279.33,-0.6983,-0.8903,55.814068,37.500385,210.7,NaN,,12.078001,,0 / 0,,651,2021-05-02 17:08:41:893
0.179571,0.124502,9.785401,0.152704,0.120433,9.804722,-0.001204,-0.001075,-8.52E-4,10.5,0.9,-84.06,279.33,-0.6983,-0.8903,55.814068,37.500385,210.7,NaN,,12.078001,,0 / 0,,660,2021-05-02 17:08:41:902
0.158022,0.110137,9.79019,0.153177,0.120937,9.804708,1.8E-5,0.00259,3.7E-4,11.04,1.26,-84.24,279.33,-0.6983,-0.8903,55.814068,37.500385,210.7,NaN,,12.078001,,0 / 0,,672,2021-05-02 17:08:41:914
0.158022,0.131685,9.802161,0.153177,0.120937,9.804708,-5.93E-4,1.47E-4,-2.41E-4,11.04,1.26,-84.24,279.33,-0.6983,-0.8903,55.814068,37.500385,210.7,NaN,,12.078001,,0 / 0,,680,2021-05-02 17:08:41:922
0.158022,0.131685,9.802161,0.153177,0.120937,9.804708,-5.93E-4,1.47E-4,-2.41E-4,11.04,1.26,-84.24,279.33,-0.6983,-0.8903,55.814068,37.500385,210.7,NaN,,12.078001,,0 / 0,,690,2021-05-02 17:08:41:932
0.143657,0.119714,9.797373,0.153581,0.121231,9.804698,0.001239,7.57E-4,-2.41E-4,11.34,1.38,-84.72,279.4239,-0.7066,-0.895,55.814068,37.500385,210.7,NaN,,12.078001,,0 / 0,,700,2021-05-02 17:08:41:942
0.129291,0.124502,9.804555,0.154416,0.121756,9.804678,0.002461,-0.00474,-2.41E-4,11.22,1.44,-84.3,279.4239,-0.7066,-0.895,55.814068,37.500385,210.7,NaN,,12.078001,,0 / 0,,710,2021-05-02 17:08:41:952
0.131685,0.126897,9.80695,0.154416,0.121756,9.804678,6.29E-4,-0.00474,-2.41E-4,11.22,1.44,-84.3,279.4239,-0.7066,-0.895,55.814068,37.500385,210.7,NaN,,12.078001,,0 / 0,,720,2021-05-02 17:08:41:962
0.131685,0.126897,9.80695,0.154416,0.121756,9.804678,6.29E-4,-4.64E-4,-0.001462,11.46,0.9,-84.54,279.4478,-0.7114,-0.9023,55.814068,37.500385,210.7,NaN,,12.078001,,0 / 0,,730,2021-05-02 17:08:41:972
0.146051,0.119714,9.80695,0.153798,0.122111,9.804684,0.002461,1.47E-4,-0.002073,11.46,0.9,-84.54,279.4478,-0.7114,-0.9023,55.814068,37.500385,210.7,NaN,,12.078001,,0 / 0,,740,2021-05-02 17:08:41:982
0.158022,0.126897,9.802161,0.153798,0.122111,9.804684,-0.001204,7.57E-4,-0.003906,11.46,0.9,-84.54,279.4478,-0.7114,-0.9023,55.814068,37.500385,210.7,NaN,,12.078001,,0 / 0,,750,2021-05-02 17:08:41:992
0.162811,0.112531,9.787795,0.15234,0.122323,9.804704,6.29E-4,0.001368,-8.52E-4,11.34,0.96,-84.84,279.4478,-0.7114,-0.9023,55.814068,37.500385,210.7,NaN,,12.078001,,0 / 0,,760,2021-05-02 17:08:42:002
0.162811,0.112531,9.787795,0.15234,0.122323,9.804704,-0.002426,-0.002297,-0.001462,11.34,0.96,-84.84,279.4478,-0.7114,-0.9023,55.814068,37.500385,210.7,NaN,,12.078001,,0 / 0,,770,2021-05-02 17:08:42:012
0.179571,0.122108,9.797373,0.151887,0.12198,9.804715,0.001239,0.00259,-0.001462,10.92,1.14,-84.54,279.4837,-0.7147,-0.8902,55.814068,37.500385,210.7,NaN,,12.078001,,0 / 0,,780,2021-05-02 17:08:42:022
0.146051,0.10056,9.787795,0.151887,0.12198,9.804715,6.29E-4,-4.64E-4,-0.002073,10.92,1.14,-84.54,279.4837,-0.7147,-0.8902,55.814068,37.500385,210.7,NaN,,12.078001,,0 / 0,,790,2021-05-02 17:08:42:032
0.162811,0.122108,9.785401,0.152235,0.121925,9.80471,0.001239,-4.64E-4,-2.41E-4,10.62,1.14,-84.18,279.4837,-0.7147,-0.8902,55.814068,37.500385,210.7,NaN,,12.078001,,0 / 0,,800,2021-05-02 17:08:42:042
0.162811,0.122108,9.785401,0.152235,0.121925,9.80471,0.001239,1.47E-4,-0.002684,10.62,1.14,-84.18,279.4837,-0.7147,-0.8902,55.814068,37.500385,210.7,NaN,,12.078001,,0 / 0,,811,2021-05-02 17:08:42:053
0.150839,0.112531,9.787795,0.152362,0.121869,9.804709,0.001239,7.57E-4,0.002203,11.16,1.2,-84.18,279.4212,-0.712,-0.8903,55.814068,37.500385,210.7,NaN,,12.078001,,0 / 0,,820,2021-05-02 17:08:42:062
0.148445,0.114925,9.787795,0.152362,0.121869,9.804709,1.8E-5,-4.64E-4,-0.001462,11.28,1.14,-84.24,279.4212,-0.712,-0.8903,55.814068,37.500385,210.7,NaN,,12.078001,,0 / 0,,830,2021-05-02 17:08:42:072
0.148445,0.122108,9.794978,0.152331,0.121816,9.80471,0.00185,-0.001686,-0.002073,11.28,1.14,-84.24,279.4212,-0.712,-0.8903,55.814068,37.500385,210.7,NaN,,12.078001,,0 / 0,,841,2021-05-02 17:08:42:083
0.148445,0.122108,9.794978,0.152331,0.121816,9.80471,6.29E-4,-0.001686,0.001592,11.28,1.14,-84.24,279.4212,-0.712,-0.8903,55.814068,37.500385,210.7,NaN,,12.078001,,0 / 0,,850,2021-05-02 17:08:42:092
0.117319,0.143657,9.79019,0.152017,0.121966,9.804713,-5.93E-4,-0.002297,-2.41E-4,11.04,1.5,-83.88,283.8833,-0.7117,-0.8901,55.814068,37.500385,210.7,NaN,,12.078001,,0 / 0,,860,2021-05-02 17:08:42:102
0.136474,0.126897,9.792584,0.152017,0.121966,9.804713,0.001239,0.005034,-8.52E-4,11.04,1.5,-83.88,283.8833,-0.7117,-0.8901,55.814068,37.500385,210.7,NaN,,12.078001,,0 / 0,,870,2021-05-02 17:08:42:112
0.150839,0.105348,9.804555,0.150209,0.122093,9.80474,6.29E-4,0.001368,-0.002684,11.1,1.38,-84.06,283.8833,-0.7117,-0.8901,55.814068,37.500385,210.7,NaN,,12.078001,,0 / 0,,880,2021-05-02 17:08:42:122
0.150839,0.105348,9.804555,0.150209,0.122093,9.80474,6.29E-4,-0.001686,-0.002684,11.1,1.38,-84.06,283.8833,-0.7117,-0.8901,55.814068,37.500385,210.7,NaN,,12.078001,,0 / 0,,890,2021-05-02 17:08:42:132
0.143657,0.129291,9.804555,0.149641,0.121884,9.804751,1.8E-5,-0.002297,-0.003295,11.28,0.96,-84.78,279.4887,-0.7134,-0.8777,55.814068,37.500385,210.7,NaN,,12.078001,,0 / 0,,901,2021-05-02 17:08:42:143
0.169994,0.119714,9.785401,0.149144,0.121743,9.80476,0.001239,-0.001075,9.81E-4,11.22,1.32,-84.78,279.4887,-0.7134,-0.8777,55.814068,37.500385,210.7,NaN,,12.078001,,0 / 0,,910,2021-05-02 17:08:42:152
0.155628,0.107742,9.802161,0.149144,0.121743,9.80476,-0.001204,0.001368,-0.002684,11.22,1.32,-84.78,279.4887,-0.7134,-0.8777,55.814068,37.500385,210.7,NaN,,12.078001,,0 / 0,,920,2021-05-02 17:08:42:162
0.155628,0.107742,9.802161,0.149144,0.121743,9.80476,-0.001204,0.001368,-0.002684,11.22,1.32,-84.78,279.4887,-0.7134,-0.8777,55.814068,37.500385,210.7,NaN,,12.078001,,0 / 0,,930,2021-05-02 17:08:42:172
0.146051,0.117319,9.79019,0.149864,0.121154,9.804756,0.001239,1.47E-4,3.7E-4,10.74,1.56,-84.54,283.9484,-0.7113,-0.8715,55.814068,37.500385,210.7,NaN,,12.078001,,0 / 0,,940,2021-05-02 17:08:42:182
0.141262,0.119714,9.79019,0.149864,0.121154,9.804756,-5.93E-4,-4.64E-4,-0.003295,10.74,1.56,-84.54,283.9484,-0.7113,-0.8715,55.814068,37.500385,210.7,NaN,,12.078001,,0 / 0,,951,2021-05-02 17:08:42:193
0.136474,0.134079,9.797373,0.149775,0.121206,9.804757,-0.001815,-0.002908,3.7E-4,10.98,1.98,-84.24,283.9484,-0.7113,-0.8715,55.814068,37.500385,210.7,NaN,,12.078001,,0 / 0,,960,2021-05-02 17:08:42:202
0.138868,0.112531,9.80695,0.149569,0.121159,9.804761,0.002461,-0.001075,0.002203,11.16,2.28,-83.76,283.8843,-0.7082,-0.8752,55.814068,37.500385,210.7,NaN,,12.078001,,0 / 0,,970,2021-05-02 17:08:42:212
0.138868,0.112531,9.80695,0.149569,0.121159,9.804761,6.29E-4,-4.64E-4,-0.002684,11.16,2.28,-83.76,283.8843,-0.7082,-0.8752,55.814068,37.500385,210.7,NaN,,12.078001,,0 / 0,,980,2021-05-02 17:08:42:222
0.143657,0.126897,9.780613,0.149569,0.121159,9.804761,0.00185,0.001368,3.7E-4,11.16,2.28,-83.76,283.8843,-0.7082,-0.8752,55.814068,37.500385,210.7,NaN,,12.078001,,0 / 0,,990,2021-05-02 17:08:42:232
0.148445,0.126897,9.811738,0.149243,0.121253,9.804765,-5.93E-4,-0.002297,-0.002684,10.5,1.98,-84.72,283.8843,-0.7082,-0.8752,55.814068,37.500385,210.7,NaN,,12.078001,,0 / 0,,1000,2021-05-02 17:08:42:242
0.148445,0.114925,9.79019,0.148086,0.121735,9.804776,-5.93E-4,0.004423,-0.002073,10.62,1.44,-84.96,279.4622,-0.7084,-0.8721,55.814068,37.500385,210.7,NaN,,12.078001,,0 / 0,,1010,2021-05-02 17:08:42:252
0.155628,0.112531,9.797373,0.148086,0.121735,9.804776,0.002461,-0.00474,-2.41E-4,10.62,1.44,-84.96,279.4622,-0.7084,-0.8721,55.814068,37.500385,210.7,NaN,,12.078001,,0 / 0,,1024,2021-05-02 17:08:42:266
0.155628,0.112531,9.797373,0.148086,0.121735,9.804776,6.29E-4,1.47E-4,3.7E-4,10.98,1.38,-83.88,279.4622,-0.7084,-0.8721,55.814068,37.500385,210.7,NaN,,12.078001,,0 / 0,,1030,2021-05-02 17:08:42:272
0.165205,0.117319,9.814133,0.147765,0.122223,9.804775,6.29E-4,0.001368,-0.002684,10.98,1.38,-83.88,279.4622,-0.7084,-0.8721,55.814068,37.500385,210.7,NaN,,12.078001,,0 / 0,,1040,2021-05-02 17:08:42:282
0.148445,0.129291,9.787795,0.147765,0.122223,9.804775,1.8E-5,-4.64E-4,-0.004517,10.98,1.38,-83.88,279.4622,-0.7084,-0.8721,55.814068,37.500385,210.7,NaN,,12.078001,,0 / 0,,1050,2021-05-02 17:08:42:292
0.148445,0.119714,9.79019,0.147851,0.122529,9.80477,-0.001815,-4.64E-4,-2.41E-4,11.28,1.38,-84.06,279.4649,-0.7141,-0.8634,55.814068,37.500385,210.7,NaN,,12.078001,,0 / 0,,1060,2021-05-02 17:08:42:302
0.169994,0.112531,9.787795,0.147851,0.122529,9.80477,-5.93E-4,-0.001075,-0.002073,11.28,1.38,-84.06,279.4649,-0.7141,-0.8634,55.814068,37.500385,210.7,NaN,,12.078001,,0 / 0,,1070,2021-05-02 17:08:42:312
0.169994,0.112531,9.787795,0.148225,0.12251,9.804765,-0.001815,1.47E-4,0.002203,11.16,1.02,-84.72,279.4649,-0.7141,-0.8634,55.814068,37.500385,210.7,NaN,,12.078001,,0 / 0,,1080,2021-05-02 17:08:42:322
0.155628,0.110137,9.799767,0.148225,0.12251,9.804756,-0.001815,1.47E-4,0.002203,10.86,1.56,-84.06,283.9479,-0.7158,-0.8661,55.814068,37.500385,210.7,NaN,,12.078001,,0 / 0,,1091,2021-05-02 17:08:42:333
0.143657,0.114925,9.797373,0.14868,0.122616,9.804756,1.8E-5,1.47E-4,0.001592,10.86,1.56,-84.06,283.9479,-0.7158,-0.8661,55.814068,37.500385,210.7,NaN,,12.078001,,0 / 0,,1100,2021-05-02 17:08:42:342
0.146051,0.122108,9.799767,0.14868,0.122616,9.804756,0.003072,1.47E-4,-8.52E-4,10.86,1.56,-84.06,283.9479,-0.7158,-0.8661,55.814068,37.500385,210.7,NaN,,12.078001,,0 / 0,,1110,2021-05-02 17:08:42:352
0.172388,0.134079,9.802161,0.148827,0.122909,9.80475,6.29E-4,-0.001075,9.81E-4,11.1,2.28,-83.58,283.9479,-0.7158,-0.8661,55.814068,37.500385,210.7,NaN,,12.078001,,0 / 0,,1120,2021-05-02 17:08:42:362
0.172388,0.134079,9.802161,0.149776,0.1229,9.804736,-5.93E-4,1.47E-4,-2.41E-4,11.64,1.92,-83.46,282.8967,-0.7181,-0.8752,55.814068,37.500385,210.7,NaN,,12.078001,,0 / 0,,1130,2021-05-02 17:08:42:372
0.193936,0.124502,9.771035,0.149776,0.1229,9.804736,-5.93E-4,-0.002908,-8.52E-4,11.64,1.92,-83.46,282.8967,-0.7181,-0.8752,55.814068,37.500385,210.7,NaN,,12.078001,,0 / 0,,1140,2021-05-02 17:08:42:382
0.172388,0.124502,9.783007,0.152504,0.122569,9.804698,0.002461,0.001368,3.7E-4,11.58,1.56,-83.1,282.8967,-0.7181,-0.8752,55.814068,37.500385,210.7,NaN,,12.078001,,0 / 0,,1150,2021-05-02 17:08:42:392
0.167599,0.112531,9.818921,0.152504,0.122569,9.804698,1.8E-5,-4.64E-4,-0.004517,11.58,1.56,-83.1,282.8967,-0.7181,-0.8752,55.814068,37.500385,210.7,NaN,,12.078001,,0 / 0,,1160,2021-05-02 17:08:42:402
0.174782,0.138868,9.809344,0.152504,0.122569,9.804698,-5.93E-4,0.003201,-0.001462,11.58,1.56,-83.1,282.8967,-0.7181,-0.8752,55.814068,37.500385,210.7,NaN,,12.078001,,0 / 0,,1171,2021-05-02 17:08:42:413
0.148445,0.114925,9.802161,0.1545,0.122512,9.804668,0.00185,-4.64E-4,-2.41E-4,11.16,1.44,-83.46,279.3874,-0.7158,-0.9028,55.814068,37.500385,210.7,NaN,,12.078001,,0 / 0,,1180,2021-05-02 17:08:42:422
0.148445,0.114925,9.802161,0.15657,0.121929,9.804643,-0.001204,7.57E-4,-0.001462,11.46,1.56,-83.76,279.3874,-0.7158,-0.9028,55.814068,37.500385,210.7,NaN,,12.078001,,0 / 0,,1190,2021-05-02 17:08:42:432
0.124502,0.126897,9.785401,0.15657,0.121929,9.804643,-0.001815,7.57E-4,-2.41E-4,11.46,1.56,-83.76,279.3874,-0.7158,-0.9028,55.814068,37.500385,210.7,NaN,,12.078001,,0 / 0,,1201,2021-05-02 17:08:42:443
0.153234,0.122108,9.818921,0.156553,0.121693,9.804646,-0.001204,0.001979,-8.52E-4,11.52,1.5,-84.54,282.8809,-0.7124,-0.9149,55.814068,37.500385,210.7,NaN,,12.078001,,0 / 0,,1210,2021-05-02 17:08:42:452
0.158022,0.134079,9.783007,0.156553,0.121693,9.804646,-0.001204,0.001979,-8.52E-4,11.52,1.5,-84.54,282.8809,-0.7124,-0.9149,55.814068,37.500385,210.7,NaN,,12.078001,,0 / 0,,1220,2021-05-02 17:08:42:462
0.158022,0.134079,9.783007,0.156553,0.121693,9.804646,0.003072,7.57E-4,0.001592,11.52,1.5,-84.54,282.8809,-0.7124,-0.9149,55.814068,37.500385,210.7,NaN,,12.078001,,0 / 0,,1230,2021-05-02 17:08:42:472
0.165205,0.122108,9.80695,0.156284,0.121874,9.804647,-0.001204,1.47E-4,-0.005128,10.92,0.72,-84.66,282.8809,-0.7124,-0.9149,55.814068,37.500385,210.7,NaN,,12.078001,,0 / 0,,1240,2021-05-02 17:08:42:482
0.160416,0.105348,9.785401,0.156066,0.122009,9.804649,-0.001815,-4.64E-4,-0.002684,10.56,0.9,-84.18,279.3959,-0.7121,-0.9132,55.814068,37.500385,210.7,NaN,,12.078001,,0 / 0,,1250,2021-05-02 17:08:42:492
0.174782,0.126897,9.797373,0.156066,0.122009,9.804649,6.29E-4,0.00259,-8.52E-4,10.56,0.9,-84.18,279.3959,-0.7121,-0.9132,55.814068,37.500385,210.7,NaN,,12.078001,,0 / 0,,1260,2021-05-02 17:08:42:502
0.174782,0.126897,9.797373,0.156066,0.122009,9.804649,-0.001815,-0.002297,0.002203,10.56,0.9,-84.18,279.3959,-0.7121,-0.9132,55.814068,37.500385,210.7,NaN,,12.078001,,0 / 0,,1270,2021-05-02 17:08:42:512
0.141262,0.107742,9.804555,0.156225,0.121625,9.804651,6.29E-4,0.001979,9.81E-4,10.74,1.86,-84.06,279.3959,-0.7121,-0.9132,55.814068,37.500385,210.7,NaN,,12.078001,,0 / 0,,1280,2021-05-02 17:08:42:522
0.177176,0.122108,9.785401,0.156225,0.121625,9.804651,0.001239,-4.64E-4,-0.001462,10.74,1.86,-84.06,279.3959,-0.7121,-0.9132,55.814068,37.500385,210.7,NaN,,12.078001,,0 / 0,,1290,2021-05-02 17:08:42:532
0.155628,0.117319,9.759064,0.156031,0.121043,9.804662,-5.93E-4,-0.001075,3.7E-4,11.64,1.56,-84.3,282.8372,-0.7106,-0.9129,55.814068,37.500385,210.7,NaN,,12.078001,,0 / 0,,1300,2021-05-02 17:08:42:542
0.160416,0.126897,9.802161,0.158006,0.120992,9.80463,6.29E-4,-4.64E-4,-0.002073,11.88,0.84,-84.12,282.8372,-0.7106,-0.9129,55.814068,37.500385,210.7,NaN,,12.078001,,0 / 0,,1310,2021-05-02 17:08:42:552
0.160416,0.126897,9.802161,0.158006,0.120992,9.80463,0.00185,-0.004129,-2.41E-4,11.88,0.84,-84.12,282.8372,-0.7106,-0.9129,55.814068,37.500385,210.7,NaN,,12.078001,,0 / 0,,1320,2021-05-02 17:08:42:562
0.160416,0.110137,9.818921,0.159017,0.120851,9.804616,1.8E-5,7.57E-4,-0.002684,10.98,0.84,-84.0,279.3508,-0.7069,-0.9233,55.814068,37.500385,210.7,NaN,,12.078001,,0 / 0,,1330,2021-05-02 17:08:42:572
0.155628,0.117319,9.792584,0.159017,0.120851,9.804616,-0.001204,0.00259,3.7E-4,10.98,0.84,-84.0,279.3508,-0.7069,-0.9233,55.814068,37.500385,210.7,NaN,,12.078001,,0 / 0,,1341,2021-05-02 17:08:42:583
0.138868,0.112531,9.780613,0.159017,0.120851,9.804616,6.29E-4,0.001368,-2.41E-4,10.98,0.84,-84.0,279.3508,-0.7069,-0.9233,55.814068,37.500385,210.7,NaN,,12.078001,,0 / 0,,1351,2021-05-02 17:08:42:593
0.167599,0.122108,9.778218,0.158922,0.120605,9.804621,0.001239,7.57E-4,-0.004517,10.56,0.9,-84.48,279.3508,-0.7069,-0.9233,55.814068,37.500385,210.7,NaN,,12.078001,,0 / 0,,1361,2021-05-02 17:08:42:603
0.167599,0.122108,9.778218,0.158236,0.12103,9.804626,6.29E-4,0.001979,-2.41E-4,11.04,0.72,-84.72,279.3734,-0.7047,-0.9286,55.814068,37.500385,210.7,NaN,,12.078001,,0 / 0,,1370,2021-05-02 17:08:42:612
0.148445,0.112531,9.775824,0.158236,0.12103,9.804626,6.29E-4,-0.001075,0.002814,11.04,0.72,-84.72,279.3734,-0.7047,-0.9286,55.814068,37.500385,210.7,NaN,,12.078001,,0 / 0,,1380,2021-05-02 17:08:42:622
0.158022,0.114925,9.785401,0.158236,0.12103,9.804626,-5.93E-4,7.57E-4,-0.002073,11.46,0.54,-84.54,279.3734,-0.7047,-0.9286,55.814068,37.500385,210.7,NaN,,12.078001,,0 / 0,,1390,2021-05-02 17:08:42:632
0.158022,0.114925,9.785401,0.158456,0.121152,9.804622,-5.93E-4,7.57E-4,-0.002073,11.46,0.54,-84.54,279.3734,-0.7047,-0.9286,55.814068,37.500385,210.7,NaN,,12.078001,,0 / 0,,1400,2021-05-02 17:08:42:642
0.158022,0.122108,9.794978,0.158456,0.121152,9.804622,-0.002426,0.001368,-0.002073,11.46,0.54,-84.54,279.3734,-0.7047,-0.9286,55.814068,37.500385,210.7,NaN,,12.078001,,0 / 0,,1410,2021-05-02 17:08:42:652
0.160416,0.110137,9.780613,0.158097,0.121291,9.804626,-5.93E-4,1.47E-4,-0.002073,10.74,0.36,-83.94,274.7901,-0.7079,-0.9259,55.814068,37.500385,210.7,NaN,,12.078001,,0 / 0,,1421,2021-05-02 17:08:42:663
0.155628,0.122108,9.802161,0.157938,0.121416,9.804626,0.002461,1.47E-4,-0.001462,10.92,0.42,-84.06,274.7901,-0.7079,-0.9259,55.814068,37.500385,210.7,NaN,,12.078001,,0 / 0,,1430,2021-05-02 17:08:42:672
0.155628,0.122108,9.802161,0.157938,0.121416,9.804626,-0.001204,-4.64E-4,-0.001462,10.92,0.42,-84.06,274.7901,-0.7079,-0.9259,55.814068,37.500385,210.7,NaN,,12.078001,,0 / 0,,1440,2021-05-02 17:08:42:682
0.124502,0.122108,9.809344,0.157649,0.120965,9.804637,-0.001204,0.001979,-0.005128,11.34,1.2,-84.24,279.3676,-0.7094,-0.9229,55.814068,37.500385,210.7,NaN,,12.078001,,0 / 0,,1450,2021-05-02 17:08:42:692
0.150839,0.129291,9.771035,0.157649,0.120965,9.804637,-0.002426,0.001368,-0.002073,11.34,1.2,-84.24,279.3676,-0.7094,-0.9229,55.814068,37.500385,210.7,NaN,,12.078001,,0 / 0,,1460,2021-05-02 17:08:42:702
0.191542,0.110137,9.785401,0.157649,0.120965,9.804637,-0.001815,-0.003519,-2.41E-4,11.34,1.2,-84.24,279.3676,-0.7094,-0.9229,55.814068,37.500385,210.7,NaN,,12.078001,,0 / 0,,1470,2021-05-02 17:08:42:712
0.191542,0.110137,9.785401,0.156972,0.120716,9.804651,0.001239,0.001979,9.81E-4,10.86,1.98,-84.24,279.3676,-0.7094,-0.9229,55.814068,37.500385,210.7,NaN,,12.078001,,0 / 0,,1480,2021-05-02 17:08:42:722
0.174782,0.102954,9.783007,0.156972,0.120716,9.804651,-0.001204,-4.64E-4,-8.52E-4,11.4,1.68,-84.42,283.799,-0.7053,-0.9172,55.814068,37.500385,210.7,NaN,,12.078001,,0 / 0,,1490,2021-05-02 17:08:42:732
0.162811,0.114925,9.79019,0.157254,0.120234,9.804651,-5.93E-4,7.57E-4,-0.002684,11.4,1.68,-84.42,283.799,-0.7053,-0.9172,55.814068,37.500385,210.7,NaN,,12.078001,,0 / 0,,1500,2021-05-02 17:08:42:742
0.158022,0.117319,9.785401,0.157254,0.120234,9.804651,-5.93E-4,1.47E-4,-0.002073,11.4,1.68,-84.42,283.799,-0.7053,-0.9172,55.814068,37.500385,210.7,NaN,,12.078001,,0 / 0,,1510,2021-05-02 17:08:42:752
0.158022,0.117319,9.785401,0.157861,0.119683,9.804649,-5.93E-4,1.47E-4,-0.002073,11.1,1.5,-84.3,283.799,-0.7053,-0.9172,55.814068,37.500385,210.7,NaN,,12.078001,,0 / 0,,1520,2021-05-02 17:08:42:762
0.160416,0.129291,9.780613,0.157861,0.119683,9.804649,0.00185,-4.64E-4,-0.001462,11.1,1.5,-84.3,283.799,-0.7053,-0.9172,55.814068,37.500385,210.7,NaN,,12.078001,,0 / 0,,1531,2021-05-02 17:08:42:773
0.138868,0.124502,9.79019,0.157821,0.119691,9.80465,0.001239,0.001368,0.002203,10.8,1.08,-84.42,279.3012,-0.6993,-0.9224,55.814068,37.500385,210.7,NaN,,12.078001,,0 / 0,,1541,2021-05-02 17:08:42:783
0.150839,0.107742,9.792584,0.158097,0.119689,9.804646,1.8E-5,-0.001686,0.001592,10.98,0.9,-84.78,279.3012,-0.6993,-0.9224,55.814068,37.500385,210.7,NaN,,12.078001,,0 / 0,,1550,2021-05-02 17:08:42:792
0.162811,0.131685,9.79019,0.158097,0.119689,9.804646,-0.003037,-0.004129,-0.002073,10.98,0.9,-84.78,279.3012,-0.6993,-0.9224,55.814068,37.500385,210.7,NaN,,12.078001,,0 / 0,,1560,2021-05-02 17:08:42:802
0.162811,0.131685,9.79019,0.158097,0.119689,9.804646,-0.002426,-0.001075,-2.41E-4,10.98,0.9,-84.78,279.3012,-0.6993,-0.9224,55.814068,37.500385,210.7,NaN,,12.078001,,0 / 0,,1570,2021-05-02 17:08:42:812
0.169994,0.107742,9.79019,0.157291,0.119477,9.804661,1.8E-5,-4.64E-4,3.7E-4,11.34,1.68,-84.96,283.7862,-0.6993,-0.9238,55.814068,37.500385,210.7,NaN,,12.078001,,0 / 0,,1580,2021-05-02 17:08:42:822
0.158022,0.112531,9.799767,0.157291,0.119477,9.804661,0.001239,0.001979,3.7E-4,11.34,1.68,-84.96,283.7862,-0.6993,-0.9238,55.814068,37.500385,210.7,NaN,,12.078001,,0 / 0,,1591,2021-05-02 17:08:42:833
0.167599,0.138868,9.794978,0.157801,0.118941,9.804659,0.001239,0.001979,3.7E-4,11.94,2.22,-84.54,283.7862,-0.6993,-0.9238,55.814068,37.500385,210.7,NaN,,12.078001,,0 / 0,,1600,2021-05-02 17:08:42:842
0.148445,0.119714,9.794978,0.157801,0.118941,9.804659,0.001239,0.001979,3.7E-4,11.94,2.22,-84.54,283.7862,-0.6993,-0.9238,55.814068,37.500385,210.7,NaN,,12.078001,,0 / 0,,1610,2021-05-02 17:08:42:852
0.148445,0.119714,9.794978,0.158593,0.11943,9.80464,1.8E-5,-0.001075,-2.41E-4,12.12,1.68,-84.66,282.7656,-0.6949,-0.9221,55.814068,37.500385,210.7,NaN,,12.078001,,0 / 0,,1620,2021-05-02 17:08:42:862
0.155628,0.117319,9.792584,0.159581,0.118897,9.80463,-0.001815,1.47E-4,-2.41E-4,11.76,0.84,-84.66,282.7656,-0.6949,-0.9221,55.814068,37.500385,210.7,NaN,,12.078001,,0 / 0,,1631,2021-05-02 17:08:42:873
0.148445,0.138868,9.802161,0.159581,0.118897,9.80463,-0.001815,-4.64E-4,-0.002684,11.76,0.84,-84.66,282.7656,-0.6949,-0.9221,55.814068,37.500385,210.7,NaN,,12.078001,,0 / 0,,1640,2021-05-02 17:08:42:882
0.169994,0.114925,9.780613,0.159581,0.118897,9.80463,-5.93E-4,1.47E-4,-8.52E-4,11.7,1.26,-84.78,282.7656,-0.6949,-0.9221,55.814068,37.500385,210.7,NaN,,12.078001,,0 / 0,,1650,2021-05-02 17:08:42:892
0.169994,0.114925,9.780613,0.160089,0.118977,9.804622,6.29E-4,7.57E-4,-8.52E-4,11.7,1.26,-84.12,278.577,-0.6947,-0.9325,55.814068,37.500385,210.7,NaN,,12.078001,,0 / 0,,1660,2021-05-02 17:08:42:902
0.167599,0.134079,9.794978,0.160089,0.118977,9.804622,6.29E-4,1.47E-4,9.81E-4,11.7,1.26,-84.12,278.577,-0.6947,-0.9325,55.814068,37.500385,210.7,NaN,,12.078001,,0 / 0,,1670,2021-05-02 17:08:42:912
0.146051,0.114925,9.797373,0.160082,0.119317,9.804617,6.29E-4,-0.001686,-0.002684,11.64,1.5,-84.12,278.577,-0.6947,-0.9325,55.814068,37.500385,210.7,NaN,,12.078001,,0 / 0,,1681,2021-05-02 17:08:42:923
0.169994,0.117319,9.794978,0.159315,0.119758,9.804625,-0.001815,-0.001686,-0.003295,10.92,1.2,-84.3,279.2729,-0.6971,-0.9354,55.814068,37.500385,210.7,NaN,,12.078001,,0 / 0,,1691,2021-05-02 17:08:42:933
0.179571,0.114925,9.797373,0.159315,0.119758,9.804625,6.29E-4,-0.002908,-0.002073,10.92,1.2,-84.3,279.2729,-0.6971,-0.9354,55.814068,37.500385,210.7,NaN,,12.078001,,0 / 0,,1700,2021-05-02 17:08:42:942
0.179571,0.114925,9.797373,0.159315,0.119758,9.804625,6.29E-4,1.47E-4,-0.001462,10.92,1.2,-84.3,279.2729,-0.6971,-0.9354,55.814068,37.500385,210.7,NaN,,12.078001,,0 / 0,,1711,2021-05-02 17:08:42:953
0.172388,0.122108,9.80695,0.159593,0.119518,9.804623,0.002461,-4.64E-4,-8.52E-4,10.98,1.74,-84.6,279.2729,-0.6971,-0.9354,55.814068,37.500385,210.7,NaN,,12.078001,,0 / 0,,1721,2021-05-02 17:08:42:963
0.191542,0.112531,9.794978,0.160616,0.119596,9.804605,6.29E-4,7.57E-4,-0.002073,11.52,1.86,-84.3,282.7368,-0.6983,-0.9325,55.814068,37.500385,210.7,NaN,,12.078001,,0 / 0,,1730,2021-05-02 17:08:42:972
0.193936,0.112531,9.802161,0.160616,0.119596,9.804605,-0.001204,-0.001075,9.81E-4,11.52,1.86,-84.3,282.7368,-0.6983,-0.9325,55.814068,37.500385,210.7,NaN,,12.078001,,0 / 0,,1740,2021-05-02 17:08:42:982
0.174782,0.110137,9.77343,0.161131,0.119454,9.804599,-0.001204,0.001979,-0.003295,11.28,1.5,-84.24,282.7368,-0.6983,-0.9325,55.814068,37.500385,210.7,NaN,,12.078001,,0 / 0,,1750,2021-05-02 17:08:42:992
0.174782,0.110137,9.77343,0.163042,0.119632,9.804564,-0.001204,-0.001686,3.7E-4,11.34,1.62,-84.36,282.7368,-0.6983,-0.9325,55.814068,37.500385,210.7,NaN,,12.078001,,0 / 0,,1761,2021-05-02 17:08:43:003
0.158022,0.131685,9.79019,0.163042,0.119632,9.804564,-0.001204,-0.001686,3.7E-4,11.34,1.62,-84.36,282.7368,-0.6983,-0.9325,55.814068,37.500385,210.7,NaN,,12.078001,,0 / 0,,1770,2021-05-02 17:08:43:012
0.165205,0.110137,9.785401,0.163733,0.119484,9.804555,-0.003037,7.57E-4,-0.004517,10.68,1.38,-83.94,279.2662,-0.699,-0.9527,55.814068,37.500385,210.7,NaN,,12.078001,,0 / 0,,1780,2021-05-02 17:08:43:022
0.165205,0.110137,9.785401,0.163733,0.119484,9.804555,-5.93E-4,-4.64E-4,-0.001462,10.68,1.38,-83.94,279.2662,-0.699,-0.9527,55.814068,37.500385,210.7,NaN,,12.078001,,0 / 0,,1790,2021-05-02 17:08:43:032
0.143657,0.114925,9.794978,0.164092,0.119391,9.80455,1.8E-5,-0.002908,-0.001462,9.66,1.26,-83.7,279.2662,-0.699,-0.9527,55.814068,37.500385,210.7,NaN,,12.078001,,0 / 0,,1800,2021-05-02 17:08:43:042
0.141262,0.114925,9.778218,0.164109,0.119391,9.80455,1.8E-5,-0.001075,0.001592,10.26,1.02,-84.54,280.0912,-0.6976,-0.9588,55.814068,37.500385,210.7,NaN,,12.078001,,0 / 0,,1811,2021-05-02 17:08:43:053
0.174782,0.112531,9.783007,0.164109,0.119391,9.80455,-0.001204,1.47E-4,-0.002684,10.26,1.02,-84.54,280.0912,-0.6976,-0.9588,55.814068,37.500385,210.7,NaN,,12.078001,,0 / 0,,1824,2021-05-02 17:08:43:066
0.174782,0.112531,9.783007,0.164109,0.119391,9.80455,1.8E-5,0.001368,3.7E-4,10.26,1.02,-84.54,280.0912,-0.6976,-0.9588,55.814068,37.500385,210.7,NaN,,12.078001,,0 / 0,,1831,2021-05-02 17:08:43:073
0.160416,0.112531,9.785401,0.164209,0.11916,9.804551,-0.001204,-0.001075,3.7E-4,10.92,1.14,-84.6,280.0912,-0.6976,-0.9588,55.814068,37.500385,210.7,NaN,,12.078001,,0 / 0,,1841,2021-05-02 17:08:43:083
0.160416,0.124502,9.787795,0.164445,0.118788,9.804552,-0.001815,7.57E-4,-8.52E-4,11.16,1.38,-84.06,279.2407,-0.6962,-0.9595,55.814068,37.500385,210.7,NaN,,12.078001,,0 / 0,,1850,2021-05-02 17:08:43:092
0.160416,0.105348,9.797373,0.164445,0.118788,9.804552,-5.93E-4,7.57E-4,-0.001462,11.16,1.38,-84.06,279.2407,-0.6962,-0.9595,55.814068,37.500385,210.7,NaN,,12.078001,,0 / 0,,1861,2021-05-02 17:08:43:103
0.160416,0.105348,9.797373,0.164445,0.118788,9.804552,-5.93E-4,7.57E-4,-0.001462,11.16,1.38,-84.06,279.2407,-0.6962,-0.9595,55.814068,37.500385,210.7,NaN,,12.078001,,0 / 0,,1870,2021-05-02 17:08:43:112
0.167599,0.114925,9.783007,0.164312,0.118076,9.804563,0.001239,-0.002297,-8.52E-4,11.16,1.2,-84.06,279.2407,-0.6962,-0.9595,55.814068,37.500385,210.7,NaN,,12.078001,,0 / 0,,1880,2021-05-02 17:08:43:122
0.169994,0.114925,9.79019,0.164312,0.118076,9.804563,-5.93E-4,0.001979,-0.002073,11.16,1.2,-84.06,279.2407,-0.6962,-0.9595,55.814068,37.500385,210.7,NaN,,12.078001,,0 / 0,,1891,2021-05-02 17:08:43:133
0.169994,0.114925,9.79019,0.164231,0.118328,9.804561,1.8E-5,-0.001075,-2.41E-4,11.1,1.56,-84.06,283.6431,-0.6914,-0.9596,55.814068,37.500385,210.7,NaN,,12.078001,,0 / 0,,1900,2021-05-02 17:08:43:142
0.169994,0.102954,9.792584,0.164231,0.118328,9.804561,1.8E-5,0.001979,3.7E-4,11.58,2.04,-84.12,283.6431,-0.6914,-0.9596,55.814068,37.500385,210.7,NaN,,12.078001,,0 / 0,,1910,2021-05-02 17:08:43:152
0.169994,0.102954,9.792584,0.164498,0.11815,9.804558,0.003072,7.57E-4,0.002814,11.58,2.04,-84.12,283.6431,-0.6914,-0.9596,55.814068,37.500385,210.7,NaN,,12.078001,,0 / 0,,1920,2021-05-02 17:08:43:162
0.167599,0.122108,9.771035,0.164419,0.118282,9.804558,1.8E-5,-0.002908,9.81E-4,11.16,1.92,-83.94,283.6431,-0.6914,-0.9596,55.814068,37.500385,210.7,NaN,,12.078001,,0 / 0,,1930,2021-05-02 17:08:43:172
0.146051,0.110137,9.794978,0.164419,0.118282,9.804558,-0.002426,-0.001686,9.81E-4,11.16,1.92,-83.94,283.6431,-0.6914,-0.9596,55.814068,37.500385,210.7,NaN,,12.078001,,0 / 0,,1940,2021-05-02 17:08:43:182
0.146051,0.110137,9.794978,0.16451,0.118087,9.80456,-0.002426,-0.001686,9.81E-4,11.22,1.5,-84.12,283.6397,-0.6911,-0.9607,55.814068,37.500385,210.7,NaN,,12.078001,,0 / 0,,1950,2021-05-02 17:08:43:192
0.179571,0.107742,9.794978,0.164008,0.118069,9.804567,-5.93E-4,-0.002297,-2.41E-4,11.46,1.32,-84.9,283.6397,-0.6911,-0.9607,55.814068,37.500385,210.7,NaN,,12.078001,,0 / 0,,1960,2021-05-02 17:08:43:202
0.181965,0.124502,9.792584,0.164008,0.118069,9.804567,0.00185,0.001368,-2.41E-4,11.46,1.32,-84.9,283.6397,-0.6911,-0.9607,55.814068,37.500385,210.7,NaN,,12.078001,,0 / 0,,1970,2021-05-02 17:08:43:212
0.169994,0.119714,9.794978,0.164108,0.117956,9.804567,0.00185,1.47E-4,0.002203,11.16,1.5,-85.2,283.6397,-0.6911,-0.9607,55.814068,37.500385,210.7,NaN,,12.078001,,0 / 0,,1980,2021-05-02 17:08:43:222
0.160416,0.124502,9.794978,0.164195,0.11826,9.804563,6.29E-4,-0.002908,-8.52E-4,11.4,1.44,-84.6,279.2369,-0.6892,-0.9589,55.814068,37.500385,210.7,NaN,,12.078001,,0 / 0,,1990,2021-05-02 17:08:43:232
0.160416,0.124502,9.794978,0.164195,0.11826,9.804563,-5.93E-4,0.001368,-8.52E-4,11.4,1.44,-84.6,279.2369,-0.6892,-0.9589,55.814068,37.500385,210.7,NaN,,12.078001,,0 / 0,,2000,2021-05-02 17:08:43:242
0.165205,0.124502,9.780613,0.164195,0.11826,9.804563,6.29E-4,7.57E-4,-2.41E-4,11.4,1.44,-84.6,279.2369,-0.6892,-0.9589,55.814068,37.500385,210.7,NaN,,12.078001,,0 / 0,,2010,2021-05-02 17:08:43:252
0.165205,0.126897,9.785401,0.164214,0.118257,9.804563,0.001239,1.47E-4,-2.41E-4,11.04,1.62,-84.06,279.2369,-0.6892,-0.9589,55.814068,37.500385,210.7,NaN,,12.078001,,0 / 0,,2020,2021-05-02 17:08:43:262
0.169994,0.134079,9.780613,0.164443,0.119215,9.804546,1.8E-5,-0.001075,-2.41E-4,10.56,1.08,-84.12,279.2059,-0.6909,-0.9595,55.814068,37.500385,210.7,NaN,,12.078001,,0 / 0,,2030,2021-05-02 17:08:43:272
0.169994,0.134079,9.780613,0.164443,0.119215,9.804546,0.001239,-4.64E-4,-0.001462,10.56,1.08,-84.12,279.2059,-0.6909,-0.9595,55.814068,37.500385,210.7,NaN,,12.078001,,0 / 0,,2041,2021-05-02 17:08:43:283
0.162811,0.105348,9.783007,0.164779,0.119225,9.804541,0.001239,-4.64E-4,-0.001462,10.92,0.84,-84.42,279.2059,-0.6909,-0.9595,55.814068,37.500385,210.7,NaN,,12.078001,,0 / 0,,2051,2021-05-02 17:08:43:293
0.172388,0.114925,9.783007,0.164779,0.119225,9.804541,1.8E-5,-4.64E-4,-0.002073,10.92,0.84,-84.42,279.2059,-0.6909,-0.9595,55.814068,37.500385,210.7,NaN,,12.078001,,0 / 0,,2061,2021-05-02 17:08:43:303
0.172388,0.114925,9.783007,0.164779,0.119225,9.804541,1.8E-5,-4.64E-4,-0.002073,10.92,0.84,-84.42,279.2059,-0.6909,-0.9595,55.814068,37.500385,210.7,NaN,,12.078001,,0 / 0,,2070,2021-05-02 17:08:43:312
0.172388,0.126897,9.785401,0.165011,0.11959,9.804532,1.8E-5,-0.001686,-0.002684,11.34,1.86,-84.06,283.6716,-0.6966,-0.9628,55.814068,37.500385,210.7,NaN,,12.078001,,0 / 0,,2080,2021-05-02 17:08:43:322
0.179571,0.110137,9.787795,0.165011,0.11959,9.804532,0.00185,0.005644,-0.002073,11.34,1.86,-84.06,283.6716,-0.6966,-0.9628,55.814068,37.500385,210.7,NaN,,12.078001,,0 / 0,,2090,2021-05-02 17:08:43:332
0.146051,0.117319,9.775824,0.165256,0.119794,9.804525,0.001239,7.57E-4,-0.001462,11.28,2.4,-83.1,283.6716,-0.6966,-0.9628,55.814068,37.500385,210.7,NaN,,12.078001,,0 / 0,,2100,2021-05-02 17:08:43:342
0.155628,0.124502,9.797373,0.16585,0.120676,9.804505,0.00185,-0.001075,-2.41E-4,10.8,1.14,-84.0,279.2584,-0.6999,-0.9656,55.814068,37.500385,210.7,NaN,,12.078001,,0 / 0,,2110,2021-05-02 17:08:43:352
0.155628,0.124502,9.797373,0.16585,0.120676,9.804505,6.29E-4,1.47E-4,0.001592,10.8,1.14,-84.0,279.2584,-0.6999,-0.9656,55.814068,37.500385,210.7,NaN,,12.078001,,0 / 0,,2120,2021-05-02 17:08:43:362
0.155628,0.112531,9.77343,0.165591,0.120795,9.804508,6.29E-4,-0.001686,3.7E-4,10.8,1.14,-84.0,279.2584,-0.6999,-0.9656,55.814068,37.500385,210.7,NaN,,12.078001,,0 / 0,,2130,2021-05-02 17:08:43:372
0.172388,0.131685,9.778218,0.165591,0.120795,9.804508,6.29E-4,7.57E-4,-0.001462,10.92,0.12,-84.6,279.2584,-0.6999,-0.9656,55.814068,37.500385,210.7,NaN,,12.078001,,0 / 0,,2140,2021-05-02 17:08:43:382
0.162811,0.126897,9.787795,0.1648,0.121339,9.804515,-5.93E-4,-0.001075,0.001592,11.76,1.02,-84.24,278.6357,-0.7089,-0.963,55.814068,37.500385,210.7,NaN,,12.078001,,0 / 0,,2150,2021-05-02 17:08:43:392
0.162811,0.126897,9.787795,0.163503,0.121779,9.804531,-5.93E-4,-4.64E-4,3.7E-4,11.76,1.02,-84.24,278.6357,-0.7089,-0.963,55.814068,37.500385,210.7,NaN,,12.078001,,0 / 0,,2160,2021-05-02 17:08:43:402
0.177176,0.124502,9.809344,0.163503,0.121779,9.804531,-5.93E-4,-4.64E-4,3.7E-4,11.76,1.02,-84.24,278.6357,-0.7089,-0.963,55.814068,37.500385,210.7,NaN,,12.078001,,0 / 0,,2170,2021-05-02 17:08:43:412
0.179571,0.117319,9.775824,0.163604,0.121663,9.804531,-5.93E-4,7.57E-4,3.7E-4,11.7,1.2,-84.42,278.6357,-0.7089,-0.963,55.814068,37.500385,210.7,NaN,,12.078001,,0 / 0,,2180,2021-05-02 17:08:43:422
0.172388,0.117319,9.797373,0.163604,0.121663,9.804531,1.8E-5,1.47E-4,-0.002073,11.7,1.2,-84.42,278.6357,-0.7089,-0.963,55.814068,37.500385,210.7,NaN,,12.078001,,0 / 0,,2190,2021-05-02 17:08:43:432
0.172388,0.117319,9.797373,0.164209,0.121728,9.80452,0.002461,-4.64E-4,0.002814,11.46,1.08,-83.94,279.3407,-0.7108,-0.956,55.814068,37.500385,210.7,NaN,,12.078001,,0 / 0,,2200,2021-05-02 17:08:43:442
0.189148,0.117319,9.763853,0.164209,0.121728,9.80452,-0.003647,-4.64E-4,-0.001462,11.46,1.08,-83.94,279.3407,-0.7108,-0.956,55.814068,37.500385,210.7,NaN,,12.078001,,0 / 0,,2210,2021-05-02 17:08:43:452
0.177176,0.110137,9.797373,0.164713,0.121672,9.804512,1.8E-5,7.57E-4,3.7E-4,10.74,1.26,-83.34,279.3407,-0.7108,-0.956,55.814068,37.500385,210.7,NaN,,12.078001,,0 / 0,,2220,2021-05-02 17:08:43:462
0.184359,0.117319,9.778218,0.165799,0.121122,9.804501,-0.002426,0.004423,-0.004517,10.44,1.32,-83.58,280.1367,-0.7109,-0.9625,55.814068,37.500385,210.7,NaN,,12.078001,,0 / 0,,2230,2021-05-02 17:08:43:472
0.150839,0.126897,9.787795,0.165799,0.121122,9.804501,0.00185,-0.00474,-2.41E-4,10.44,1.32,-83.58,280.1367,-0.7109,-0.9625,55.814068,37.500385,210.7,NaN,,12.078001,,0 / 0,,2240,2021-05-02 17:08:43:482
0.150839,0.126897,9.787795,0.165799,0.121122,9.804501,0.001239,-4.64E-4,-2.41E-4,10.44,1.32,-83.58,280.1367,-0.7109,-0.9625,55.814068,37.500385,210.7,NaN,,12.078001,,0 / 0,,2250,2021-05-02 17:08:43:492
0.162811,0.119714,9.785401,0.166211,0.121121,9.804494,-0.001204,-4.64E-4,-0.002684,10.86,1.68,-83.52,280.1367,-0.7109,-0.9625,55.814068,37.500385,210.7,NaN,,12.078001,,0 / 0,,2261,2021-05-02 17:08:43:503
0.169994,0.110137,9.780613,0.166646,0.120736,9.804491,-0.001815,-0.001686,-0.002684,11.28,1.26,-83.46,279.2602,-0.7077,-0.9712,55.814068,37.500385,210.7,NaN,,12.078001,,0 / 0,,2270,2021-05-02 17:08:43:512
0.158022,0.129291,9.794978,0.166646,0.120736,9.804491,0.001239,-0.001075,-8.52E-4,11.28,1.26,-83.46,279.2602,-0.7077,-0.9712,55.814068,37.500385,210.7,NaN,,12.078001,,0 / 0,,2280,2021-05-02 17:08:43:522
0.158022,0.129291,9.794978,0.166646,0.120736,9.804491,-5.93E-4,1.47E-4,0.003425,11.28,1.26,-83.46,279.2602,-0.7077,-0.9712,55.814068,37.500385,210.7,NaN,,12.078001,,0 / 0,,2290,2021-05-02 17:08:43:532
0.174782,0.122108,9.775824,0.167207,0.120391,9.804485,-5.93E-4,0.001979,3.7E-4,11.58,1.32,-84.06,279.2602,-0.7077,-0.9712,55.814068,37.500385,210.7,NaN,,12.078001,,0 / 0,,2300,2021-05-02 17:08:43:542
0.172388,0.134079,9.787795,0.167207,0.120391,9.804485,-0.001815,-0.001686,-2.41E-4,11.58,1.32,-84.06,279.2602,-0.7077,-0.9712,55.814068,37.500385,210.7,NaN,,12.078001,,0 / 0,,2311,2021-05-02 17:08:43:553
0.174782,0.110137,9.778218,0.167776,0.120103,9.80448,-0.001204,-0.001075,-2.41E-4,11.34,1.74,-84.36,283.6769,-0.7017,-0.9804,55.814068,37.500385,210.7,NaN,,12.078001,,0 / 0,,2320,2021-05-02 17:08:43:562
0.167599,0.114925,9.778218,0.167816,0.119978,9.804481,-0.001815,7.57E-4,3.7E-4,11.34,1.38,-84.24,283.6769,-0.7017,-0.9804,55.814068,37.500385,210.7,NaN,,12.078001,,0 / 0,,2330,2021-05-02 17:08:43:572
0.167599,0.114925,9.778218,0.167816,0.119978,9.804481,-0.001815,7.57E-4,3.7E-4,11.34,1.38,-84.24,283.6769,-0.7017,-0.9804,55.814068,37.500385,210.7,NaN,,12.078001,,0 / 0,,2341,2021-05-02 17:08:43:583
0.162811,0.119714,9.792584,0.168327,0.119818,9.804474,1.8E-5,1.47E-4,-0.001462,11.34,1.56,-84.0,283.6769,-0.7017,-0.9804,55.814068,37.500385,210.7,NaN,,12.078001,,0 / 0,,2351,2021-05-02 17:08:43:593
0.143657,0.112531,9.77343,0.168238,0.119893,9.804474,-0.002426,1.47E-4,-0.001462,11.58,2.22,-83.82,282.6782,-0.7001,-0.9836,55.814068,37.500385,210.7,NaN,,12.078001,,0 / 0,,2360,2021-05-02 17:08:43:602
0.143657,0.112531,9.77343,0.168238,0.119893,9.804474,-0.001204,7.57E-4,-0.001462,11.58,2.22,-83.82,282.6782,-0.7001,-0.9836,55.814068,37.500385,210.7,NaN,,12.078001,,0 / 0,,2371,2021-05-02 17:08:43:613
0.167599,0.110137,9.780613,0.168338,0.119896,9.804472,1.8E-5,-0.003519,-0.001462,11.28,2.1,-84.24,282.6782,-0.7001,-0.9836,55.814068,37.500385,210.7,NaN,,12.078001,,0 / 0,,2380,2021-05-02 17:08:43:622
0.174782,0.122108,9.794978,0.168338,0.119896,9.804472,-0.001204,0.005034,3.7E-4,10.98,1.68,-84.06,282.6782,-0.7001,-0.9836,55.814068,37.500385,210.7,NaN,,12.078001,,0 / 0,,2390,2021-05-02 17:08:43:632
0.181965,0.124502,9.787795,0.168303,0.119427,9.804479,1.8E-5,-4.64E-4,3.7E-4,10.98,1.68,-84.06,282.6782,-0.7001,-0.9836,55.814068,37.500385,210.7,NaN,,12.078001,,0 / 0,,2401,2021-05-02 17:08:43:643
0.146051,0.126897,9.775824,0.168393,0.119374,9.804478,1.8E-5,1.47E-4,-0.002684,10.5,1.44,-82.92,279.1829,-0.6978,-0.9834,55.814068,37.500385,210.7,NaN,,12.078001,,0 / 0,,2412,2021-05-02 17:08:43:654
0.146051,0.126897,9.775824,0.168393,0.119374,9.804478,-0.001815,-0.002908,-8.52E-4,10.5,1.44,-82.92,279.1829,-0.6978,-0.9834,55.814068,37.500385,210.7,NaN,,12.078001,,0 / 0,,2420,2021-05-02 17:08:43:662
0.189148,0.114925,9.816526,0.168393,0.119374,9.804478,-0.001204,1.47E-4,3.7E-4,10.5,1.44,-82.92,279.1829,-0.6978,-0.9834,55.814068,37.500385,210.7,NaN,,12.078001,,0 / 0,,2430,2021-05-02 17:08:43:672
0.165205,0.110137,9.775824,0.167595,0.11934,9.804492,1.8E-5,0.001979,9.81E-4,10.74,1.32,-83.46,279.1829,-0.6978,-0.9834,55.814068,37.500385,210.7,NaN,,12.078001,,0 / 0,,2441,2021-05-02 17:08:43:683
0.172388,0.119714,9.775824,0.167388,0.119294,9.804496,1.8E-5,1.47E-4,-2.41E-4,11.16,1.5,-84.12,283.6502,-0.6973,-0.9793,55.814068,37.500385,210.7,NaN,,12.078001,,0 / 0,,2450,2021-05-02 17:08:43:692
0.167599,0.131685,9.797373,0.167388,0.119294,9.804496,1.8E-5,-0.002297,-0.002073,11.16,1.5,-84.12,283.6502,-0.6973,-0.9793,55.814068,37.500385,210.7,NaN,,12.078001,,0 / 0,,2461,2021-05-02 17:08:43:703
0.167599,0.131685,9.797373,0.166633,0.119671,9.804503,-5.93E-4,-4.64E-4,9.81E-4,11.34,0.96,-84.36,283.6502,-0.6973,-0.9793,55.814068,37.500385,210.7,NaN,,12.078001,,0 / 0,,2470,2021-05-02 17:08:43:712
0.162811,0.119714,9.797373,0.166633,0.119671,9.804503,0.00185,0.001979,-2.41E-4,11.34,0.96,-84.36,283.6502,-0.6973,-0.9793,55.814068,37.500385,210.7,NaN,,12.078001,,0 / 0,,2480,2021-05-02 17:08:43:722
0.160416,0.102954,9.802161,0.166633,0.119671,9.804503,0.00185,0.001979,-2.41E-4,11.34,0.96,-84.36,283.6502,-0.6973,-0.9793,55.814068,37.500385,210.7,NaN,,12.078001,,0 / 0,,2491,2021-05-02 17:08:43:733
0.165205,0.122108,9.775824,0.16605,0.120023,9.80451,-5.93E-4,-0.002908,-0.003906,11.82,1.02,-83.76,278.5662,-0.6992,-0.9737,55.814068,37.500385,210.7,NaN,,12.078001,,0 / 0,,2501,2021-05-02 17:08:43:743
0.165205,0.122108,9.775824,0.16605,0.120023,9.80451,1.8E-5,-0.001075,-0.002073,11.76,1.92,-84.42,278.5662,-0.6992,-0.9737,55.814068,37.500385,210.7,NaN,,12.078001,,0 / 0,,2511,2021-05-02 17:08:43:753
0.155628,0.122108,9.823709,0.166042,0.11987,9.804512,-0.001815,-0.005962,-0.002073,11.76,1.92,-84.42,278.5662,-0.6992,-0.9737,55.814068,37.500385,210.7,NaN,,12.078001,,0 / 0,,2520,2021-05-02 17:08:43:762
0.174782,0.124502,9.794978,0.165703,0.119747,9.804519,-0.002426,0.001979,-0.001462,11.7,1.56,-84.42,282.698,-0.7004,-0.9702,55.814068,37.500385,210.7,NaN,,12.078001,,0 / 0,,2530,2021-05-02 17:08:43:772
0.174782,0.117319,9.785401,0.165703,0.119747,9.804519,-0.002426,0.001979,-0.001462,11.7,1.56,-84.42,282.698,-0.7004,-0.9702,55.814068,37.500385,210.7,NaN,,12.078001,,0 / 0,,2541,2021-05-02 17:08:43:783
0.174782,0.117319,9.785401,0.165703,0.119747,9.804519,0.001239,-4.64E-4,3.7E-4,11.7,1.56,-84.42,282.698,-0.7004,-0.9702,55.814068,37.500385,210.7,NaN,,12.078001,,0 / 0,,2551,2021-05-02 17:08:43:793
0.167599,0.126897,9.775824,0.166174,0.119712,9.804511,0.001239,-0.001686,-0.002684,11.16,0.78,-83.4,282.698,-0.7004,-0.9702,55.814068,37.500385,210.7,NaN,,12.078001,,0 / 0,,2561,2021-05-02 17:08:43:803
0.160416,0.129291,9.778218,0.166321,0.119793,9.804508,-5.93E-4,-0.001686,-0.001462,10.86,1.26,-83.76,279.2494,-0.6994,-0.971,55.814068,37.500385,210.7,NaN,,12.078001,,0 / 0,,2570,2021-05-02 17:08:43:812
0.148445,0.131685,9.79019,0.166321,0.119793,9.804508,0.001239,1.47E-4,-2.41E-4,10.86,1.26,-83.76,279.2494,-0.6994,-0.971,55.814068,37.500385,210.7,NaN,,12.078001,,0 / 0,,2583,2021-05-02 17:08:43:825
0.148445,0.131685,9.79019,0.166321,0.119793,9.804508,0.00185,-0.001686,-0.001462,10.86,1.26,-83.76,279.2494,-0.6994,-0.971,55.814068,37.500385,210.7,NaN,,12.078001,,0 / 0,,2590,2021-05-02 17:08:43:832
0.158022,0.114925,9.775824,0.166468,0.119851,9.804505,0.00185,0.001979,3.7E-4,10.44,1.62,-84.06,279.2494,-0.6994,-0.971,55.814068,37.500385,210.7,NaN,,12.078001,,0 / 0,,2600,2021-05-02 17:08:43:842
0.167599,0.124502,9.785401,0.166468,0.119851,9.804505,6.29E-4,-0.001075,0.001592,10.44,1.62,-84.06,279.2494,-0.6994,-0.971,55.814068,37.500385,210.7,NaN,,12.078001,,0 / 0,,2611,2021-05-02 17:08:43:853
0.155628,0.117319,9.797373,0.166436,0.119918,9.804504,-0.001204,7.57E-4,-0.003295,10.5,1.86,-83.64,283.6794,-0.7002,-0.9727,55.814068,37.500385,210.7,NaN,,12.078001,,0 / 0,,2620,2021-05-02 17:08:43:862
0.174782,0.126897,9.778218,0.166752,0.12005,9.804498,-0.001204,-0.001686,-0.002073,11.52,1.56,-83.7,283.6794,-0.7002,-0.9727,55.814068,37.500385,210.7,NaN,,12.078001,,0 / 0,,2630,2021-05-02 17:08:43:872
0.174782,0.126897,9.778218,0.166752,0.12005,9.804498,0.003072,-0.001686,-8.52E-4,11.52,1.56,-83.7,283.6794,-0.7002,-0.9727,55.814068,37.500385,210.7,NaN,,12.078001,,0 / 0,,2640,2021-05-02 17:08:43:882
0.174782,0.131685,9.780613,0.166202,0.120098,9.804506,-0.001204,-0.002297,-8.52E-4,11.58,1.32,-84.6,278.6194,-0.7014,-0.9744,55.814068,37.500385,210.7,NaN,,12.078001,,0 / 0,,2650,2021-05-02 17:08:43:892
0.167599,0.131685,9.787795,0.166202,0.120098,9.804506,0.00185,-0.001686,3.7E-4,11.58,1.32,-84.6,278.6194,-0.7014,-0.9744,55.814068,37.500385,210.7,NaN,,12.078001,,0 / 0,,2660,2021-05-02 17:08:43:902
0.150839,0.110137,9.797373,0.166202,0.120098,9.804506,0.00185,-0.001686,3.7E-4,11.58,1.32,-84.6,278.6194,-0.7014,-0.9744,55.814068,37.500385,210.7,NaN,,12.078001,,0 / 0,,2670,2021-05-02 17:08:43:912
0.167599,0.112531,9.787795,0.166119,0.120707,9.804501,-0.003037,1.47E-4,-0.002684,10.98,1.5,-84.96,278.6194,-0.7014,-0.9744,55.814068,37.500385,210.7,NaN,,12.078001,,0 / 0,,2681,2021-05-02 17:08:43:923
0.167599,0.112531,9.787795,0.166119,0.120707,9.804501,1.8E-5,1.47E-4,-0.005128,10.98,1.5,-84.96,278.6194,-0.7014,-0.9744,55.814068,37.500385,210.7,NaN,,12.078001,,0 / 0,,2690,2021-05-02 17:08:43:932
0.172388,0.110137,9.804555,0.16608,0.120713,9.804501,-5.93E-4,-0.002908,-2.41E-4,10.62,1.14,-84.84,279.3308,-0.7053,-0.9707,55.814068,37.500385,210.7,NaN,,12.078001,,0 / 0,,2701,2021-05-02 17:08:43:943
0.181965,0.117319,9.79019,0.166289,0.120661,9.804498,-0.001815,-0.001075,-0.003295,10.56,1.2,-84.84,279.3308,-0.7053,-0.9707,55.814068,37.500385,210.7,NaN,,12.078001,,0 / 0,,2711,2021-05-02 17:08:43:953
0.174782,0.119714,9.783007,0.166289,0.120661,9.804498,6.29E-4,1.47E-4,-8.52E-4,10.56,1.2,-84.84,279.3308,-0.7053,-0.9707,55.814068,37.500385,210.7,NaN,,12.078001,,0 / 0,,2720,2021-05-02 17:08:43:962
0.174782,0.119714,9.783007,0.166289,0.120661,9.804498,1.8E-5,-0.002297,-0.003295,10.56,1.2,-84.84,279.3308,-0.7053,-0.9707,55.814068,37.500385,210.7,NaN,,12.078001,,0 / 0,,2730,2021-05-02 17:08:43:972
0.153234,0.119714,9.766247,0.166328,0.120656,9.804498,6.29E-4,1.47E-4,-0.002073,10.2,1.26,-84.66,280.1279,-0.705,-0.9717,55.814068,37.500385,210.7,NaN,,12.078001,,0 / 0,,2740,2021-05-02 17:08:43:982
0.160416,0.129291,9.775824,0.166328,0.120656,9.804498,0.00185,1.47E-4,0.001592,10.2,1.26,-84.66,280.1279,-0.705,-0.9717,55.814068,37.500385,210.7,NaN,,12.078001,,0 / 0,,2750,2021-05-02 17:08:43:992
0.158022,0.114925,9.785401,0.165796,0.119949,9.804515,1.8E-5,-0.001686,-8.52E-4,9.96,1.02,-83.76,280.1279,-0.705,-0.9717,55.814068,37.500385,210.7,NaN,,12.078001,,0 / 0,,2760,2021-05-02 17:08:44:002
0.158022,0.114925,9.785401,0.165525,0.119873,9.804521,0.00185,-0.001686,-0.001462,11.04,1.8,-84.0,283.6892,-0.7008,-0.9688,55.814068,37.500385,210.7,NaN,,12.078001,,0 / 0,,2771,2021-05-02 17:08:44:013
0.174782,0.105348,9.778218,0.165525,0.119873,9.804521,1.8E-5,0.00259,-8.52E-4,11.04,1.8,-84.0,283.6892,-0.7008,-0.9688,55.814068,37.500385,210.7,NaN,,12.078001,,0 / 0,,2781,2021-05-02 17:08:44:023
0.155628,0.131685,9.787795,0.165525,0.119873,9.804521,1.8E-5,0.00259,-8.52E-4,11.04,1.8,-84.0,283.6892,-0.7008,-0.9688,55.814068,37.500385,210.7,NaN,,12.078001,,0 / 0,,2790,2021-05-02 17:08:44:032
0.167599,0.122108,9.799767,0.165172,0.119533,9.80453,6.29E-4,0.001979,-0.002073,11.88,2.04,-84.96,283.6892,-0.7008,-0.9688,55.814068,37.500385,210.7,NaN,,12.078001,,0 / 0,,2801,2021-05-02 17:08:44:043
0.167599,0.122108,9.799767,0.165744,0.119007,9.804527,0.002461,1.47E-4,-0.002684,10.92,1.02,-84.72,279.2672,-0.6953,-0.9685,55.814068,37.500385,210.7,NaN,,12.078001,,0 / 0,,2811,2021-05-02 17:08:44:053
0.169994,0.131685,9.811738,0.165744,0.119007,9.804527,-0.001204,7.57E-4,-8.52E-4,10.92,1.02,-84.72,279.2672,-0.6953,-0.9685,55.814068,37.500385,210.7,NaN,,12.078001,,0 / 0,,2820,2021-05-02 17:08:44:062
0.165205,0.117319,9.766247,0.165428,0.118641,9.804537,-0.001815,0.003201,0.002814,9.9,1.2,-84.54,279.2672,-0.6953,-0.9685,55.814068,37.500385,210.7,NaN,,12.078001,,0 / 0,,2831,2021-05-02 17:08:44:073
0.165205,0.124502,9.802161,0.165428,0.118641,9.804537,-5.93E-4,-0.001075,-2.41E-4,9.9,1.2,-84.54,279.2672,-0.6953,-0.9685,55.814068,37.500385,210.7,NaN,,12.078001,,0 / 0,,2841,2021-05-02 17:08:44:083
0.165205,0.124502,9.802161,0.165428,0.118641,9.804537,-5.93E-4,-0.001075,-8.52E-4,9.9,1.2,-84.54,279.2672,-0.6953,-0.9685,55.814068,37.500385,210.7,NaN,,12.078001,,0 / 0,,2850,2021-05-02 17:08:44:092
0.172388,0.114925,9.797373,0.165459,0.118833,9.804534,1.8E-5,-4.64E-4,-8.52E-4,10.32,1.56,-84.06,284.7894,-0.6932,-0.9666,55.814068,37.500385,210.7,NaN,,12.078001,,0 / 0,,2860,2021-05-02 17:08:44:102
0.177176,0.105348,9.783007,0.165735,0.118714,9.804531,0.001239,-0.001686,0.002814,11.1,1.32,-84.0,284.7894,-0.6932,-0.9666,55.814068,37.500385,210.7,NaN,,12.078001,,0 / 0,,2870,2021-05-02 17:08:44:112
0.160416,0.124502,9.792584,0.165735,0.118714,9.804531,-5.93E-4,-4.64E-4,3.7E-4,11.1,1.32,-84.0,284.7894,-0.6932,-0.9666,55.814068,37.500385,210.7,NaN,,12.078001,,0 / 0,,2880,2021-05-02 17:08:44:122
0.160416,0.124502,9.792584,0.165735,0.118714,9.804531,-5.93E-4,0.00259,-8.52E-4,11.1,1.32,-84.0,284.7894,-0.6932,-0.9666,55.814068,37.500385,210.7,NaN,,12.078001,,0 / 0,,2890,2021-05-02 17:08:44:132
0.177176,0.129291,9.783007,0.167023,0.118453,9.804513,0.002461,-4.64E-4,-0.002073,11.1,1.14,-84.66,279.2559,-0.6936,-0.9684,55.814068,37.500385,210.7,NaN,,12.078001,,0 / 0,,2900,2021-05-02 17:08:44:142
0.158022,0.129291,9.787795,0.167023,0.118453,9.804513,1.8E-5,0.00259,-8.52E-4,11.1,1.14,-84.66,279.2559,-0.6936,-0.9684,55.814068,37.500385,210.7,NaN,,12.078001,,0 / 0,,2910,2021-05-02 17:08:44:152
0.150839,0.122108,9.792584,0.167001,0.118813,9.804508,-0.001204,0.001368,-0.003295,10.86,1.02,-85.08,279.2559,-0.6936,-0.9684,55.814068,37.500385,210.7,NaN,,12.078001,,0 / 0,,2920,2021-05-02 17:08:44:162
0.148445,0.110137,9.780613,0.166694,0.119164,9.80451,-5.93E-4,-0.001075,-0.003295,11.1,1.2,-85.2,279.2517,-0.6942,-0.9758,55.814068,37.500385,210.7,NaN,,12.078001,,0 / 0,,2930,2021-05-02 17:08:44:172
0.148445,0.110137,9.780613,0.166694,0.119164,9.80451,-5.93E-4,-0.001075,-0.003295,11.1,1.2,-85.2,279.2517,-0.6942,-0.9758,55.814068,37.500385,210.7,NaN,,12.078001,,0 / 0,,2940,2021-05-02 17:08:44:182
0.167599,0.131685,9.787795,0.166532,0.119292,9.80451,-0.001815,-0.001075,9.81E-4,10.74,0.9,-84.9,279.2517,-0.6942,-0.9758,55.814068,37.500385,210.7,NaN,,12.078001,,0 / 0,,2951,2021-05-02 17:08:44:193
0.169994,0.119714,9.792584,0.166532,0.119292,9.80451,-0.001815,-0.001075,9.81E-4,10.74,0.9,-84.9,279.2517,-0.6942,-0.9758,55.814068,37.500385,210.7,NaN,,12.078001,,0 / 0,,2960,2021-05-02 17:08:44:202
0.172388,0.126897,9.783007,0.166532,0.119292,9.80451,-0.001204,1.47E-4,-2.41E-4,10.74,0.9,-84.9,279.2517,-0.6942,-0.9758,55.814068,37.500385,210.7,NaN,,12.078001,,0 / 0,,2970,2021-05-02 17:08:44:212
0.172388,0.126897,9.783007,0.166632,0.119296,9.804509,-5.93E-4,-0.001075,-0.002684,10.74,1.2,-84.12,279.231,-0.697,-0.9731,55.814068,37.500385,210.7,NaN,,12.078001,,0 / 0,,2980,2021-05-02 17:08:44:222
0.177176,0.119714,9.804555,0.166632,0.119296,9.804509,-0.001815,0.003201,-0.001462,10.74,1.2,-84.12,279.231,-0.697,-0.9731,55.814068,37.500385,210.7,NaN,,12.078001,,0 / 0,,2990,2021-05-02 17:08:44:232
0.169994,0.117319,9.768641,0.167487,0.119182,9.804496,-0.001204,1.47E-4,9.81E-4,10.98,1.26,-83.64,279.231,-0.697,-0.9731,55.814068,37.500385,210.7,NaN,,12.078001,,0 / 0,,3000,2021-05-02 17:08:44:242
0.167599,0.131685,9.780613,0.167656,0.119869,9.804484,-5.93E-4,0.00259,-0.003295,10.86,0.84,-84.54,279.2629,-0.6963,-0.9787,55.814068,37.500385,210.7,NaN,,12.078001,,0 / 0,,3010,2021-05-02 17:08:44:252
0.172388,0.117319,9.771035,0.167656,0.119869,9.804484,-0.001815,7.57E-4,-0.002073,10.86,0.84,-84.54,279.2629,-0.6963,-0.9787,55.814068,37.500385,210.7,NaN,,12.078001,,0 / 0,,3020,2021-05-02 17:08:44:262
0.172388,0.117319,9.771035,0.167656,0.119869,9.804484,-0.002426,-0.004129,-0.002073,10.86,0.84,-84.54,279.2629,-0.6963,-0.9787,55.814068,37.500385,210.7,NaN,,12.078001,,0 / 0,,3030,2021-05-02 17:08:44:272
0.150839,0.122108,9.780613,0.167634,0.12011,9.804482,-0.001204,-0.002908,-0.002684,10.86,1.02,-84.54,279.2629,-0.6963,-0.9787,55.814068,37.500385,210.7,NaN,,12.078001,,0 / 0,,3040,2021-05-02 17:08:44:282
0.184359,0.119714,9.787795,0.167616,0.120229,9.804481,-0.002426,1.47E-4,-0.001462,10.92,1.08,-83.34,279.213,-0.7018,-0.9795,55.814068,37.500385,210.7,NaN,,12.078001,,0 / 0,,3049,2021-05-02 17:08:44:291
0.184359,0.119714,9.787795,0.167616,0.120229,9.804481,0.001239,7.57E-4,-0.004517,10.92,1.08,-83.34,279.213,-0.7018,-0.9795,55.814068,37.500385,210.7,NaN,,12.078001,,0 / 0,,3060,2021-05-02 17:08:44:302
0.174782,0.098165,9.809344,0.168039,0.120638,9.804469,1.8E-5,0.001368,9.81E-4,11.04,0.84,-83.64,279.213,-0.7018,-0.9795,55.814068,37.500385,210.7,NaN,,12.078001,,0 / 0,,3070,2021-05-02 17:08:44:312
0.148445,0.110137,9.802161,0.168181,0.12016,9.804472,6.29E-4,7.57E-4,3.7E-4,10.74,1.5,-83.7,279.213,-0.7018,-0.9795,55.814068,37.500385,210.7,NaN,,12.078001,,0 / 1,,3081,2021-05-02 17:08:44:323
0.148445,0.110137,9.802161,0.168181,0.12016,9.804472,6.29E-4,7.57E-4,3.7E-4,10.74,1.5,-83.7,279.213,-0.7018,-0.9795,55.814068,37.500385,210.7,NaN,,12.078001,,0 / 1,,3090,2021-05-02 17:08:44:332
0.158022,0.136474,9.797373,0.168094,0.120233,9.804473,-0.001204,-4.64E-4,-0.002073,10.74,1.5,-83.94,283.6753,-0.7021,-0.9827,55.814068,37.500385,210.7,NaN,,12.078001,,0 / 1,,3100,2021-05-02 17:08:44:342
0.177176,0.117319,9.785401,0.168094,0.120233,9.804473,0.003683,0.001368,9.81E-4,10.74,1.5,-83.94,283.6753,-0.7021,-0.9827,55.814068,37.500385,210.7,NaN,,12.078001,,0 / 1,,3110,2021-05-02 17:08:44:352
0.155628,0.117319,9.79019,0.168185,0.120061,9.804472,0.001239,7.57E-4,0.001592,11.22,1.68,-84.6,283.6753,-0.7021,-0.9827,55.814068,37.500385,210.7,NaN,,12.078001,,0 / 1,,3120,2021-05-02 17:08:44:362
0.150839,0.131685,9.794978,0.168223,0.120173,9.80447,0.002461,-0.004129,0.001592,11.82,2.04,-84.54,282.7217,-0.7015,-0.9827,55.814068,37.500385,210.7,NaN,,12.078001,,0 / 1,,3131,2021-05-02 17:08:44:373
0.150839,0.131685,9.794978,0.168223,0.120173,9.80447,0.001239,0.003201,-8.52E-4,11.82,2.04,-84.54,282.7217,-0.7015,-0.9827,55.814068,37.500385,210.7,NaN,,12.078001,,0 / 1,,3140,2021-05-02 17:08:44:382
0.158022,0.126897,9.783007,0.168223,0.120173,9.80447,0.001239,-0.002297,-0.002073,11.82,2.04,-84.54,282.7217,-0.7015,-0.9827,55.814068,37.500385,210.7,NaN,,12.078001,,0 / 1,,3150,2021-05-02 17:08:44:392
0.179571,0.131685,9.79019,0.167953,0.120497,9.804472,0.00185,0.001979,9.81E-4,10.86,2.04,-84.0,282.7217,-0.7015,-0.9827,55.814068,37.500385,210.7,NaN,,12.078001,,0 / 1,,3160,2021-05-02 17:08:44:402
0.174782,0.131685,9.787795,0.168163,0.120327,9.80447,0.001239,0.001368,-8.52E-4,9.96,1.8,-84.36,284.8368,-0.704,-0.9814,55.814068,37.500385,210.7,NaN,,12.078001,,0 / 1,,3170,2021-05-02 17:08:44:412
0.174782,0.131685,9.787795,0.168163,0.120327,9.80447,0.001239,0.001368,-8.52E-4,9.96,1.8,-84.36,284.8368,-0.704,-0.9814,55.814068,37.500385,210.7,NaN,,12.078001,,0 / 1,,3180,2021-05-02 17:08:44:422
0.160416,0.119714,9.794978,0.168163,0.120327,9.80447,0.001239,7.57E-4,-2.41E-4,9.96,1.8,-84.36,284.8368,-0.704,-0.9814,55.814068,37.500385,210.7,NaN,,12.078001,,0 / 1,,3190,2021-05-02 17:08:44:432
0.172388,0.122108,9.785401,0.167995,0.120933,9.804466,-0.001815,-0.002908,3.7E-4,11.1,1.92,-84.3,284.8368,-0.704,-0.9814,55.814068,37.500385,210.7,NaN,,12.078001,,0 / 1,,3200,2021-05-02 17:08:44:442
0.162811,0.131685,9.783007,0.167995,0.120933,9.804466,1.8E-5,-0.001686,0.002203,11.1,1.92,-84.3,284.8368,-0.704,-0.9814,55.814068,37.500385,210.7,NaN,,12.078001,,0 / 1,,3211,2021-05-02 17:08:44:453
0.162811,0.117319,9.818921,0.167799,0.121062,9.804467,6.29E-4,-0.002908,-0.002073,10.98,1.44,-84.36,279.2848,-0.7066,-0.9816,55.814068,37.500385,210.7,NaN,,12.078001,,0 / 1,,3220,2021-05-02 17:08:44:462
0.169994,0.117319,9.818921,0.167768,0.121009,9.804469,0.002461,-0.001075,-8.52E-4,10.56,1.26,-84.9,279.2848,-0.7066,-0.9816,55.814068,37.500385,210.7,NaN,,12.078001,,0 / 1,,3230,2021-05-02 17:08:44:472
0.169994,0.117319,9.794978,0.167768,0.121009,9.804469,0.001239,-4.64E-4,-2.41E-4,10.56,1.26,-84.9,279.2848,-0.7066,-0.9816,55.814068,37.500385,210.7,NaN,,12.078001,,0 / 1,,3240,2021-05-02 17:08:44:482
0.167599,0.117319,9.79019,0.168086,0.121021,9.804462,1.8E-5,-0.001686,-0.002684,10.44,1.44,-84.78,280.1314,-0.707,-0.9803,55.814068,37.500385,210.7,NaN,,12.078001,,0 / 1,,3250,2021-05-02 17:08:44:492
0.160416,0.122108,9.794978,0.168086,0.121021,9.804462,0.00185,0.00259,-2.41E-4,10.44,1.44,-84.78,280.1314,-0.707,-0.9803,55.814068,37.500385,210.7,NaN,,12.078001,,0 / 1,,3260,2021-05-02 17:08:44:502
0.160416,0.122108,9.794978,0.168086,0.121021,9.804462,0.001239,-0.002297,3.7E-4,10.44,1.44,-84.78,280.1314,-0.707,-0.9803,55.814068,37.500385,210.7,NaN,,12.078001,,0 / 1,,3270,2021-05-02 17:08:44:512
0.153234,0.124502,9.780613,0.167669,0.121028,9.80447,-5.93E-4,0.003201,-2.41E-4,10.68,1.14,-84.0,280.1314,-0.707,-0.9803,55.814068,37.500385,210.7,NaN,,12.078001,,0 / 1,,3280,2021-05-02 17:08:44:522
0.165205,0.114925,9.802161,0.167669,0.121028,9.80447,1.8E-5,-4.64E-4,-8.52E-4,10.68,1.14,-84.0,280.1314,-0.707,-0.9803,55.814068,37.500385,210.7,NaN,,12.078001,,0 / 1,,3290,2021-05-02 17:08:44:532
0.158022,0.126897,9.79019,0.166992,0.121274,9.804478,-0.002426,7.57E-4,-2.41E-4,11.1,1.2,-83.64,279.2905,-0.7071,-0.9797,55.814068,37.500385,210.7,NaN,,12.078001,,0 / 1,,3300,2021-05-02 17:08:44:542
0.143657,0.114925,9.775824,0.166891,0.121272,9.804481,6.29E-4,-0.002908,-2.41E-4,10.74,1.26,-83.88,279.2905,-0.7071,-0.9797,55.814068,37.500385,210.7,NaN,,12.078001,,0 / 1,,3310,2021-05-02 17:08:44:552
0.143657,0.114925,9.775824,0.166891,0.121272,9.804481,6.29E-4,0.001979,3.7E-4,10.74,1.26,-83.88,279.2905,-0.7071,-0.9797,55.814068,37.500385,210.7,NaN,,12.078001,,0 / 1,,3320,2021-05-02 17:08:44:562
0.169994,0.129291,9.79019,0.166891,0.121272,9.804481,6.29E-4,0.001979,3.7E-4,10.74,1.26,-83.88,279.2905,-0.7071,-0.9797,55.814068,37.500385,210.7,NaN,,12.078001,,0 / 1,,3330,2021-05-02 17:08:44:572
0.165205,0.119714,9.797373,0.166683,0.121463,9.804482,-0.002426,-0.001686,-0.003295,10.44,1.14,-84.36,280.1132,-0.7097,-0.974,55.814068,37.500385,210.7,NaN,,12.078001,,0 / 1,,3340,2021-05-02 17:08:44:582
0.158022,0.134079,9.794978,0.166541,0.121705,9.804481,0.002461,0.00259,-2.41E-4,10.38,1.02,-84.48,280.1132,-0.7097,-0.974,55.814068,37.500385,210.7,NaN,,12.078001,,0 / 1,,3350,2021-05-02 17:08:44:592
0.158022,0.134079,9.794978,0.166541,0.121705,9.804481,-5.93E-4,-0.001686,9.81E-4,10.38,1.02,-84.48,280.1132,-0.7097,-0.974,55.814068,37.500385,210.7,NaN,,12.078001,,0 / 1,,3360,2021-05-02 17:08:44:602
0.167599,0.114925,9.787795,0.166681,0.121701,9.804479,0.00185,-4.64E-4,3.7E-4,10.5,1.08,-84.3,279.3236,-0.7111,-0.9731,55.814068,37.500385,210.7,NaN,,12.078001,,0 / 1,,3370,2021-05-02 17:08:44:612
0.160416,0.119714,9.778218,0.166681,0.121701,9.804479,-0.001815,-0.001686,-2.41E-4,10.5,1.08,-84.3,279.3236,-0.7111,-0.9731,55.814068,37.500385,210.7,NaN,,12.078001,,0 / 1,,3380,2021-05-02 17:08:44:622
0.160416,0.119714,9.778218,0.166681,0.121701,9.804479,-5.93E-4,-0.002297,-8.52E-4,10.5,1.08,-84.3,279.3236,-0.7111,-0.9731,55.814068,37.500385,210.7,NaN,,12.078001,,0 / 1,,3390,2021-05-02 17:08:44:632
0.158022,0.117319,9.809344,0.166662,0.121703,9.804479,-0.001204,0.005034,-0.002073,10.98,1.86,-84.18,279.3236,-0.7111,-0.9731,55.814068,37.500385,210.7,NaN,,12.078001,,0 / 1,,3400,2021-05-02 17:08:44:642
0.158022,0.131685,9.792584,0.165367,0.121668,9.804501,1.8E-5,0.001979,-8.52E-4,11.16,1.5,-83.64,283.7465,-0.7111,-0.9739,55.814068,37.500385,210.7,NaN,,12.078001,,0 / 1,,3410,2021-05-02 17:08:44:652
0.165205,0.134079,9.79019,0.165367,0.121668,9.804501,6.29E-4,-0.001686,-0.001462,11.16,1.5,-83.64,283.7465,-0.7111,-0.9739,55.814068,37.500385,210.7,NaN,,12.078001,,0 / 1,,3420,2021-05-02 17:08:44:662
0.169994,0.112531,9.797373,0.165305,0.121282,9.804506,-5.93E-4,-0.001075,-0.001462,11.58,0.72,-83.82,283.7465,-0.7111,-0.9739,55.814068,37.500385,210.7,NaN,,12.078001,,0 / 1,,3430,2021-05-02 17:08:44:672
0.169994,0.112531,9.797373,0.165305,0.121282,9.804506,-5.93E-4,-0.001075,-0.001462,11.58,0.72,-83.82,283.7465,-0.7111,-0.9739,55.814068,37.500385,210.7,NaN,,12.078001,,0 / 1,,3442,2021-05-02 17:08:44:684
0.177176,0.112531,9.797373,0.165305,0.121282,9.804506,0.00185,-0.001686,-2.41E-4,11.58,0.72,-83.82,283.7465,-0.7111,-0.9739,55.814068,37.500385,210.7,NaN,,12.078001,,0 / 1,,3450,2021-05-02 17:08:44:692
0.177176,0.126897,9.797373,0.16558,0.121399,9.804501,-0.001815,0.005034,3.7E-4,11.94,1.02,-83.94,278.6309,-0.7086,-0.9659,55.814068,37.500385,210.7,NaN,,12.078001,,0 / 1,,3461,2021-05-02 17:08:44:703
0.184359,0.122108,9.780613,0.165356,0.121001,9.80451,6.29E-4,0.001979,-8.52E-4,11.34,1.62,-84.42,278.6309,-0.7086,-0.9659,55.814068,37.500385,210.7,NaN,,12.078001,,0 / 1,,3470,2021-05-02 17:08:44:712
0.174782,0.119714,9.79019,0.165356,0.121001,9.80451,0.001239,0.001979,3.7E-4,11.34,1.62,-84.42,278.6309,-0.7086,-0.9659,55.814068,37.500385,210.7,NaN,,12.078001,,0 / 1,,3480,2021-05-02 17:08:44:722
0.174782,0.119714,9.79019,0.165743,0.120469,9.804509,1.8E-5,0.001368,9.81E-4,10.5,1.98,-84.78,283.7681,-0.707,-0.9662,55.814068,37.500385,210.7,NaN,,12.078001,,0 / 1,,3490,2021-05-02 17:08:44:732
0.165205,0.105348,9.778218,0.165743,0.120469,9.804509,1.8E-5,-0.001075,-0.001462,10.5,1.98,-84.78,283.7681,-0.707,-0.9662,55.814068,37.500385,210.7,NaN,,12.078001,,0 / 1,,3500,2021-05-02 17:08:44:742
0.158022,0.126897,9.828498,0.165743,0.120469,9.804509,6.29E-4,-4.64E-4,-0.002684,10.5,1.98,-84.78,283.7681,-0.707,-0.9662,55.814068,37.500385,210.7,NaN,,12.078001,,0 / 1,,3510,2021-05-02 17:08:44:752
0.158022,0.126897,9.828498,0.165971,0.120275,9.804508,1.8E-5,-0.001686,-0.002684,10.56,1.68,-85.02,283.7681,-0.707,-0.9662,55.814068,37.500385,210.7,NaN,,12.078001,,0 / 1,,3520,2021-05-02 17:08:44:762
0.143657,0.122108,9.77343,0.165971,0.120275,9.804508,-0.001204,0.001368,-0.001462,10.56,1.68,-85.02,283.7681,-0.707,-0.9662,55.814068,37.500385,210.7,NaN,,12.078001,,0 / 1,,3530,2021-05-02 17:08:44:772
0.148445,0.124502,9.797373,0.165882,0.120089,9.804511,-5.93E-4,-4.64E-4,-8.52E-4,10.92,1.32,-84.66,279.315,-0.7027,-0.9698,55.814068,37.500385,210.7,NaN,,12.078001,,0 / 1,,3540,2021-05-02 17:08:44:782
0.177176,0.131685,9.79019,0.166033,0.120048,9.80451,1.8E-5,-4.64E-4,-2.41E-4,11.22,1.32,-83.46,279.315,-0.7027,-0.9698,55.814068,37.500385,210.7,NaN,,12.078001,,0 / 1,,3550,2021-05-02 17:08:44:792
0.177176,0.131685,9.79019,0.166033,0.120048,9.80451,-0.003037,-0.002908,-0.002073,11.22,1.32,-83.46,279.315,-0.7027,-0.9698,55.814068,37.500385,210.7,NaN,,12.078001,,0 / 1,,3561,2021-05-02 17:08:44:803
0.167599,0.134079,9.792584,0.166033,0.120048,9.80451,-5.93E-4,-4.64E-4,-0.001462,11.22,1.32,-83.46,279.315,-0.7027,-0.9698,55.814068,37.500385,210.7,NaN,,12.078001,,0 / 1,,3570,2021-05-02 17:08:44:812
0.158022,0.098165,9.787795,0.166639,0.120275,9.804497,-0.001815,-0.002297,-0.001462,10.92,1.26,-83.04,279.2206,-0.7014,-0.9702,55.814068,37.500385,210.7,NaN,,12.078001,,0 / 1,,3580,2021-05-02 17:08:44:822
0.169994,0.131685,9.794978,0.167327,0.120485,9.804482,-0.001815,7.57E-4,-8.52E-4,10.74,1.56,-83.64,279.2206,-0.7014,-0.9702,55.814068,37.500385,210.7,NaN,,12.078001,,0 / 1,,3590,2021-05-02 17:08:44:832
0.169994,0.131685,9.794978,0.167327,0.120485,9.804482,1.8E-5,1.47E-4,3.7E-4,10.74,1.56,-83.64,279.2206,-0.7014,-0.9702,55.814068,37.500385,210.7,NaN,,12.078001,,0 / 1,,3600,2021-05-02 17:08:44:842
0.167599,0.119714,9.768641,0.166707,0.120207,9.804496,-0.001204,1.47E-4,-0.002684,11.28,1.8,-85.2,283.7305,-0.704,-0.9777,55.814068,37.500385,210.7,NaN,,12.078001,,0 / 1,,3610,2021-05-02 17:08:44:852
0.153234,0.119714,9.787795,0.166707,0.120207,9.804496,-0.002426,-0.001686,-0.002684,11.28,1.8,-85.2,283.7305,-0.704,-0.9777,55.814068,37.500385,210.7,NaN,,12.078001,,0 / 1,,3620,2021-05-02 17:08:44:862
0.165205,0.124502,9.799767,0.166707,0.120207,9.804496,-0.001815,-4.64E-4,-0.001462,11.28,1.8,-85.2,283.7305,-0.704,-0.9777,55.814068,37.500385,210.7,NaN,,12.078001,,0 / 1,,3630,2021-05-02 17:08:44:872
0.174782,0.126897,9.787795,0.167743,0.120267,9.804478,-5.93E-4,1.47E-4,-0.001462,11.4,1.32,-85.2,283.7305,-0.704,-0.9777,55.814068,37.500385,210.7,NaN,,12.078001,,0 / 1,,3640,2021-05-02 17:08:44:882
0.174782,0.126897,9.787795,0.168045,0.120441,9.804471,6.29E-4,7.57E-4,-0.002073,11.46,1.02,-84.66,279.3033,-0.7027,-0.9802,55.814068,37.500385,210.7,NaN,,12.078001,,0 / 1,,3650,2021-05-02 17:08:44:892
0.172388,0.129291,9.766247,0.168045,0.120441,9.804471,-0.001204,-4.64E-4,-8.52E-4,11.46,1.02,-84.66,279.3033,-0.7027,-0.9802,55.814068,37.500385,210.7,NaN,,12.078001,,0 / 1,,3660,2021-05-02 17:08:44:902
0.191542,0.114925,9.785401,0.168158,0.120381,9.804469,6.29E-4,0.003812,-2.41E-4,11.58,1.02,-84.66,279.3033,-0.7027,-0.9802,55.814068,37.500385,210.7,NaN,,12.078001,,0 / 1,,3670,2021-05-02 17:08:44:912
0.160416,0.114925,9.802161,0.168158,0.120381,9.804469,-0.001815,0.001368,-8.52E-4,11.58,1.02,-84.66,279.3033,-0.7027,-0.9802,55.814068,37.500385,210.7,NaN,,12.078001,,0 / 1,,3680,2021-05-02 17:08:44:922
0.160416,0.114925,9.802161,0.168158,0.120381,9.804469,0.001239,1.47E-4,-0.002073,11.58,1.02,-84.66,279.3033,-0.7027,-0.9802,55.814068,37.500385,210.7,NaN,,12.078001,,0 / 1,,3690,2021-05-02 17:08:44:932
0.162811,0.124502,9.80695,0.168245,0.12045,9.804467,-0.003647,-0.003519,3.7E-4,11.28,1.5,-84.6,283.7207,-0.7037,-0.9831,55.814068,37.500385,210.7,NaN,,12.078001,,0 / 1,,3700,2021-05-02 17:08:44:942
0.153234,0.119714,9.802161,0.168245,0.12045,9.804467,0.002461,7.57E-4,9.81E-4,11.28,1.5,-84.6,283.7207,-0.7037,-0.9831,55.814068,37.500385,210.7,NaN,,12.078001,,0 / 1,,3710,2021-05-02 17:08:44:952
0.172388,0.134079,9.814133,0.168325,0.120576,9.804464,1.8E-5,-4.64E-4,0.002203,10.8,1.8,-84.3,283.7207,-0.7037,-0.9831,55.814068,37.500385,210.7,NaN,,12.078001,,0 / 1,,3720,2021-05-02 17:08:44:962
0.167599,0.114925,9.787795,0.167686,0.121288,9.804466,-0.002426,1.47E-4,0.002203,10.8,2.04,-84.54,283.7247,-0.7045,-0.9836,55.814068,37.500385,210.7,NaN,,12.078001,,0 / 1,,3730,2021-05-02 17:08:44:972
0.167599,0.114925,9.787795,0.167686,0.121288,9.804466,0.002461,0.001368,-0.002684,10.8,2.04,-84.54,283.7247,-0.7045,-0.9836,55.814068,37.500385,210.7,NaN,,12.078001,,0 / 1,,3740,2021-05-02 17:08:44:982
0.177176,0.107742,9.783007,0.167686,0.121288,9.804466,0.002461,0.001368,-0.002684,10.8,2.04,-84.54,283.7247,-0.7045,-0.9836,55.814068,37.500385,210.7,NaN,,12.078001,,0 / 1,,3750,2021-05-02 17:08:44:992
0.177176,0.119714,9.787795,0.167547,0.121291,9.804469,0.00185,1.47E-4,-0.002073,10.2,1.68,-84.9,283.7247,-0.7045,-0.9836,55.814068,37.500385,210.7,NaN,,12.078001,,0 / 1,,3760,2021-05-02 17:08:45:002
0.162811,0.117319,9.787795,0.167384,0.121537,9.804469,-0.003037,-0.001075,3.7E-4,10.2,1.02,-84.54,280.1448,-0.7087,-0.979,55.814068,37.500385,210.7,NaN,,12.078001,,0 / 1,,3770,2021-05-02 17:08:45:012
0.162811,0.117319,9.787795,0.167384,0.121537,9.804469,-5.93E-4,-4.64E-4,-0.001462,10.2,1.02,-84.54,280.1448,-0.7087,-0.979,55.814068,37.500385,210.7,NaN,,12.078001,,0 / 1,,3780,2021-05-02 17:08:45:022
0.158022,0.122108,9.80695,0.167879,0.121164,9.804464,-0.001815,-0.002297,-0.005128,10.56,1.26,-84.72,280.1448,-0.7087,-0.979,55.814068,37.500385,210.7,NaN,,12.078001,,0 / 1,,3790,2021-05-02 17:08:45:032
0.169994,0.112531,9.799767,0.167879,0.121164,9.804464,-0.001204,0.001979,-0.001462,10.56,1.26,-84.72,280.1448,-0.7087,-0.979,55.814068,37.500385,210.7,NaN,,12.078001,,0 / 1,,3800,2021-05-02 17:08:45:042
0.169994,0.112531,9.799767,0.167879,0.121164,9.804464,-0.001204,7.57E-4,9.81E-4,10.56,1.26,-84.72,280.1448,-0.7087,-0.979,55.814068,37.500385,210.7,NaN,,12.078001,,0 / 1,,3810,2021-05-02 17:08:45:052
0.186753,0.129291,9.785401,0.168275,0.121045,9.80446,0.003072,1.47E-4,9.81E-4,10.5,0.84,-84.84,279.3371,-0.7079,-0.981,55.814068,37.500385,210.7,NaN,,12.078001,,0 / 1,,3820,2021-05-02 17:08:45:062
0.169994,0.114925,9.79019,0.168766,0.121031,9.804451,1.8E-5,-4.64E-4,-0.001462,10.62,0.48,-84.36,279.3371,-0.7079,-0.981,55.814068,37.500385,210.7,NaN,,12.078001,,0 / 1,,3830,2021-05-02 17:08:45:072
0.167599,0.126897,9.797373,0.168766,0.121031,9.804451,0.002461,0.00259,-0.001462,10.62,0.48,-84.36,279.3371,-0.7079,-0.981,55.814068,37.500385,210.7,NaN,,12.078001,,0 / 1,,3840,2021-05-02 17:08:45:082
0.165205,0.126897,9.783007,0.168744,0.121038,9.804451,1.8E-5,0.001368,-8.52E-4,11.16,1.5,-84.24,283.7023,-0.7071,-0.9861,55.814068,37.500385,210.7,NaN,,12.078001,,0 / 1,,3850,2021-05-02 17:08:45:092
0.165205,0.126897,9.783007,0.168744,0.121038,9.804451,-5.93E-4,1.47E-4,3.7E-4,11.16,1.5,-84.24,283.7023,-0.7071,-0.9861,55.814068,37.500385,210.7,NaN,,12.078001,,0 / 1,,3860,2021-05-02 17:08:45:102
0.160416,0.126897,9.785401,0.168744,0.121038,9.804451,6.29E-4,7.57E-4,9.81E-4,11.16,1.5,-84.24,283.7023,-0.7071,-0.9861,55.814068,37.500385,210.7,NaN,,12.078001,,0 / 1,,3870,2021-05-02 17:08:45:112
0.172388,0.129291,9.783007,0.168441,0.1215,9.804451,6.29E-4,-0.001075,-0.002684,11.64,1.98,-84.42,283.7023,-0.7071,-0.9861,55.814068,37.500385,210.7,NaN,,12.078001,,0 / 1,,3880,2021-05-02 17:08:45:122
0.165205,0.119714,9.77343,0.168782,0.121267,9.804448,1.8E-5,0.005034,-0.002684,10.98,1.8,-84.36,283.7227,-0.7099,-0.9842,55.814068,37.500385,210.7,NaN,,12.078001,,0 / 1,,3890,2021-05-02 17:08:45:132
0.177176,0.114925,9.787795,0.168782,0.121267,9.804448,0.001239,1.47E-4,-8.52E-4,10.98,1.8,-84.36,283.7227,-0.7099,-0.9842,55.814068,37.500385,210.7,NaN,,12.078001,,0 / 1,,3900,2021-05-02 17:08:45:142
0.177176,0.117319,9.785401,0.168852,0.120582,9.804455,1.8E-5,0.001368,-0.002073,10.92,1.32,-84.42,283.7227,-0.7099,-0.9842,55.814068,37.500385,210.7,NaN,,12.078001,,0 / 1,,3910,2021-05-02 17:08:45:152
0.160416,0.117319,9.785401,0.168852,0.120582,9.804455,1.8E-5,-0.001686,9.81E-4,10.92,1.32,-84.42,283.7227,-0.7099,-0.9842,55.814068,37.500385,210.7,NaN,,12.078001,,0 / 1,,3920,2021-05-02 17:08:45:162
0.165205,0.122108,9.785401,0.168852,0.120582,9.804455,6.29E-4,0.001368,-8.52E-4,10.92,1.32,-84.42,283.7227,-0.7099,-0.9842,55.814068,37.500385,210.7,NaN,,12.078001,,0 / 1,,3930,2021-05-02 17:08:45:172
0.162811,0.126897,9.780613,0.168286,0.12063,9.804464,1.8E-5,-0.001686,3.7E-4,10.86,1.02,-84.78,279.3138,-0.7048,-0.9833,55.814068,37.500385,210.7,NaN,,12.078001,,0 / 1,,3940,2021-05-02 17:08:45:182
0.162811,0.124502,9.809344,0.168006,0.120519,9.80447,1.8E-5,-0.001686,-8.52E-4,10.74,0.96,-84.6,279.3138,-0.7048,-0.9833,55.814068,37.500385,210.7,NaN,,12.078001,,0 / 1,,3950,2021-05-02 17:08:45:192
0.162811,0.124502,9.809344,0.168006,0.120519,9.80447,1.8E-5,-0.001686,-8.52E-4,10.74,0.96,-84.6,279.3138,-0.7048,-0.9833,55.814068,37.500385,210.7,NaN,,12.078001,,0 / 1,,3961,2021-05-02 17:08:45:203
0.167599,0.131685,9.783007,0.167867,0.120522,9.804473,-5.93E-4,-4.64E-4,-0.002073,11.22,0.96,-84.72,279.3138,-0.7048,-0.9833,55.814068,37.500385,210.7,NaN,,12.078001,,0 / 1,,3970,2021-05-02 17:08:45:212
0.179571,0.119714,9.79019,0.167558,0.121087,9.804471,-5.93E-4,-0.001686,-8.52E-4,10.98,1.44,-84.84,279.3123,-0.7042,-0.9809,55.814068,37.500385,210.7,NaN,,12.078001,,0 / 1,,3980,2021-05-02 17:08:45:222
0.177176,0.126897,9.780613,0.167558,0.121087,9.804471,-5.93E-4,-4.64E-4,3.7E-4,10.98,1.44,-84.84,279.3123,-0.7042,-0.9809,55.814068,37.500385,210.7,NaN,,12.078001,,0 / 1,,3990,2021-05-02 17:08:45:232
0.155628,0.124502,9.778218,0.167469,0.121162,9.804472,-5.93E-4,7.57E-4,-0.002073,11.1,1.5,-84.3,279.3123,-0.7042,-0.9809,55.814068,37.500385,210.7,NaN,,12.078001,,0 / 1,,4000,2021-05-02 17:08:45:242
0.155628,0.124502,9.778218,0.167469,0.121162,9.804472,-5.93E-4,1.47E-4,-2.41E-4,11.1,1.5,-84.3,279.3123,-0.7042,-0.9809,55.814068,37.500385,210.7,NaN,,12.078001,,0 / 1,,4010,2021-05-02 17:08:45:252
0.150839,0.124502,9.792584,0.167237,0.121221,9.804475,1.8E-5,1.47E-4,-2.41E-4,10.68,0.96,-84.42,279.3123,-0.7042,-0.9809,55.814068,37.500385,210.7,NaN,,12.078001,,0 / 1,,4020,2021-05-02 17:08:45:262
0.169994,0.126897,9.794978,0.167237,0.121221,9.804475,-0.001815,-0.001686,-0.001462,10.68,0.96,-84.42,279.3123,-0.7042,-0.9809,55.814068,37.500385,210.7,NaN,,12.078001,,0 / 1,,4030,2021-05-02 17:08:45:272
0.172388,0.124502,9.787795,0.166307,0.121625,9.804485,-0.001815,-0.003519,9.81E-4,10.98,1.8,-84.96,283.7589,-0.7083,-0.9772,55.814068,37.500385,210.7,NaN,,12.078001,,0 / 1,,4040,2021-05-02 17:08:45:282
0.172388,0.124502,9.787795,0.166307,0.121625,9.804485,-0.001815,-0.003519,9.81E-4,10.98,1.8,-84.96,283.7589,-0.7083,-0.9772,55.814068,37.500385,210.7,NaN,,12.078001,,0 / 1,,4050,2021-05-02 17:08:45:292
0.162811,0.124502,9.79019,0.166588,0.121522,9.804482,-0.001204,-0.001075,-0.003906,11.16,1.74,-84.9,283.7589,-0.7083,-0.9772,55.814068,37.500385,210.7,NaN,,12.078001,,0 / 1,,4060,2021-05-02 17:08:45:302
0.179571,0.126897,9.792584,0.16611,0.122013,9.804484,0.001239,1.47E-4,-8.52E-4,10.98,1.38,-84.3,279.3163,-0.71,-0.9734,55.814068,37.500385,210.7,NaN,,12.078001,,0 / 1,,4070,2021-05-02 17:08:45:312
0.158022,0.122108,9.778218,0.16611,0.122013,9.804484,1.8E-5,-0.001075,-2.41E-4,10.98,1.38,-84.3,279.3163,-0.71,-0.9734,55.814068,37.500385,210.7,NaN,,12.078001,,0 / 1,,4080,2021-05-02 17:08:45:322
0.169994,0.107742,9.771035,0.166091,0.121898,9.804485,0.002461,0.001368,-0.002073,10.74,1.74,-83.58,279.3163,-0.71,-0.9734,55.814068,37.500385,210.7,NaN,,12.078001,,0 / 1,,4090,2021-05-02 17:08:45:332
0.169994,0.107742,9.771035,0.166091,0.121898,9.804485,1.8E-5,-0.003519,3.7E-4,10.74,1.74,-83.58,279.3163,-0.71,-0.9734,55.814068,37.500385,210.7,NaN,,12.078001,,0 / 2,,4100,2021-05-02 17:08:45:342
0.174782,0.129291,9.780613,0.166091,0.121898,9.804485,-5.93E-4,1.47E-4,9.81E-4,10.74,1.74,-83.58,279.3163,-0.71,-0.9734,55.814068,37.500385,210.7,NaN,,12.078001,,0 / 2,,4110,2021-05-02 17:08:45:352
0.177176,0.129291,9.797373,0.165882,0.121974,9.804488,0.002461,0.001368,-2.41E-4,10.92,1.74,-83.64,283.759,-0.7122,-0.9705,55.814068,37.500385,210.7,NaN,,12.078001,,0 / 2,,4120,2021-05-02 17:08:45:362
0.174782,0.119714,9.797373,0.165843,0.121862,9.80449,-5.93E-4,0.00259,9.81E-4,11.1,1.44,-84.06,283.759,-0.7122,-0.9705,55.814068,37.500385,210.7,NaN,,12.078001,,0 / 2,,4130,2021-05-02 17:08:45:372
0.174782,0.119714,9.797373,0.165843,0.121862,9.80449,0.00185,1.47E-4,0.001592,11.1,1.44,-84.06,283.759,-0.7122,-0.9705,55.814068,37.500385,210.7,NaN,,12.078001,,0 / 2,,4140,2021-05-02 17:08:45:382
0.153234,0.122108,9.771035,0.16587,0.122155,9.804487,0.001239,-0.001075,-2.41E-4,10.62,1.62,-83.88,283.7706,-0.7137,-0.9692,55.814068,37.500385,210.7,NaN,,12.078001,,0 / 2,,4150,2021-05-02 17:08:45:392
0.184359,0.114925,9.785401,0.16587,0.122155,9.804487,0.001239,-0.001075,-2.41E-4,10.62,1.62,-83.88,283.7706,-0.7137,-0.9692,55.814068,37.500385,210.7,NaN,,12.078001,,0 / 2,,4160,2021-05-02 17:08:45:402
0.169994,0.117319,9.778218,0.16587,0.122155,9.804487,-0.001204,-0.001075,3.7E-4,10.62,1.62,-83.88,283.7706,-0.7137,-0.9692,55.814068,37.500385,210.7,NaN,,12.078001,,0 / 2,,4170,2021-05-02 17:08:45:412
0.162811,0.119714,9.79019,0.166089,0.12216,9.804482,-0.001204,0.003201,-2.41E-4,10.32,1.68,-84.84,283.7706,-0.7137,-0.9692,55.814068,37.500385,210.7,NaN,,12.078001,,0 / 2,,4181,2021-05-02 17:08:45:423
0.169994,0.098165,9.778218,0.166415,0.122348,9.804475,-0.001204,0.003201,-2.41E-4,10.44,1.32,-85.26,280.1924,-0.7137,-0.9705,55.814068,37.500385,210.7,NaN,,12.078001,,0 / 2,,4190,2021-05-02 17:08:45:432
0.169994,0.098165,9.778218,0.166415,0.122348,9.804475,1.8E-5,-0.001075,-0.002684,10.44,1.32,-85.26,280.1924,-0.7137,-0.9705,55.814068,37.500385,210.7,NaN,,12.078001,,0 / 2,,4200,2021-05-02 17:08:45:442
0.184359,0.119714,9.787795,0.166415,0.122348,9.804475,0.00185,-0.003519,-0.001462,10.44,1.32,-85.26,280.1924,-0.7137,-0.9705,55.814068,37.500385,210.7,NaN,,12.078001,,0 / 2,,4210,2021-05-02 17:08:45:452
0.158022,0.119714,9.804555,0.166632,0.12271,9.804467,-0.001204,0.001368,-0.001462,10.68,1.26,-84.84,280.1924,-0.7137,-0.9705,55.814068,37.500385,210.7,NaN,,12.078001,,0 / 2,,4220,2021-05-02 17:08:45:462
0.181965,0.126897,9.802161,0.166632,0.12271,9.804467,-0.001815,-0.001075,-0.002073,10.74,1.08,-84.78,279.4051,-0.717,-0.9737,55.814068,37.500385,210.7,NaN,,12.078001,,0 / 2,,4230,2021-05-02 17:08:45:472
0.162811,0.114925,9.778218,0.166542,0.122527,9.80447,6.29E-4,-0.001075,-8.52E-4,10.74,1.08,-84.78,279.4051,-0.717,-0.9737,55.814068,37.500385,210.7,NaN,,12.078001,,0 / 2,,4240,2021-05-02 17:08:45:482
0.162811,0.114925,9.778218,0.166316,0.122249,9.804478,-0.003037,-4.64E-4,-0.002684,10.56,0.78,-84.42,279.4051,-0.717,-0.9737,55.814068,37.500385,210.7,NaN,,12.078001,,0 / 2,,4250,2021-05-02 17:08:45:492
0.153234,0.134079,9.775824,0.166316,0.122249,9.804478,-0.002426,-0.001075,-0.001462,10.56,0.78,-84.42,279.4051,-0.717,-0.9737,55.814068,37.500385,210.7,NaN,,12.078001,,0 / 2,,4260,2021-05-02 17:08:45:502
0.172388,0.129291,9.785401,0.166244,0.1223,9.804479,0.001239,-4.64E-4,-0.005738,10.62,1.5,-84.48,279.4051,-0.717,-0.9737,55.814068,37.500385,210.7,NaN,,12.078001,,0 / 2,,4270,2021-05-02 17:08:45:512
0.153234,0.119714,9.785401,0.165927,0.122429,9.804482,-0.002426,7.57E-4,3.7E-4,10.74,1.92,-84.9,283.8086,-0.7146,-0.9714,55.814068,37.500385,210.7,NaN,,12.078001,,0 / 2,,4280,2021-05-02 17:08:45:522
0.153234,0.119714,9.785401,0.165927,0.122429,9.804482,6.29E-4,-4.64E-4,-2.41E-4,10.74,1.92,-84.9,283.8086,-0.7146,-0.9714,55.814068,37.500385,210.7,NaN,,12.078001,,0 / 2,,4290,2021-05-02 17:08:45:532
0.181965,0.126897,9.785401,0.166353,0.12274,9.804471,-5.93E-4,7.57E-4,-2.41E-4,10.8,1.14,-85.02,283.8086,-0.7146,-0.9714,55.814068,37.500385,210.7,NaN,,12.078001,,0 / 2,,4300,2021-05-02 17:08:45:542
0.177176,0.141262,9.79019,0.166353,0.12274,9.804471,-5.93E-4,7.57E-4,-2.41E-4,10.8,1.14,-85.02,283.8086,-0.7146,-0.9714,55.814068,37.500385,210.7,NaN,,12.078001,,0 / 2,,4310,2021-05-02 17:08:45:552
0.179571,0.129291,9.783007,0.167327,0.123027,9.804451,-0.001815,-0.001075,-0.001462,10.8,0.9,-84.54,279.408,-0.7171,-0.972,55.814068,37.500385,210.7,NaN,,12.078001,,0 / 2,,4320,2021-05-02 17:08:45:562
0.179571,0.117319,9.771035,0.167327,0.123027,9.804451,-5.93E-4,-0.001686,-0.002684,10.8,0.9,-84.54,279.408,-0.7171,-0.972,55.814068,37.500385,210.7,NaN,,12.078001,,0 / 2,,4331,2021-05-02 17:08:45:573
0.165205,0.114925,9.802161,0.168339,0.122911,9.804435,-5.93E-4,0.00259,-2.41E-4,10.68,0.9,-84.78,279.408,-0.7171,-0.972,55.814068,37.500385,210.7,NaN,,12.078001,,0 / 2,,4340,2021-05-02 17:08:45:582
0.165205,0.114925,9.802161,0.168339,0.122911,9.804435,-0.002426,-0.002908,-0.001462,10.68,0.9,-84.78,279.408,-0.7171,-0.972,55.814068,37.500385,210.7,NaN,,12.078001,,0 / 2,,4350,2021-05-02 17:08:45:592
0.160416,0.141262,9.780613,0.168339,0.122911,9.804435,-0.001204,-0.001075,-8.52E-4,11.04,0.84,-85.32,279.408,-0.7171,-0.972,55.814068,37.500385,210.7,NaN,,12.078001,,0 / 2,,4360,2021-05-02 17:08:45:602
0.158022,0.122108,9.792584,0.169196,0.122818,9.804421,1.8E-5,-0.001075,-8.52E-4,10.92,0.9,-84.48,279.3493,-0.7176,-0.9887,55.814068,37.500385,210.7,NaN,,12.078001,,0 / 2,,4370,2021-05-02 17:08:45:612
0.155628,0.107742,9.785401,0.169939,0.122858,9.804408,-5.93E-4,7.57E-4,-0.002684,10.8,1.32,-84.9,279.3493,-0.7176,-0.9887,55.814068,37.500385,210.7,NaN,,12.078001,,0 / 2,,4380,2021-05-02 17:08:45:622
0.162811,0.117319,9.799767,0.169939,0.122858,9.804408,-5.93E-4,-0.001686,-8.52E-4,10.8,1.32,-84.9,279.3493,-0.7176,-0.9887,55.814068,37.500385,210.7,NaN,,12.078001,,0 / 2,,4390,2021-05-02 17:08:45:632
0.162811,0.117319,9.799767,0.169977,0.122735,9.804408,1.8E-5,1.47E-4,0.001592,10.86,1.62,-84.54,279.3493,-0.7176,-0.9887,55.814068,37.500385,210.7,NaN,,12.078001,,0 / 2,,4401,2021-05-02 17:08:45:643
0.162811,0.107742,9.780613,0.169977,0.122735,9.804408,1.8E-5,1.47E-4,0.001592,10.86,1.62,-84.54,279.3493,-0.7176,-0.9887,55.814068,37.500385,210.7,NaN,,12.078001,,0 / 2,,4410,2021-05-02 17:08:45:652
0.169994,0.117319,9.792584,0.169492,0.122671,9.804419,-0.001815,1.47E-4,-0.001462,10.74,1.44,-84.96,279.3844,-0.7171,-0.9932,55.814068,37.500385,210.7,NaN,,12.078001,,0 / 2,,4420,2021-05-02 17:08:45:662
0.158022,0.129291,9.794978,0.169184,0.122388,9.804426,-5.93E-4,-0.001686,3.7E-4,10.74,1.38,-84.72,279.3844,-0.7171,-0.9932,55.814068,37.500385,210.7,NaN,,12.078001,,0 / 2,,4430,2021-05-02 17:08:45:672
0.172388,0.126897,9.783007,0.169184,0.122388,9.804426,-5.93E-4,-0.001686,-0.002073,10.74,1.38,-84.72,279.3844,-0.7171,-0.9932,55.814068,37.500385,210.7,NaN,,12.078001,,0 / 2,,4440,2021-05-02 17:08:45:682
0.172388,0.126897,9.783007,0.169273,0.122077,9.80443,-5.93E-4,1.47E-4,-0.001462,10.2,1.44,-85.02,280.1784,-0.7151,-0.9886,55.814068,37.500385,210.7,NaN,,12.078001,,0 / 2,,4450,2021-05-02 17:08:45:692
0.167599,0.134079,9.794978,0.169273,0.122077,9.80443,-0.001204,-4.64E-4,-2.41E-4,10.2,1.44,-85.02,280.1784,-0.7151,-0.9886,55.814068,37.500385,210.7,NaN,,12.078001,,0 / 2,,4460,2021-05-02 17:08:45:702
0.205908,0.131685,9.816526,0.169889,0.122315,9.804416,1.8E-5,-0.002297,-0.002073,10.74,1.08,-84.9,280.1784,-0.7151,-0.9886,55.814068,37.500385,210.7,NaN,,12.078001,,0 / 2,,4471,2021-05-02 17:08:45:713
0.150839,0.119714,9.77343,0.169889,0.122315,9.804416,-0.003647,-0.001686,0.002203,10.74,1.08,-84.9,280.1784,-0.7151,-0.9886,55.814068,37.500385,210.7,NaN,,12.078001,,0 / 2,,4480,2021-05-02 17:08:45:722
0.150839,0.119714,9.77343,0.170465,0.122326,9.804405,-0.001204,-4.64E-4,3.7E-4,11.4,1.02,-84.66,279.3687,-0.7147,-0.9927,55.814068,37.500385,210.7,NaN,,12.078001,,0 / 2,,4490,2021-05-02 17:08:45:732
0.146051,0.124502,9.79019,0.170465,0.122326,9.804405,6.29E-4,-4.64E-4,3.7E-4,11.4,1.02,-84.66,279.3687,-0.7147,-0.9927,55.814068,37.500385,210.7,NaN,,12.078001,,0 / 2,,4501,2021-05-02 17:08:45:743
0.134079,0.114925,9.766247,0.170465,0.122326,9.804405,-5.93E-4,-0.001075,0.001592,11.1,1.14,-83.94,279.3687,-0.7147,-0.9927,55.814068,37.500385,210.7,NaN,,12.078001,,0 / 2,,4510,2021-05-02 17:08:45:752
0.148445,0.131685,9.759064,0.169803,0.122151,9.80442,-0.002426,-0.002908,-0.003906,11.1,1.14,-83.94,279.3687,-0.7147,-0.9927,55.814068,37.500385,210.7,NaN,,12.078001,,0 / 2,,4520,2021-05-02 17:08:45:762
0.148445,0.131685,9.759064,0.169803,0.122151,9.80442,-0.001204,0.001368,-0.001462,11.1,1.14,-83.94,279.3687,-0.7147,-0.9927,55.814068,37.500385,210.7,NaN,,12.078001,,0 / 2,,4530,2021-05-02 17:08:45:772
0.169994,0.129291,9.771035,0.168731,0.122162,9.804438,-0.001204,-0.001686,-0.001462,11.28,0.96,-83.46,279.2768,-0.7137,-0.9922,55.814068,37.500385,210.7,NaN,,12.078001,,0 / 2,,4540,2021-05-02 17:08:45:782
0.155628,0.131685,9.754275,0.16829,0.121896,9.804448,0.001239,-4.64E-4,9.81E-4,11.52,1.62,-84.06,279.2768,-0.7137,-0.9922,55.814068,37.500385,210.7,NaN,,12.078001,,0 / 2,,4551,2021-05-02 17:08:45:793
0.167599,0.117319,9.804555,0.16829,0.121896,9.804448,0.001239,-4.64E-4,9.81E-4,11.52,1.62,-84.06,279.2768,-0.7137,-0.9922,55.814068,37.500385,210.7,NaN,,12.078001,,0 / 2,,4560,2021-05-02 17:08:45:802
0.167599,0.117319,9.804555,0.167831,0.121748,9.804459,-5.93E-4,7.57E-4,-8.52E-4,11.52,1.74,-85.32,282.7851,-0.7122,-0.9834,55.814068,37.500385,210.7,NaN,,12.078001,,0 / 2,,4570,2021-05-02 17:08:45:812
0.172388,0.129291,9.787795,0.167831,0.121748,9.804459,-0.001815,-0.001075,-2.41E-4,11.52,1.74,-85.32,282.7851,-0.7122,-0.9834,55.814068,37.500385,210.7,NaN,,12.078001,,0 / 2,,4580,2021-05-02 17:08:45:822
0.174782,0.105348,9.778218,0.167831,0.121748,9.804459,1.8E-5,-0.001075,9.81E-4,11.52,1.74,-85.32,282.7851,-0.7122,-0.9834,55.814068,37.500385,210.7,NaN,,12.078001,,0 / 2,,4590,2021-05-02 17:08:45:832
0.155628,0.114925,9.768641,0.167225,0.121684,9.804469,-5.93E-4,1.47E-4,3.7E-4,11.64,1.14,-84.66,282.7851,-0.7122,-0.9834,55.814068,37.500385,210.7,NaN,,12.078001,,0 / 2,,4600,2021-05-02 17:08:45:842
0.155628,0.114925,9.768641,0.167247,0.121584,9.80447,6.29E-4,-0.001075,-8.52E-4,11.58,1.2,-83.7,278.6347,-0.711,-0.9771,55.814068,37.500385,210.7,NaN,,12.078001,,0 / 2,,4610,2021-05-02 17:08:45:852
0.169994,0.102954,9.794978,0.167247,0.121584,9.80447,-5.93E-4,7.57E-4,-0.002684,11.58,1.2,-83.7,278.6347,-0.711,-0.9771,55.814068,37.500385,210.7,NaN,,12.078001,,0 / 2,,4620,2021-05-02 17:08:45:862
0.160416,0.122108,9.785401,0.167247,0.121584,9.80447,-5.93E-4,7.57E-4,-0.002684,11.58,1.2,-83.7,278.6347,-0.711,-0.9771,55.814068,37.500385,210.7,NaN,,12.078001,,0 / 2,,4630,2021-05-02 17:08:45:872
0.158022,0.114925,9.787795,0.167346,0.121707,9.804467,6.29E-4,0.003201,3.7E-4,10.56,1.38,-84.06,278.6347,-0.711,-0.9771,55.814068,37.500385,210.7,NaN,,12.078001,,0 / 2,,4640,2021-05-02 17:08:45:882
0.165205,0.114925,9.794978,0.167346,0.121707,9.804467,0.002461,-0.001075,-0.002684,10.56,1.38,-84.06,278.6347,-0.711,-0.9771,55.814068,37.500385,210.7,NaN,,12.078001,,0 / 2,,4651,2021-05-02 17:08:45:893
0.172388,0.114925,9.754275,0.166401,0.121496,9.804485,1.8E-5,-4.64E-4,-0.002073,10.38,1.26,-83.88,280.1184,-0.7111,-0.9778,55.814068,37.500385,210.7,NaN,,12.078001,,0 / 2,,4661,2021-05-02 17:08:45:903
0.172388,0.114925,9.754275,0.166361,0.120869,9.804495,-0.002418,8.05E-4,-0.002731,11.46,1.32,-84.06,280.1184,-0.7111,-0.9778,55.814068,37.500385,210.7,NaN,,12.078001,,0 / 2,,4670,2021-05-02 17:08:45:912
0.172388,0.114925,9.802161,0.166361,0.120869,9.804495,-5.85E-4,-0.001027,-8.98E-4,11.46,1.32,-84.06,280.1184,-0.7111,-0.9778,55.814068,37.500385,210.7,NaN,,12.078001,,0 / 2,,4680,2021-05-02 17:08:45:922
0.191542,0.136474,9.665688,0.166165,0.120879,9.804498,6.37E-4,8.05E-4,-8.98E-4,11.64,1.14,-83.76,280.1184,-0.7111,-0.9778,55.814068,37.500385,210.7,NaN,,12.078001,,0 / 2,,4690,2021-05-02 17:08:45:932
0.191542,0.124502,9.703996,0.166708,0.121193,9.804484,-0.001807,-0.001638,0.001545,11.88,1.5,-84.36,282.7321,-0.7063,-0.9709,55.814068,37.500385,210.7,NaN,,12.078001,,0 / 2,,4700,2021-05-02 17:08:45:942
0.191542,0.124502,9.703996,0.166708,0.121193,9.804484,6.37E-4,8.05E-4,-8.98E-4,11.88,1.5,-84.36,282.7321,-0.7063,-0.9709,55.814068,37.500385,210.7,NaN,,12.078001,,0 / 2,,4711,2021-05-02 17:08:45:953
0.174782,0.107742,9.787795,0.167685,0.121336,9.804466,0.001858,-4.17E-4,-8.98E-4,11.28,1.86,-84.66,282.7321,-0.7063,-0.9709,55.814068,37.500385,210.7,NaN,,12.078001,,0 / 2,,4720,2021-05-02 17:08:45:962
0.174782,0.119714,9.787795,0.168062,0.121337,9.80446,6.37E-4,-4.17E-4,-0.002731,11.16,1.74,-85.02,282.7321,-0.7063,-0.9709,55.814068,37.500385,210.7,NaN,,12.078001,,0 / 2,,4730,2021-05-02 17:08:45:972
0.141262,0.119714,9.766247,0.168062,0.121337,9.80446,0.001247,-0.001027,-0.00212,11.16,1.74,-85.02,282.7321,-0.7063,-0.9709,55.814068,37.500385,210.7,NaN,,12.078001,,0 / 2,,4740,2021-05-02 17:08:45:982
0.136474,0.110137,9.780613,0.167907,0.121103,9.804465,6.37E-4,-0.001027,3.24E-4,10.98,1.62,-84.24,283.7201,-0.7089,-0.982,55.814068,37.500385,210.7,NaN,,12.078001,,0 / 2,,4750,2021-05-02 17:08:45:992
0.136474,0.110137,9.780613,0.167907,0.121103,9.804465,-5.85E-4,8.05E-4,0.001545,10.98,1.62,-84.24,283.7201,-0.7089,-0.982,55.814068,37.500385,210.7,NaN,,12.078001,,0 / 2,,4760,2021-05-02 17:08:46:002
0.148445,0.138868,9.77343,0.167907,0.121103,9.804465,2.6E-5,8.05E-4,-2.87E-4,10.98,1.62,-84.24,283.7201,-0.7089,-0.982,55.814068,37.500385,210.7,NaN,,12.078001,,0 / 2,,4770,2021-05-02 17:08:46:012
0.177176,0.119714,9.804555,0.166365,0.121169,9.80449,0.004302,-0.001638,-2.87E-4,10.86,1.98,-84.24,283.7201,-0.7089,-0.982,55.814068,37.500385,210.7,NaN,,12.078001,,0 / 2,,4780,2021-05-02 17:08:46:022
0.184359,0.117319,9.785401,0.165075,0.121432,9.804509,6.37E-4,0.001416,9.35E-4,11.4,1.68,-84.9,283.7651,-0.708,-0.9721,55.814068,37.500385,210.7,NaN,,12.078001,,0 / 2,,4790,2021-05-02 17:08:46:032
0.184359,0.117319,9.785401,0.165075,0.121432,9.804509,-0.00425,-0.001027,9.35E-4,11.4,1.68,-84.9,283.7651,-0.708,-0.9721,55.814068,37.500385,210.7,NaN,,12.078001,,0 / 2,,4800,2021-05-02 17:08:46:042
0.191542,0.117319,9.780613,0.165281,0.121361,9.804506,-5.85E-4,8.05E-4,9.35E-4,11.76,1.62,-85.56,283.7651,-0.708,-0.9721,55.814068,37.500385,210.7,NaN,,12.078001,,0 / 2,,4810,2021-05-02 17:08:46:052
0.174782,0.110137,9.778218,0.165281,0.121361,9.804506,0.00308,0.002638,3.24E-4,11.76,1.62,-85.56,283.7651,-0.708,-0.9721,55.814068,37.500385,210.7,NaN,,12.078001,,0 / 2,,4821,2021-05-02 17:08:46:063
0.177176,0.122108,9.754275,0.165281,0.121361,9.804506,0.00308,0.002638,3.24E-4,11.76,1.62,-85.56,283.7651,-0.708,-0.9721,55.814068,37.500385,210.7,NaN,,12.078001,,0 / 2,,4830,2021-05-02 17:08:46:072
0.165205,0.124502,9.763853,0.165521,0.12162,9.804499,0.001247,-0.001027,-0.00212,11.34,1.56,-85.26,283.7823,-0.7091,-0.9658,55.814068,37.500385,210.7,NaN,,12.078001,,0 / 2,,4840,2021-05-02 17:08:46:082
0.165205,0.124502,9.763853,0.165998,0.121366,9.804495,2.6E-5,-0.002249,-0.00212,11.58,1.38,-84.9,283.7823,-0.7091,-0.9658,55.814068,37.500385,210.7,NaN,,12.078001,,0 / 2,,4851,2021-05-02 17:08:46:093
0.165205,0.114925,9.771035,0.165998,0.121366,9.804495,6.37E-4,-4.17E-4,-2.87E-4,11.58,1.38,-84.9,283.7823,-0.7091,-0.9658,55.814068,37.500385,210.7,NaN,,12.078001,,0 / 2,,4860,2021-05-02 17:08:46:102
0.153234,0.112531,9.787795,0.166425,0.121299,9.804488,2.6E-5,-0.001638,-0.00212,11.1,1.56,-85.14,283.7759,-0.7091,-0.97,55.814068,37.500385,210.7,NaN,,12.078001,,0 / 2,,4870,2021-05-02 17:08:46:112
0.155628,0.129291,9.783007,0.166425,0.121299,9.804488,-0.001807,0.002638,-2.87E-4,11.1,1.56,-85.14,283.7759,-0.7091,-0.97,55.814068,37.500385,210.7,NaN,,12.078001,,0 / 2,,4880,2021-05-02 17:08:46:122
0.155628,0.129291,9.783007,0.166425,0.121299,9.804488,-5.85E-4,-4.17E-4,0.002156,11.1,1.56,-85.14,283.7759,-0.7091,-0.97,55.814068,37.500385,210.7,NaN,,12.078001,,0 / 2,,4890,2021-05-02 17:08:46:132
0.165205,0.107742,9.768641,0.166462,0.120872,9.804492,2.6E-5,-0.004082,-2.87E-4,11.04,1.44,-84.54,283.7759,-0.7091,-0.97,55.814068,37.500385,210.7,NaN,,12.078001,,0 / 2,,4900,2021-05-02 17:08:46:142
0.181965,0.119714,9.761458,0.166601,0.120892,9.80449,0.001247,1.94E-4,-0.00212,10.92,0.96,-83.82,279.2921,-0.7062,-0.9727,55.814068,37.500385,210.7,NaN,,12.078001,,0 / 2,,4910,2021-05-02 17:08:46:152
0.160416,0.129291,9.77343,0.166601,0.120892,9.80449,0.001858,-0.001638,-2.87E-4,10.92,0.96,-83.82,279.2921,-0.7062,-0.9727,55.814068,37.500385,210.7,NaN,,12.078001,,0 / 2,,4920,2021-05-02 17:08:46:162
0.160416,0.129291,9.77343,0.166601,0.120892,9.80449,0.001858,-0.001638,-2.87E-4,10.92,0.96,-83.82,279.2921,-0.7062,-0.9727,55.814068,37.500385,210.7,NaN,,12.078001,,0 / 2,,4930,2021-05-02 17:08:46:172
0.184359,0.124502,9.77343,0.166729,0.121212,9.804484,-0.001196,8.05E-4,0.002156,10.5,0.9,-84.54,279.2921,-0.7062,-0.9727,55.814068,37.500385,210.7,NaN,,12.078001,,0 / 2,,4940,2021-05-02 17:08:46:182
0.179571,0.129291,9.792584,0.166729,0.121212,9.804484,-0.00364,-0.001638,3.24E-4,10.5,0.9,-84.54,279.2921,-0.7062,-0.9727,55.814068,37.500385,210.7,NaN,,12.078001,,0 / 2,,4951,2021-05-02 17:08:46:193
0.179571,0.129291,9.775824,0.166997,0.121268,9.804478,-5.85E-4,-0.001027,-0.00212,11.64,1.5,-85.14,282.7735,-0.7085,-0.9758,55.814068,37.500385,210.7,NaN,,12.078001,,0 / 2,,4960,2021-05-02 17:08:46:202
0.179571,0.129291,9.775824,0.167758,0.122201,9.804454,0.002469,1.94E-4,0.001545,11.46,1.74,-84.42,282.7735,-0.7085,-0.9758,55.814068,37.500385,210.7,NaN,,12.078001,,0 / 2,,4970,2021-05-02 17:08:46:212
0.167599,0.131685,9.802161,0.167758,0.122201,9.804454,6.37E-4,0.002027,0.001545,11.46,1.74,-84.42,282.7735,-0.7085,-0.9758,55.814068,37.500385,210.7,NaN,,12.078001,,0 / 2,,4980,2021-05-02 17:08:46:222
0.146051,0.122108,9.811738,0.167656,0.121917,9.804459,-0.001807,-4.17E-4,-0.00212,10.8,1.44,-84.84,279.3781,-0.714,-0.9803,55.814068,37.500385,210.7,NaN,,12.078001,,0 / 2,,4990,2021-05-02 17:08:46:232
0.143657,0.10056,9.823709,0.167656,0.121917,9.804459,6.37E-4,1.94E-4,3.24E-4,10.8,1.44,-84.84,279.3781,-0.714,-0.9803,55.814068,37.500385,210.7,NaN,,12.078001,,0 / 2,,5001,2021-05-02 17:08:46:243
0.143657,0.10056,9.823709,0.167656,0.121917,9.804459,6.37E-4,0.002027,-8.98E-4,10.8,1.44,-84.84,279.3781,-0.714,-0.9803,55.814068,37.500385,210.7,NaN,,12.078001,,0 / 2,,5011,2021-05-02 17:08:46:253
0.160416,0.129291,9.766247,0.16634,0.122263,9.804478,2.6E-5,0.002638,9.35E-4,10.92,1.02,-84.78,279.3781,-0.714,-0.9803,55.814068,37.500385,210.7,NaN,,12.078001,,0 / 2,,5020,2021-05-02 17:08:46:262
0.172388,0.112531,9.768641,0.16634,0.122263,9.804478,-0.001196,1.94E-4,-8.98E-4,10.92,1.02,-84.78,279.3781,-0.714,-0.9803,55.814068,37.500385,210.7,NaN,,12.078001,,0 / 2,,5030,2021-05-02 17:08:46:272
0.179571,0.122108,9.780613,0.165597,0.122599,9.804485,6.37E-4,8.05E-4,3.24E-4,11.22,1.44,-84.12,279.3463,-0.7143,-0.972,55.814068,37.500385,210.7,NaN,,12.078001,,0 / 2,,5040,2021-05-02 17:08:46:282
0.179571,0.122108,9.780613,0.165597,0.122599,9.804485,-0.002418,1.94E-4,3.24E-4,11.22,1.44,-84.12,279.3463,-0.7143,-0.972,55.814068,37.500385,210.7,NaN,,12.078001,,0 / 2,,5050,2021-05-02 17:08:46:292
0.184359,0.114925,9.797373,0.165736,0.122479,9.804484,6.37E-4,-0.001638,3.24E-4,10.92,1.68,-85.08,279.3463,-0.7143,-0.972,55.814068,37.500385,210.7,NaN,,12.078001,,0 / 2,,5060,2021-05-02 17:08:46:302
0.184359,0.117319,9.79019,0.165736,0.122479,9.804484,-0.001196,-4.17E-4,-8.98E-4,10.92,1.68,-85.08,279.3463,-0.7143,-0.972,55.814068,37.500385,210.7,NaN,,12.078001,,0 / 2,,5071,2021-05-02 17:08:46:313
0.153234,0.114925,9.787795,0.166385,0.1222,9.804477,0.001858,-0.001638,-2.87E-4,11.04,1.74,-85.08,283.8201,-0.7156,-0.9684,55.814068,37.500385,210.7,NaN,,12.078001,,0 / 2,,5081,2021-05-02 17:08:46:323
0.148445,0.124502,9.809344,0.166463,0.122447,9.804473,0.001858,-0.001638,-2.87E-4,11.4,1.92,-84.84,283.8201,-0.7156,-0.9684,55.814068,37.500385,210.7,NaN,,12.078001,,0 / 2,,5091,2021-05-02 17:08:46:333
0.148445,0.124502,9.809344,0.166463,0.122447,9.804473,0.001247,-0.001638,-0.001509,11.4,1.92,-84.84,283.8201,-0.7156,-0.9684,55.814068,37.500385,210.7,NaN,,12.078001,,0 / 1,,5100,2021-05-02 17:08:46:342
0.141262,0.098165,9.785401,0.165576,0.122369,9.804488,0.002469,0.002638,3.24E-4,11.16,2.16,-84.48,283.776,-0.7154,-0.9727,55.814068,37.500385,210.7,NaN,,12.078001,,0 / 1,,5110,2021-05-02 17:08:46:352
0.150839,0.114925,9.794978,0.165576,0.122369,9.804488,-5.85E-4,1.94E-4,-0.00212,11.16,2.16,-84.48,283.776,-0.7154,-0.9727,55.814068,37.500385,210.7,NaN,,12.078001,,0 / 1,,5120,2021-05-02 17:08:46:362
0.150839,0.114925,9.794978,0.165576,0.122369,9.804488,-0.001196,-0.003471,9.35E-4,11.16,2.16,-84.48,283.776,-0.7154,-0.9727,55.814068,37.500385,210.7,NaN,,12.078001,,0 / 1,,5130,2021-05-02 17:08:46:372
0.169994,0.119714,9.759064,0.16374,0.121921,9.804525,-0.001196,0.001416,-2.87E-4,10.74,1.86,-84.54,283.776,-0.7154,-0.9727,55.814068,37.500385,210.7,NaN,,12.078001,,0 / 1,,5140,2021-05-02 17:08:46:382
0.181965,0.119714,9.814133,0.162593,0.121682,9.804547,-0.001807,8.05E-4,-2.87E-4,10.5,1.68,-84.9,283.8177,-0.7123,-0.9568,55.814068,37.500385,210.7,NaN,,12.078001,,0 / 1,,5150,2021-05-02 17:08:46:392
0.177176,0.122108,9.778218,0.162593,0.121682,9.804547,-5.85E-4,8.05E-4,0.001545,10.5,1.68,-84.9,283.8177,-0.7123,-0.9568,55.814068,37.500385,210.7,NaN,,12.078001,,0 / 1,,5160,2021-05-02 17:08:46:402
0.169994,0.114925,9.785401,0.162634,0.121554,9.804548,-0.002418,-4.17E-4,-0.001509,10.5,2.1,-84.48,283.8177,-0.7123,-0.9568,55.814068,37.500385,210.7,NaN,,12.078001,,0 / 1,,5170,2021-05-02 17:08:46:412
0.169994,0.114925,9.785401,0.162634,0.121554,9.804548,-0.002418,-4.17E-4,-0.001509,10.5,2.1,-84.48,283.8177,-0.7123,-0.9568,55.814068,37.500385,210.7,NaN,,12.078001,,0 / 1,,5180,2021-05-02 17:08:46:422
0.198725,0.129291,9.77343,0.162658,0.121333,9.80455,-0.001807,-0.00286,0.001545,10.5,2.04,-84.54,283.8177,-0.7123,-0.9568,55.814068,37.500385,210.7,NaN,,12.078001,,0 / 1,,5190,2021-05-02 17:08:46:432
0.174782,0.126897,9.77343,0.163675,0.120975,9.804538,-0.002418,0.002027,-8.98E-4,10.8,1.98,-84.72,283.8057,-0.7089,-0.9505,55.814068,37.500385,210.7,NaN,,12.078001,,0 / 1,,5200,2021-05-02 17:08:46:442
0.160416,0.129291,9.792584,0.163675,0.120975,9.804538,-0.001807,1.94E-4,-0.001509,10.8,1.98,-84.72,283.8057,-0.7089,-0.9505,55.814068,37.500385,210.7,NaN,,12.078001,,0 / 1,,5210,2021-05-02 17:08:46:452
0.160416,0.129291,9.792584,0.163578,0.120849,9.804542,6.37E-4,8.05E-4,-8.98E-4,10.8,1.74,-84.72,283.8057,-0.7089,-0.9505,55.814068,37.500385,210.7,NaN,,12.078001,,0 / 1,,5220,2021-05-02 17:08:46:462
0.143657,0.122108,9.799767,0.163578,0.120849,9.804542,-5.85E-4,-0.001638,-0.003952,10.8,1.74,-84.72,283.8057,-0.7089,-0.9505,55.814068,37.500385,210.7,NaN,,12.078001,,0 / 1,,5231,2021-05-02 17:08:46:473
0.136474,0.117319,9.79019,0.163479,0.120843,9.804543,-0.002418,1.94E-4,-8.98E-4,10.44,1.26,-84.54,280.1564,-0.7061,-0.9558,55.814068,37.500385,210.7,NaN,,12.078001,,0 / 1,,5240,2021-05-02 17:08:46:482
0.155628,0.126897,9.797373,0.163479,0.120843,9.804543,0.003691,-0.002249,3.24E-4,10.44,1.26,-84.54,280.1564,-0.7061,-0.9558,55.814068,37.500385,210.7,NaN,,12.078001,,0 / 1,,5250,2021-05-02 17:08:46:492
0.155628,0.126897,9.797373,0.163281,0.120973,9.804544,6.37E-4,-0.00286,0.002156,10.2,1.26,-84.24,280.1564,-0.7061,-0.9558,55.814068,37.500385,210.7,NaN,,12.078001,,0 / 1,,5260,2021-05-02 17:08:46:502
0.165205,0.117319,9.787795,0.16276,0.121077,9.804552,2.6E-5,0.002638,3.24E-4,10.32,1.56,-84.9,280.1564,-0.7061,-0.9558,55.814068,37.500385,210.7,NaN,,12.078001,,0 / 1,,5270,2021-05-02 17:08:46:512
0.177176,0.119714,9.797373,0.16276,0.121077,9.804552,2.6E-5,0.002638,3.24E-4,10.32,1.56,-84.9,280.1564,-0.7061,-0.9558,55.814068,37.500385,210.7,NaN,,12.078001,,0 / 1,,5280,2021-05-02 17:08:46:522
0.186753,0.110137,9.794978,0.162502,0.121077,9.804556,2.6E-5,-0.001027,3.24E-4,10.74,1.74,-85.2,283.7951,-0.7074,-0.951,55.814068,37.500385,210.7,NaN,,12.078001,,0 / 1,,5290,2021-05-02 17:08:46:532
0.201119,0.117319,9.778218,0.162886,0.121234,9.804547,-0.002418,-0.003471,-8.98E-4,11.28,1.32,-85.44,283.7951,-0.7074,-0.951,55.814068,37.500385,210.7,NaN,,12.078001,,0 / 1,,5300,2021-05-02 17:08:46:542
0.201119,0.117319,9.778218,0.162886,0.121234,9.804547,-5.85E-4,-0.001027,-0.003341,11.28,1.32,-85.44,283.7951,-0.7074,-0.951,55.814068,37.500385,210.7,NaN,,12.078001,,0 / 1,,5310,2021-05-02 17:08:46:552
0.167599,0.134079,9.794978,0.164161,0.121014,9.804529,-0.001807,0.002638,-0.001509,11.4,1.5,-85.2,283.7998,-0.7083,-0.9518,55.814068,37.500385,210.7,NaN,,12.078001,,0 / 1,,5320,2021-05-02 17:08:46:562
0.158022,0.126897,9.794978,0.164161,0.121014,9.804529,-0.001196,8.05E-4,0.001545,11.4,1.5,-85.2,283.7998,-0.7083,-0.9518,55.814068,37.500385,210.7,NaN,,12.078001,,0 / 1,,5331,2021-05-02 17:08:46:573
0.153234,0.134079,9.794978,0.164224,0.120787,9.804531,2.6E-5,-0.001027,-8.98E-4,11.1,1.86,-85.44,283.7998,-0.7083,-0.9518,55.814068,37.500385,210.7,NaN,,12.078001,,0 / 1,,5340,2021-05-02 17:08:46:582
0.153234,0.134079,9.794978,0.164224,0.120787,9.804531,-5.85E-4,-0.001027,0.002156,11.1,1.86,-85.44,283.7998,-0.7083,-0.9518,55.814068,37.500385,210.7,NaN,,12.078001,,0 / 1,,5350,2021-05-02 17:08:46:592
0.148445,0.126897,9.792584,0.164002,0.121021,9.804532,-0.001196,8.05E-4,-2.87E-4,11.4,1.02,-84.78,279.3461,-0.7057,-0.9596,55.814068,37.500385,210.7,NaN,,12.078001,,0 / 1,,5360,2021-05-02 17:08:46:602
0.155628,0.110137,9.783007,0.164002,0.121021,9.804532,-0.001196,8.05E-4,-2.87E-4,11.4,1.02,-84.78,279.3461,-0.7057,-0.9596,55.814068,37.500385,210.7,NaN,,12.078001,,0 / 1,,5370,2021-05-02 17:08:46:612
0.160416,0.131685,9.787795,0.163925,0.120914,9.804534,6.37E-4,8.05E-4,-0.001509,11.22,1.08,-84.6,279.3461,-0.7057,-0.9596,55.814068,37.500385,210.7,NaN,,12.078001,,0 / 1,,5380,2021-05-02 17:08:46:622
0.172388,0.112531,9.79019,0.164062,0.121527,9.804524,-5.85E-4,-0.00286,9.35E-4,11.04,0.9,-84.3,279.3461,-0.7057,-0.9596,55.814068,37.500385,210.7,NaN,,12.078001,,0 / 1,,5390,2021-05-02 17:08:46:632
0.172388,0.112531,9.79019,0.164062,0.121527,9.804524,-5.85E-4,-0.001027,-2.87E-4,11.04,0.9,-84.3,279.3461,-0.7057,-0.9596,55.814068,37.500385,210.7,NaN,,12.078001,,0 / 1,,5400,2021-05-02 17:08:46:642
0.167599,0.112531,9.79019,0.163913,0.121589,9.804526,-5.85E-4,-0.001027,3.24E-4,11.22,1.08,-84.42,279.3326,-0.71,-0.9587,55.814068,37.500385,210.7,NaN,,12.078001,,0 / 1,,5410,2021-05-02 17:08:46:652
0.174782,0.134079,9.794978,0.163913,0.121589,9.804526,-5.85E-4,-0.007136,3.24E-4,11.22,1.08,-84.42,279.3326,-0.71,-0.9587,55.814068,37.500385,210.7,NaN,,12.078001,,0 / 1,,5420,2021-05-02 17:08:46:662
0.184359,0.117319,9.792584,0.163913,0.121589,9.804526,-5.85E-4,0.003249,-0.001509,11.22,1.08,-84.42,279.3326,-0.71,-0.9587,55.814068,37.500385,210.7,NaN,,12.078001,,0 / 1,,5430,2021-05-02 17:08:46:672
0.181965,0.119714,9.783007,0.164494,0.120864,9.804525,-0.001196,-0.002249,3.24E-4,11.1,1.5,-84.36,279.3326,-0.71,-0.9587,55.814068,37.500385,210.7,NaN,,12.078001,,0 / 1,,5440,2021-05-02 17:08:46:682
0.181965,0.119714,9.783007,0.165399,0.120047,9.804521,-0.001196,-0.001027,-0.001509,11.22,1.38,-85.08,279.3474,-0.7062,-0.9612,55.814068,37.500385,210.7,NaN,,12.078001,,0 / 1,,5450,2021-05-02 17:08:46:692
0.165205,0.119714,9.783007,0.165399,0.120047,9.804521,-0.001196,-4.17E-4,-0.001509,11.22,1.38,-85.08,279.3474,-0.7062,-0.9612,55.814068,37.500385,210.7,NaN,,12.078001,,0 / 1,,5460,2021-05-02 17:08:46:702
0.162811,0.131685,9.77343,0.165421,0.119805,9.804523,-0.001807,-4.17E-4,-0.001509,10.98,1.44,-85.56,279.3474,-0.7062,-0.9612,55.814068,37.500385,210.7,NaN,,12.078001,,0 / 1,,5470,2021-05-02 17:08:46:712
0.165205,0.134079,9.799767,0.165421,0.119805,9.804523,-0.001807,-4.17E-4,-0.001509,10.98,1.44,-85.56,279.3474,-0.7062,-0.9612,55.814068,37.500385,210.7,NaN,,12.078001,,0 / 1,,5481,2021-05-02 17:08:46:723
0.165205,0.134079,9.799767,0.165421,0.119805,9.804523,0.001858,-4.17E-4,0.001545,10.98,1.44,-85.56,279.3474,-0.7062,-0.9612,55.814068,37.500385,210.7,NaN,,12.078001,,0 / 1,,5490,2021-05-02 17:08:46:732
0.150839,0.119714,9.79019,0.165501,0.119812,9.804522,6.37E-4,-0.001027,-0.00212,10.5,1.8,-84.96,283.7221,-0.7,-0.9671,55.814068,37.500385,210.7,NaN,,12.078001,,0 / 1,,5500,2021-05-02 17:08:46:742
0.160416,0.119714,9.766247,0.165194,0.120022,9.804523,-0.001196,-4.17E-4,-0.004563,10.74,2.22,-84.54,283.7221,-0.7,-0.9671,55.814068,37.500385,210.7,NaN,,12.078001,,0 / 1,,5510,2021-05-02 17:08:46:752
0.165205,0.124502,9.749487,0.165194,0.120022,9.804523,-0.001196,-0.001027,-0.003341,10.74,2.22,-84.54,283.7221,-0.7,-0.9671,55.814068,37.500385,210.7,NaN,,12.078001,,0 / 1,,5521,2021-05-02 17:08:46:763
0.165205,0.124502,9.749487,0.165194,0.120022,9.804523,6.37E-4,1.94E-4,-0.001509,10.74,2.22,-84.54,283.7221,-0.7,-0.9671,55.814068,37.500385,210.7,NaN,,12.078001,,0 / 1,,5530,2021-05-02 17:08:46:772
0.155628,0.102954,9.794978,0.164974,0.120417,9.804523,-5.85E-4,-0.001027,3.24E-4,10.5,2.04,-84.48,283.6975,-0.7013,-0.9653,55.814068,37.500385,210.7,NaN,,12.078001,,0 / 1,,5540,2021-05-02 17:08:46:782
0.179571,0.117319,9.799767,0.164974,0.120417,9.804523,6.37E-4,8.05E-4,0.003989,10.5,2.04,-84.48,283.6975,-0.7013,-0.9653,55.814068,37.500385,210.7,NaN,,12.078001,,0 / 1,,5550,2021-05-02 17:08:46:792
0.184359,0.110137,9.787795,0.16413,0.12021,9.80454,2.6E-5,-0.001027,0.002767,10.44,1.5,-84.48,283.6975,-0.7013,-0.9653,55.814068,37.500385,210.7,NaN,,12.078001,,0 / 1,,5560,2021-05-02 17:08:46:802
0.167599,0.119714,9.75667,0.164553,0.11963,9.80454,-5.85E-4,0.006914,-0.001509,10.8,1.8,-84.54,283.7497,-0.7023,-0.9591,55.814068,37.500385,210.7,NaN,,12.078001,,0 / 1,,5570,2021-05-02 17:08:46:812
0.167599,0.119714,9.75667,0.164553,0.11963,9.80454,2.6E-5,8.05E-4,-0.001509,10.8,1.8,-84.54,283.7497,-0.7023,-0.9591,55.814068,37.500385,210.7,NaN,,12.078001,,0 / 1,,5580,2021-05-02 17:08:46:822
0.177176,0.143657,9.780613,0.164363,0.119678,9.804543,6.37E-4,-4.17E-4,9.35E-4,10.8,1.38,-84.96,283.7497,-0.7023,-0.9591,55.814068,37.500385,210.7,NaN,,12.078001,,0 / 1,,5590,2021-05-02 17:08:46:832
0.181965,0.124502,9.780613,0.164363,0.119678,9.804543,-0.001196,1.94E-4,3.24E-4,10.8,1.38,-84.96,283.7497,-0.7023,-0.9591,55.814068,37.500385,210.7,NaN,,12.078001,,0 / 1,,5600,2021-05-02 17:08:46:842
0.167599,0.107742,9.814133,0.165182,0.120721,9.804516,-0.001196,1.94E-4,3.24E-4,10.8,1.38,-84.96,283.7497,-0.7023,-0.9591,55.814068,37.500385,210.7,NaN,,12.078001,,0 / 1,,5610,2021-05-02 17:08:46:852
0.167599,0.107742,9.814133,0.165182,0.120721,9.804516,-0.001807,0.003859,-2.87E-4,10.14,1.08,-85.38,280.1389,-0.7053,-0.9652,55.814068,37.500385,210.7,NaN,,12.078001,,0 / 1,,5620,2021-05-02 17:08:46:862
0.162811,0.119714,9.778218,0.165379,0.121721,9.8045,-0.001196,-0.001027,-0.001509,10.56,0.96,-85.02,280.1389,-0.7053,-0.9652,55.814068,37.500385,210.7,NaN,,12.078001,,0 / 1,,5630,2021-05-02 17:08:46:872
0.158022,0.124502,9.766247,0.165479,0.121608,9.8045,-5.85E-4,0.001416,-0.002731,10.56,0.96,-85.02,280.1389,-0.7053,-0.9652,55.814068,37.500385,210.7,NaN,,12.078001,,0 / 1,,5640,2021-05-02 17:08:46:882
0.165205,0.119714,9.804555,0.165201,0.121731,9.804503,0.001858,-0.001638,-0.001509,11.16,0.9,-84.54,279.3698,-0.7105,-0.9669,55.814068,37.500385,210.7,NaN,,12.078001,,0 / 1,,5650,2021-05-02 17:08:46:892
0.150839,0.126897,9.79019,0.165201,0.121731,9.804503,-5.85E-4,8.05E-4,-8.98E-4,11.16,0.9,-84.54,279.3698,-0.7105,-0.9669,55.814068,37.500385,210.7,NaN,,12.078001,,0 / 1,,5661,2021-05-02 17:08:46:903
0.150839,0.126897,9.79019,0.165201,0.121731,9.804503,-5.85E-4,1.94E-4,0.002156,11.16,0.9,-84.54,279.3698,-0.7105,-0.9669,55.814068,37.500385,210.7,NaN,,12.078001,,0 / 1,,5671,2021-05-02 17:08:46:913
0.169994,0.122108,9.79019,0.165691,0.121693,9.804496,2.6E-5,-4.17E-4,3.24E-4,11.1,1.38,-85.08,279.3698,-0.7105,-0.9669,55.814068,37.500385,210.7,NaN,,12.078001,,0 / 1,,5680,2021-05-02 17:08:46:922
0.155628,0.138868,9.778218,0.165703,0.121653,9.804496,6.37E-4,-4.17E-4,3.24E-4,11.4,0.96,-84.72,279.3718,-0.711,-0.9682,55.814068,37.500385,210.7,NaN,,12.078001,,0 / 1,,5691,2021-05-02 17:08:46:933
0.169994,0.114925,9.797373,0.165703,0.121653,9.804496,0.001247,1.94E-4,0.001545,11.4,0.96,-84.72,279.3718,-0.711,-0.9682,55.814068,37.500385,210.7,NaN,,12.078001,,0 / 1,,5701,2021-05-02 17:08:46:943
0.169994,0.114925,9.797373,0.166754,0.121648,9.804478,-0.001807,-4.17E-4,-0.001509,11.34,0.66,-83.82,279.3718,-0.711,-0.9682,55.814068,37.500385,210.7,NaN,,12.078001,,0 / 1,,5710,2021-05-02 17:08:46:952
0.174782,0.134079,9.778218,0.166754,0.121648,9.804478,2.6E-5,8.05E-4,-2.87E-4,11.34,0.66,-83.82,279.3718,-0.711,-0.9682,55.814068,37.500385,210.7,NaN,,12.078001,,0 / 1,,5720,2021-05-02 17:08:46:962
0.174782,0.134079,9.778218,0.166754,0.121648,9.804478,2.6E-5,8.05E-4,-2.87E-4,11.34,0.66,-83.82,279.3718,-0.711,-0.9682,55.814068,37.500385,210.7,NaN,,12.078001,,0 / 1,,5731,2021-05-02 17:08:46:973
0.150839,0.122108,9.778218,0.166707,0.121478,9.804481,0.001858,-0.001638,-0.001509,10.86,1.62,-84.12,283.7436,-0.7108,-0.9744,55.814068,37.500385,210.7,NaN,,12.078001,,0 / 1,,5740,2021-05-02 17:08:46:982
0.153234,0.105348,9.792584,0.166549,0.121365,9.804485,-5.85E-4,-0.00286,-2.87E-4,10.38,1.62,-84.42,283.7436,-0.7108,-0.9744,55.814068,37.500385,210.7,NaN,,12.078001,,0 / 1,,5750,2021-05-02 17:08:46:992
0.155628,0.124502,9.794978,0.166549,0.121365,9.804485,0.00308,1.94E-4,0.001545,10.38,1.62,-84.42,283.7436,-0.7108,-0.9744,55.814068,37.500385,210.7,NaN,,12.078001,,0 / 1,,5760,2021-05-02 17:08:47:002
0.179571,0.110137,9.79019,0.166161,0.12105,9.804495,2.6E-5,-0.001027,-0.001509,10.2,1.2,-85.08,280.1555,-0.7091,-0.9732,55.814068,37.500385,210.7,NaN,,12.078001,,0 / 1,,5770,2021-05-02 17:08:47:012
0.179571,0.110137,9.79019,0.166161,0.12105,9.804495,-5.85E-4,0.002027,0.003378,10.2,1.2,-85.08,280.1555,-0.7091,-0.9732,55.814068,37.500385,210.7,NaN,,12.078001,,0 / 1,,5781,2021-05-02 17:08:47:023
0.201119,0.119714,9.787795,0.166161,0.12105,9.804495,6.37E-4,8.05E-4,-2.87E-4,10.2,1.2,-85.08,280.1555,-0.7091,-0.9732,55.814068,37.500385,210.7,NaN,,12.078001,,0 / 1,,5790,2021-05-02 17:08:47:032
0.169994,0.114925,9.77343,0.166362,0.120562,9.804498,2.6E-5,-0.001638,-2.87E-4,10.2,1.68,-84.96,280.1555,-0.7091,-0.9732,55.814068,37.500385,210.7,NaN,,12.078001,,0 / 1,,5800,2021-05-02 17:08:47:042
0.169994,0.122108,9.794978,0.167579,0.119859,9.804485,-5.85E-4,-4.17E-4,-0.00212,9.9,1.26,-84.6,280.1232,-0.7044,-0.9721,55.814068,37.500385,210.7,NaN,,12.078001,,0 / 1,,5810,2021-05-02 17:08:47:052
0.165205,0.124502,9.775824,0.167579,0.119859,9.804485,0.002469,0.002027,0.002767,9.9,1.26,-84.6,280.1232,-0.7044,-0.9721,55.814068,37.500385,210.7,NaN,,12.078001,,0 / 1,,5820,2021-05-02 17:08:47:062
0.165205,0.124502,9.775824,0.168473,0.11948,9.804475,0.002469,1.94E-4,9.35E-4,10.14,1.5,-85.14,280.1232,-0.7044,-0.9721,55.814068,37.500385,210.7,NaN,,12.078001,,0 / 1,,5830,2021-05-02 17:08:47:072
0.158022,0.131685,9.778218,0.168473,0.11948,9.804475,6.37E-4,0.001416,0.003378,10.14,1.5,-85.14,280.1232,-0.7044,-0.9721,55.814068,37.500385,210.7,NaN,,12.078001,,0 / 1,,5840,2021-05-02 17:08:47:082
0.141262,0.124502,9.794978,0.168473,0.11948,9.804475,6.37E-4,0.001416,0.003378,10.14,1.5,-85.14,280.1232,-0.7044,-0.9721,55.814068,37.500385,210.7,NaN,,12.078001,,0 / 1,,5851,2021-05-02 17:08:47:093
0.141262,0.138868,9.783007,0.168305,0.119781,9.804474,-5.85E-4,-4.17E-4,-2.87E-4,10.62,1.98,-84.9,283.6821,-0.6981,-0.9844,55.814068,37.500385,210.7,NaN,,12.078001,,0 / 1,,5860,2021-05-02 17:08:47:102
0.141262,0.138868,9.783007,0.167029,0.120613,9.804486,-0.001807,0.002638,-2.87E-4,10.86,1.32,-84.9,283.6821,-0.6981,-0.9844,55.814068,37.500385,210.7,NaN,,12.078001,,0 / 1,,5870,2021-05-02 17:08:47:112
0.162811,0.117319,9.794978,0.167029,0.120613,9.804486,-0.001807,1.94E-4,-2.87E-4,10.86,1.32,-84.9,283.6821,-0.6981,-0.9844,55.814068,37.500385,210.7,NaN,,12.078001,,0 / 1,,5880,2021-05-02 17:08:47:122
0.167599,0.129291,9.809344,0.165513,0.121185,9.804504,6.37E-4,-0.001638,-0.001509,10.44,1.02,-85.26,280.1203,-0.7047,-0.976,55.814068,37.500385,210.7,NaN,,12.078001,,0 / 1,,5891,2021-05-02 17:08:47:133
0.167599,0.129291,9.809344,0.165513,0.121185,9.804504,0.001858,1.94E-4,-0.001509,10.44,1.02,-85.26,280.1203,-0.7047,-0.976,55.814068,37.500385,210.7,NaN,,12.078001,,0 / 1,,5900,2021-05-02 17:08:47:142
0.167599,0.124502,9.792584,0.165513,0.121185,9.804504,2.6E-5,0.002027,-2.87E-4,10.44,1.02,-85.26,280.1203,-0.7047,-0.976,55.814068,37.500385,210.7,NaN,,12.078001,,0 / 1,,5910,2021-05-02 17:08:47:152
0.186753,0.122108,9.785401,0.165078,0.121592,9.804506,-0.001196,-0.002249,-2.87E-4,10.2,1.14,-84.84,280.1203,-0.7047,-0.976,55.814068,37.500385,210.7,NaN,,12.078001,,0 / 1,,5920,2021-05-02 17:08:47:162
0.172388,0.114925,9.783007,0.165447,0.121534,9.804502,-0.001807,0.001416,-8.98E-4,10.08,1.44,-84.78,280.1763,-0.7104,-0.9646,55.814068,37.500385,210.7,NaN,,12.078001,,0 / 1,,5930,2021-05-02 17:08:47:172
0.179571,0.110137,9.766247,0.165447,0.121534,9.804502,6.37E-4,-4.17E-4,-8.98E-4,10.08,1.44,-84.78,280.1763,-0.7104,-0.9646,55.814068,37.500385,210.7,NaN,,12.078001,,0 / 1,,5940,2021-05-02 17:08:47:182
0.184359,0.107742,9.780613,0.165405,0.121662,9.804501,6.37E-4,0.002638,-0.00212,10.98,2.28,-84.72,280.1763,-0.7104,-0.9646,55.814068,37.500385,210.7,NaN,,12.078001,,0 / 1,,5950,2021-05-02 17:08:47:192
0.184359,0.107742,9.780613,0.165405,0.121662,9.804501,2.6E-5,-0.002249,-8.98E-4,10.98,2.28,-84.72,280.1763,-0.7104,-0.9646,55.814068,37.500385,210.7,NaN,,12.078001,,0 / 1,,5960,2021-05-02 17:08:47:202
0.143657,0.117319,9.80695,0.165405,0.121662,9.804501,-0.001807,1.94E-4,0.002156,10.98,2.28,-84.72,280.1763,-0.7104,-0.9646,55.814068,37.500385,210.7,NaN,,12.078001,,0 / 1,,5970,2021-05-02 17:08:47:212
