ACCELEROMETER X (m/s²),ACCELEROMETER Y (m/s²),ACCELEROMETER Z (m/s²),GRAVITY X (m/s²),GRAVITY Y (m/s²),GRAVITY Z (m/s²),GYROSCOPE X (rad/s),GYROSCOPE Y (rad/s),GYROSCOPE Z (rad/s),MAGNETIC FIELD X (μT),MAGNETIC FIELD Y (μT),MAGNETIC FIELD Z (μT),ORIENTATION Z (azimuth °),ORIENTATION X (pitch °),ORIENTATION Y (roll °),LOCATION Latitude : ,LOCATION Longitude : ,LOCATION Altitude ( m),LOCATION Altitude-google ( m),LOCATION Speed ( m/s),LOCATION Accuracy ( m),LOCATION ORIENTATION (°),Satellites in range,GPS NMEA,Time since start in ms ,YYYY-MO-DD HH-MI-SS_SSS
0.110137,0.131685,9.708784,0.113539,0.131067,9.805117,-0.001709,-0.001453,-0.001122,5.94,-32.28,-44.82,191.7316,-0.7655,-0.6627,55.813812,37.500263,220.903,NaN,0.0,48.0,,11 / 12,,36,2021-05-02 18:36:18:730
0.110137,0.131685,9.708784,0.113539,0.131067,9.805117,-0.001709,-2.31E-4,-0.001732,5.94,-32.28,-44.82,191.7316,-0.7655,-0.6627,55.813812,37.500263,220.903,NaN,0.0,48.0,,11 / 12,,42,2021-05-02 18:36:18:736
0.126897,0.141262,9.718362,0.113539,0.131067,9.805117,0.001346,-0.001453,7.11E-4,6.24,-31.5,-44.46,191.7316,-0.7655,-0.6627,55.813812,37.500263,220.903,NaN,0.0,48.0,,11 / 12,,53,2021-05-02 18:36:18:747
0.119714,0.129291,9.713573,0.114104,0.131006,9.805112,-0.001709,0.002213,-5.11E-4,6.48,-31.86,-44.34,191.7119,-0.7654,-0.6667,55.813812,37.500263,220.903,NaN,0.0,48.0,,11 / 12,,63,2021-05-02 18:36:18:757
0.107742,0.124502,9.727939,0.114104,0.131006,9.805112,-0.001709,0.002213,-5.11E-4,6.48,-31.86,-44.34,191.7119,-0.7654,-0.6667,55.813812,37.500263,220.903,NaN,0.0,48.0,,11 / 12,,72,2021-05-02 18:36:18:766
0.107742,0.124502,9.727939,0.114322,0.130845,9.805111,-0.001098,3.8E-4,-0.002343,7.02,-32.34,-44.82,191.7119,-0.7654,-0.6667,55.813812,37.500263,220.903,NaN,0.0,48.0,,11 / 12,,83,2021-05-02 18:36:18:777
0.119714,0.131685,9.70639,0.114322,0.130845,9.805111,1.24E-4,3.8E-4,-0.001122,7.02,-32.34,-44.82,191.7119,-0.7654,-0.6667,55.813812,37.500263,220.903,NaN,0.0,48.0,,11 / 12,,93,2021-05-02 18:36:18:787
0.107742,0.124502,9.72315,0.114473,0.131541,9.805099,-4.87E-4,-0.001453,0.001933,7.14,-32.34,-44.46,191.7119,-0.7654,-0.6667,55.813812,37.500263,220.903,NaN,0.0,48.0,,11 / 12,,103,2021-05-02 18:36:18:797
0.107742,0.117319,9.727939,0.114473,0.131541,9.805099,1.24E-4,-0.002064,-0.002343,6.66,-32.58,-44.1,193.0524,-0.7686,-0.6689,55.813812,37.500263,220.903,NaN,0.0,48.0,,11 / 12,,112,2021-05-02 18:36:18:806
0.105348,0.126897,9.713573,0.114615,0.131983,9.805092,7.35E-4,-0.001453,-0.001732,6.66,-32.58,-44.1,193.0524,-0.7686,-0.6689,55.813812,37.500263,220.903,NaN,0.0,48.0,,11 / 12,,122,2021-05-02 18:36:18:816
0.105348,0.126897,9.713573,0.114615,0.131983,9.805092,0.003178,-8.42E-4,7.11E-4,6.66,-32.28,-44.76,193.0524,-0.7686,-0.6689,55.813812,37.500263,220.903,NaN,0.0,48.0,,11 / 12,,132,2021-05-02 18:36:18:826
0.117319,0.129291,9.730332,0.114683,0.132054,9.80509,0.001346,3.8E-4,7.11E-4,5.4,-32.28,-44.76,193.0524,-0.7686,-0.6689,55.813812,37.500263,220.903,NaN,0.0,48.0,,11 / 12,,143,2021-05-02 18:36:18:837
0.122108,0.119714,9.708784,0.114683,0.132054,9.80509,-0.001098,-0.003285,-0.001732,5.4,-32.28,-44.76,193.0524,-0.7686,-0.6689,55.813812,37.500263,220.903,NaN,0.0,48.0,,11 / 12,,152,2021-05-02 18:36:18:846
0.122108,0.131685,9.713573,0.115044,0.132114,9.805085,-0.001709,-0.001453,-0.001122,5.52,-32.34,-44.58,191.7436,-0.7716,-0.6701,55.813812,37.500263,220.903,NaN,0.0,48.0,,11 / 12,,163,2021-05-02 18:36:18:857
0.122108,0.131685,9.713573,0.115044,0.132114,9.805085,1.24E-4,-8.42E-4,-0.002343,5.52,-32.34,-44.58,191.7436,-0.7716,-0.6701,55.813812,37.500263,220.903,NaN,0.0,48.0,,11 / 12,,172,2021-05-02 18:36:18:866
0.107742,0.129291,9.687236,0.115438,0.1316,9.805087,-0.001709,-8.42E-4,-0.002954,6.48,-32.16,-43.8,191.7436,-0.7716,-0.6701,55.813812,37.500263,220.903,NaN,0.0,48.0,,11 / 12,,183,2021-05-02 18:36:18:877
0.102954,0.129291,9.72315,0.114906,0.131619,9.805094,-4.87E-4,-8.42E-4,0.001322,7.26,-32.1,-44.04,193.4606,-0.7689,-0.6745,55.813812,37.500263,220.903,NaN,0.0,48.0,,11 / 12,,192,2021-05-02 18:36:18:886
0.095771,0.136474,9.715967,0.114906,0.131619,9.805094,-4.87E-4,-8.42E-4,0.001322,7.26,-32.1,-44.04,193.4606,-0.7689,-0.6745,55.813812,37.500263,220.903,NaN,0.0,48.0,,11 / 12,,203,2021-05-02 18:36:18:897
0.095771,0.136474,9.715967,0.114906,0.131619,9.805094,1.24E-4,-0.001453,-5.11E-4,7.26,-32.1,-44.04,193.4606,-0.7689,-0.6745,55.813812,37.500263,220.903,NaN,0.0,48.0,,11 / 12,,213,2021-05-02 18:36:18:907
0.110137,0.126897,9.720756,0.114689,0.1318,9.805094,-0.002319,-0.001453,-0.001732,7.14,-32.22,-44.46,193.4606,-0.7689,-0.6745,55.813812,37.500263,220.903,NaN,0.0,48.0,,11 / 12,,222,2021-05-02 18:36:18:916
0.122108,0.136474,9.718362,0.114689,0.1318,9.805094,-4.87E-4,-8.42E-4,0.003765,7.14,-32.22,-44.46,193.4606,-0.7689,-0.6745,55.813812,37.500263,220.903,NaN,0.0,48.0,,11 / 12,,232,2021-05-02 18:36:18:926
0.107742,0.136474,9.730332,0.114747,0.131574,9.805096,-4.87E-4,-0.002674,-0.001122,6.72,-31.56,-44.1,193.4552,-0.7701,-0.6702,55.813812,37.500263,220.903,NaN,0.0,48.0,,11 / 12,,242,2021-05-02 18:36:18:936
0.107742,0.136474,9.730332,0.114747,0.131574,9.805096,0.001346,3.8E-4,0.001933,6.72,-31.56,-44.1,193.4552,-0.7701,-0.6702,55.813812,37.500263,220.903,NaN,0.0,48.0,,11 / 12,,253,2021-05-02 18:36:18:947
0.110137,0.124502,9.735122,0.114739,0.131298,9.8051,-4.87E-4,-0.001453,-5.11E-4,6.18,-31.8,-44.34,193.4552,-0.7701,-0.6702,55.813812,37.500263,220.903,NaN,0.0,48.0,,11 / 12,,262,2021-05-02 18:36:18:956
0.124502,0.131685,9.701602,0.114739,0.131298,9.8051,-0.001098,-8.42E-4,1.0E-4,6.18,-31.8,-44.34,193.4552,-0.7701,-0.6702,55.813812,37.500263,220.903,NaN,0.0,48.0,,11 / 12,,273,2021-05-02 18:36:18:967
0.10056,0.122108,9.718362,0.114845,0.131386,9.805097,0.001346,3.8E-4,1.0E-4,6.06,-32.28,-44.46,191.7174,-0.7671,-0.6704,55.813812,37.500263,220.903,NaN,0.0,48.0,,11 / 12,,282,2021-05-02 18:36:18:976
0.10056,0.122108,9.718362,0.114845,0.131386,9.805097,0.001346,3.8E-4,1.0E-4,6.06,-32.28,-44.46,191.7174,-0.7671,-0.6704,55.813812,37.500263,220.903,NaN,0.0,48.0,,11 / 12,,292,2021-05-02 18:36:18:986
0.110137,0.119714,9.737515,0.11488,0.131166,9.8051,-0.001098,-0.003285,-0.001122,6.18,-32.4,-43.74,191.7174,-0.7671,-0.6704,55.813812,37.500263,220.903,NaN,0.0,48.0,,11 / 12,,303,2021-05-02 18:36:18:997
0.124502,0.148445,9.713573,0.115204,0.131072,9.805097,7.35E-4,3.8E-4,7.11E-4,6.54,-32.04,-44.16,191.7174,-0.7671,-0.6704,55.813812,37.500263,220.903,NaN,0.0,48.0,,11 / 12,,312,2021-05-02 18:36:19:006
0.122108,0.141262,9.703996,0.115128,0.130902,9.8051,-0.001709,-0.001453,-0.001122,6.54,-31.2,-44.4,193.8834,-0.7658,-0.6732,55.813812,37.500263,220.903,NaN,0.0,48.0,,11 / 12,,323,2021-05-02 18:36:19:017
0.105348,0.129291,9.732727,0.115128,0.130902,9.8051,-0.001709,-8.42E-4,0.001322,6.54,-31.2,-44.4,193.8834,-0.7658,-0.6732,55.813812,37.500263,220.903,NaN,0.0,48.0,,11 / 12,,332,2021-05-02 18:36:19:026
0.122108,0.126897,9.718362,0.115419,0.130694,9.8051,7.35E-4,-0.002064,-0.001122,6.48,-31.38,-44.58,193.8834,-0.7658,-0.6732,55.813812,37.500263,220.903,NaN,0.0,48.0,,11 / 12,,342,2021-05-02 18:36:19:036
0.122108,0.126897,9.718362,0.115419,0.130694,9.8051,-0.002319,-0.002064,-0.001122,6.48,-31.38,-44.58,193.8834,-0.7658,-0.6732,55.813812,37.500263,220.903,NaN,0.0,48.0,,11 / 12,,352,2021-05-02 18:36:19:046
0.105348,0.134079,9.701602,0.115927,0.130659,9.805094,-0.002319,-2.31E-4,-0.002343,6.72,-31.98,-45.06,193.4846,-0.7636,-0.6744,55.813812,37.500263,220.903,NaN,0.0,48.0,,11 / 12,,362,2021-05-02 18:36:19:056
0.110137,0.148445,9.718362,0.115927,0.130659,9.805094,-4.87E-4,3.8E-4,0.002544,6.72,-31.98,-45.06,193.4846,-0.7636,-0.6744,55.813812,37.500263,220.903,NaN,0.0,48.0,,11 / 12,,372,2021-05-02 18:36:19:066
0.112531,0.10056,9.725544,0.115687,0.131179,9.80509,0.001957,9.91E-4,-5.11E-4,6.48,-32.28,-44.52,193.4846,-0.7636,-0.6744,55.813812,37.500263,220.903,NaN,0.0,48.0,,11 / 12,,382,2021-05-02 18:36:19:076
0.112531,0.10056,9.725544,0.115687,0.131179,9.80509,-0.00293,-8.42E-4,-0.001122,6.48,-32.28,-44.52,193.4846,-0.7636,-0.6744,55.813812,37.500263,220.903,NaN,0.0,48.0,,11 / 12,,392,2021-05-02 18:36:19:086
0.107742,0.136474,9.711179,0.115694,0.131258,9.805089,-4.87E-4,-8.42E-4,0.001322,6.78,-32.4,-44.4,193.4846,-0.7636,-0.6744,55.813812,37.500263,220.903,NaN,0.0,48.0,,11 / 12,,402,2021-05-02 18:36:19:096
0.110137,0.131685,9.718362,0.115694,0.131258,9.805089,-4.87E-4,-2.31E-4,-0.003565,6.78,-32.4,-44.4,193.4846,-0.7636,-0.6744,55.813812,37.500263,220.903,NaN,0.0,48.0,,11 / 12,,413,2021-05-02 18:36:19:107
0.119714,0.131685,9.701602,0.115445,0.131346,9.805091,-4.87E-4,9.91E-4,0.001933,7.08,-32.7,-44.64,193.0861,-0.7669,-0.676,55.813812,37.500263,220.903,NaN,0.0,48.0,,11 / 12,,422,2021-05-02 18:36:19:116
0.119714,0.131685,9.701602,0.115445,0.131346,9.805091,-0.002319,-0.002674,-5.11E-4,7.08,-32.7,-44.64,193.0861,-0.7669,-0.676,55.813812,37.500263,220.903,NaN,0.0,48.0,,11 / 12,,432,2021-05-02 18:36:19:126
0.110137,0.114925,9.725544,0.115554,0.131609,9.805086,-0.001709,-2.31E-4,-0.001732,7.08,-32.1,-44.34,193.0861,-0.7669,-0.676,55.813812,37.500263,220.903,NaN,0.0,48.0,,11 / 12,,442,2021-05-02 18:36:19:136
0.122108,0.138868,9.742304,0.115554,0.131609,9.805086,-0.001709,-0.001453,-5.11E-4,7.08,-32.1,-44.34,193.0861,-0.7669,-0.676,55.813812,37.500263,220.903,NaN,0.0,48.0,,11 / 12,,452,2021-05-02 18:36:19:146
0.105348,0.136474,9.70639,0.115261,0.130932,9.805099,1.24E-4,-0.002674,-0.001732,6.78,-31.86,-44.28,193.4615,-0.769,-0.6752,55.813812,37.500263,220.903,NaN,0.0,48.0,,11 / 12,,462,2021-05-02 18:36:19:156
0.122108,0.136474,9.713573,0.115261,0.130932,9.805099,-4.87E-4,0.001602,0.001322,6.78,-31.86,-44.28,193.4615,-0.769,-0.6752,55.813812,37.500263,220.903,NaN,0.0,48.0,,11 / 12,,472,2021-05-02 18:36:19:166
0.122108,0.136474,9.713573,0.115122,0.130772,9.805102,-0.001709,-2.31E-4,7.11E-4,6.84,-32.04,-43.68,193.4615,-0.769,-0.6752,55.813812,37.500263,220.903,NaN,0.0,48.0,,11 / 12,,482,2021-05-02 18:36:19:176
0.122108,0.129291,9.703996,0.115122,0.130772,9.805102,-0.001709,-2.31E-4,7.11E-4,6.84,-32.04,-43.68,193.4615,-0.769,-0.6752,55.813812,37.500263,220.903,NaN,0.0,48.0,,11 / 12,,492,2021-05-02 18:36:19:186
0.114925,0.117319,9.701602,0.115671,0.130732,9.805096,7.35E-4,0.002213,-0.001122,7.14,-32.04,-43.32,193.4309,-0.7641,-0.6727,55.813812,37.500263,220.903,NaN,0.0,48.0,,11 / 12,,502,2021-05-02 18:36:19:196
0.098165,0.143657,9.718362,0.115671,0.130732,9.805096,-0.001709,-8.42E-4,1.0E-4,7.14,-32.04,-43.32,193.4309,-0.7641,-0.6727,55.813812,37.500263,220.903,NaN,0.0,48.0,,11 / 12,,512,2021-05-02 18:36:19:206
0.114925,0.131685,9.715967,0.116002,0.130519,9.805096,-0.001098,0.003434,-0.002954,7.44,-32.46,-43.68,193.4309,-0.7641,-0.6727,55.813812,37.500263,220.903,NaN,0.0,48.0,,11 / 12,,523,2021-05-02 18:36:19:217
0.114925,0.131685,9.715967,0.116002,0.130519,9.805096,-0.002319,-0.001453,-0.002343,7.44,-32.46,-43.68,193.4309,-0.7641,-0.6727,55.813812,37.500263,220.903,NaN,0.0,48.0,,11 / 12,,532,2021-05-02 18:36:19:226
0.119714,0.117319,9.730332,0.115772,0.13074,9.805096,-0.001098,-8.42E-4,1.0E-4,7.32,-31.98,-43.5,193.437,-0.7626,-0.6778,55.813812,37.500263,220.903,NaN,0.0,48.0,,11 / 12,,542,2021-05-02 18:36:19:236
0.124502,0.148445,9.711179,0.115772,0.13074,9.805096,-4.87E-4,3.8E-4,-0.001122,7.32,-31.98,-43.5,193.437,-0.7626,-0.6778,55.813812,37.500263,220.903,NaN,0.0,48.0,,11 / 12,,552,2021-05-02 18:36:19:246
0.126897,0.141262,9.713573,0.115935,0.131333,9.805085,-4.87E-4,3.8E-4,-0.002954,7.32,-31.62,-43.32,193.437,-0.7626,-0.6778,55.813812,37.500263,220.903,NaN,0.0,48.0,,11 / 12,,562,2021-05-02 18:36:19:256
0.126897,0.141262,9.713573,0.115935,0.131333,9.805085,-4.87E-4,-0.002674,-0.002954,7.32,-31.62,-43.32,193.437,-0.7626,-0.6778,55.813812,37.500263,220.903,NaN,0.0,48.0,,11 / 12,,572,2021-05-02 18:36:19:266
0.117319,0.131685,9.708784,0.116089,0.131297,9.805083,-0.002319,-0.001453,0.001322,7.02,-32.16,-43.68,193.4639,-0.7673,-0.6774,55.813812,37.500263,220.903,NaN,0.0,48.0,,11 / 12,,583,2021-05-02 18:36:19:277
0.107742,0.129291,9.720756,0.116089,0.131297,9.805083,-0.001098,0.001602,7.11E-4,7.02,-32.16,-43.68,193.4639,-0.7673,-0.6774,55.813812,37.500263,220.903,NaN,0.0,48.0,,11 / 12,,592,2021-05-02 18:36:19:286
0.102954,0.146051,9.73991,0.116359,0.131624,9.805077,-0.001098,-8.42E-4,-0.002954,6.78,-32.34,-43.62,193.4639,-0.7673,-0.6774,55.813812,37.500263,220.903,NaN,0.0,48.0,,11 / 12,,602,2021-05-02 18:36:19:296
0.102954,0.146051,9.73991,0.116359,0.131624,9.805077,-4.87E-4,3.8E-4,-0.002954,7.02,-31.8,-43.8,193.4677,-0.769,-0.6799,55.813812,37.500263,220.903,NaN,0.0,48.0,,11 / 12,,613,2021-05-02 18:36:19:307
0.107742,0.136474,9.715967,0.11634,0.131824,9.805075,-0.001098,-0.001453,-0.001122,7.02,-31.8,-43.8,193.4677,-0.769,-0.6799,55.813812,37.500263,220.903,NaN,0.0,48.0,,11 / 12,,622,2021-05-02 18:36:19:316
0.102954,0.131685,9.701602,0.116519,0.131689,9.805074,-0.003541,-0.003285,-0.002954,7.08,-31.86,-44.58,193.4677,-0.769,-0.6799,55.813812,37.500263,220.903,NaN,0.0,48.0,,11 / 12,,633,2021-05-02 18:36:19:327
0.107742,0.136474,9.720756,0.116519,0.131689,9.805074,-0.003541,-0.003285,-0.002954,7.08,-31.86,-44.58,193.4677,-0.769,-0.6799,55.813812,37.500263,220.903,NaN,0.0,48.0,,11 / 12,,642,2021-05-02 18:36:19:336
0.107742,0.134079,9.703996,0.116519,0.131689,9.805074,-0.001709,-0.005118,0.002544,7.08,-31.86,-44.58,193.4677,-0.769,-0.6799,55.813812,37.500263,220.903,NaN,0.0,48.0,,11 / 12,,652,2021-05-02 18:36:19:346
0.107742,0.134079,9.703996,0.116012,0.133027,9.805061,-0.002319,-0.003896,-0.002343,6.96,-31.8,-44.64,193.4952,-0.7694,-0.6808,55.813812,37.500263,220.903,NaN,0.0,48.0,,11 / 12,,662,2021-05-02 18:36:19:356
0.112531,0.141262,9.72315,0.116012,0.133027,9.805061,-0.001709,-0.003896,-0.001122,6.96,-31.8,-44.64,193.4952,-0.7694,-0.6808,55.813812,37.500263,220.903,NaN,0.0,48.0,,11 / 12,,672,2021-05-02 18:36:19:366
0.090982,0.110137,9.718362,0.1157,0.133812,9.805055,-0.001709,-8.42E-4,1.0E-4,6.9,-31.32,-44.4,193.4952,-0.7694,-0.6808,55.813835,37.500233,218.2619,NaN,0.0,48.0,,13 / 14,,682,2021-05-02 18:36:19:376
0.107742,0.146051,9.718362,0.1157,0.133812,9.805055,1.24E-4,3.8E-4,1.0E-4,6.9,-31.32,-44.4,193.4952,-0.7694,-0.6808,55.813835,37.500233,218.2619,NaN,0.0,48.0,,13 / 14,,692,2021-05-02 18:36:19:386
0.114925,0.126897,9.713573,0.115515,0.134286,9.80505,-0.001709,-2.31E-4,0.001933,6.72,-31.62,-44.1,193.4952,-0.7694,-0.6808,55.813835,37.500233,218.2619,NaN,0.0,48.0,,13 / 14,,702,2021-05-02 18:36:19:396
0.126897,0.117319,9.725544,0.115021,0.134458,9.805054,-0.001098,-0.003285,-5.11E-4,7.02,-32.34,-43.98,193.4662,-0.7846,-0.675,55.813835,37.500233,218.2619,NaN,0.0,48.0,,13 / 14,,712,2021-05-02 18:36:19:406
0.126897,0.117319,9.725544,0.115021,0.134458,9.805054,-4.87E-4,-0.002674,-5.11E-4,7.02,-32.34,-43.98,193.4662,-0.7846,-0.675,55.813835,37.500233,218.2619,NaN,0.0,48.0,,13 / 14,,722,2021-05-02 18:36:19:416
0.119714,0.122108,9.713573,0.115021,0.134458,9.805054,0.001957,-2.31E-4,-0.001732,7.2,-33.12,-43.62,193.4662,-0.7846,-0.675,55.813835,37.500233,218.2619,NaN,0.0,48.0,,13 / 14,,732,2021-05-02 18:36:19:426
0.110137,0.143657,9.720756,0.115424,0.134178,9.805053,-0.002319,-0.003285,-0.004176,7.2,-33.12,-43.62,193.4662,-0.7846,-0.675,55.813835,37.500233,218.2619,NaN,0.0,48.0,,13 / 14,,742,2021-05-02 18:36:19:436
0.110137,0.143657,9.720756,0.115424,0.134178,9.805053,-0.002319,-0.003285,-0.004176,7.2,-33.12,-43.62,193.4662,-0.7846,-0.675,55.813835,37.500233,218.2619,NaN,0.0,48.0,,13 / 14,,752,2021-05-02 18:36:19:446
0.119714,0.143657,9.72315,0.115752,0.134145,9.805049,-0.001709,-0.002064,-0.002954,6.84,-33.48,-43.74,193.0666,-0.7838,-0.6764,55.813835,37.500233,218.2619,NaN,0.0,48.0,,13 / 14,,762,2021-05-02 18:36:19:456
0.119714,0.148445,9.730332,0.115752,0.134145,9.805049,-0.002319,-0.002674,-0.001732,6.84,-33.48,-43.74,193.0666,-0.7838,-0.6764,55.813835,37.500233,218.2619,NaN,0.0,48.0,,13 / 14,,772,2021-05-02 18:36:19:466
0.105348,0.136474,9.718362,0.11651,0.134971,9.805029,-4.87E-4,-0.005729,-0.002954,6.6,-33.3,-44.16,193.0666,-0.7838,-0.6764,55.813835,37.500233,218.2619,NaN,0.0,48.0,,13 / 14,,782,2021-05-02 18:36:19:476
0.105348,0.136474,9.718362,0.11651,0.134971,9.805029,-0.001709,-0.003896,1.0E-4,6.6,-33.3,-44.16,193.0666,-0.7838,-0.6764,55.813835,37.500233,218.2619,NaN,0.0,48.0,,13 / 14,,792,2021-05-02 18:36:19:486
0.148445,0.146051,9.718362,0.117283,0.134808,9.805022,-0.001098,-0.003896,-5.11E-4,7.02,-32.46,-44.46,193.4752,-0.7886,-0.6808,55.813835,37.500233,218.2619,NaN,0.0,48.0,,13 / 14,,802,2021-05-02 18:36:19:496
0.136474,0.146051,9.727939,0.117283,0.134808,9.805022,-0.002319,-0.005729,-0.004787,7.02,-32.46,-44.46,193.4752,-0.7886,-0.6808,55.813835,37.500233,218.2619,NaN,0.0,48.0,,13 / 14,,813,2021-05-02 18:36:19:507
0.112531,0.136474,9.732727,0.118424,0.134981,9.805006,-0.001098,-0.004507,-0.001122,7.02,-31.92,-44.4,193.4752,-0.7886,-0.6808,55.813835,37.500233,218.2619,NaN,0.0,48.0,,13 / 14,,822,2021-05-02 18:36:19:516
0.112531,0.136474,9.732727,0.118424,0.134981,9.805006,-0.001709,-0.00695,-0.003565,7.02,-31.92,-44.4,193.4752,-0.7886,-0.6808,55.813835,37.500233,218.2619,NaN,0.0,48.0,,13 / 14,,832,2021-05-02 18:36:19:526
0.122108,0.134079,9.715967,0.120006,0.13485,9.804989,1.24E-4,-0.001453,-0.002343,5.88,-31.86,-43.56,191.7523,-0.7887,-0.692,55.813835,37.500233,218.2619,NaN,0.0,48.0,,13 / 14,,842,2021-05-02 18:36:19:536
0.126897,0.122108,9.718362,0.120006,0.13485,9.804989,-0.001098,-0.003285,1.0E-4,5.88,-31.86,-43.56,191.7523,-0.7887,-0.692,55.813835,37.500233,218.2619,NaN,0.0,48.0,,13 / 14,,852,2021-05-02 18:36:19:546
0.117319,0.141262,9.725544,0.121125,0.134809,9.804976,-0.001098,-0.003285,1.0E-4,6.18,-32.16,-43.14,191.7523,-0.7887,-0.692,55.813835,37.500233,218.2619,NaN,0.0,48.0,,13 / 14,,863,2021-05-02 18:36:19:557
0.117319,0.141262,9.725544,0.121125,0.134809,9.804976,-0.002319,-0.002674,-0.001732,6.18,-32.16,-43.14,191.7523,-0.7887,-0.692,55.813835,37.500233,218.2619,NaN,0.0,48.0,,13 / 14,,874,2021-05-02 18:36:19:568
0.110137,0.131685,9.715967,0.121582,0.134838,9.80497,1.24E-4,3.8E-4,-0.003565,6.84,-32.58,-43.38,193.082,-0.7876,-0.7078,55.813835,37.500233,218.2619,NaN,0.0,48.0,,13 / 14,,882,2021-05-02 18:36:19:576
0.117319,0.122108,9.713573,0.121621,0.134854,9.804969,-0.001098,-8.42E-4,-0.002343,7.02,-32.94,-44.1,193.082,-0.7876,-0.7078,55.813835,37.500233,218.2619,NaN,0.0,48.0,,13 / 14,,893,2021-05-02 18:36:19:587
0.117319,0.136474,9.718362,0.121621,0.134854,9.804969,1.24E-4,0.006489,1.0E-4,7.02,-32.94,-44.1,193.082,-0.7876,-0.7078,55.813835,37.500233,218.2619,NaN,0.0,48.0,,13 / 14,,903,2021-05-02 18:36:19:597
0.117319,0.136474,9.718362,0.121621,0.134854,9.804969,-0.00293,0.005267,-0.004787,7.02,-32.94,-44.1,193.082,-0.7876,-0.7078,55.813835,37.500233,218.2619,NaN,0.0,48.0,,13 / 14,,912,2021-05-02 18:36:19:606
0.129291,0.131685,9.720756,0.121242,0.13464,9.804976,-0.001098,0.001602,-0.001732,7.26,-33.3,-44.52,193.1381,-0.7879,-0.7107,55.813835,37.500233,218.2619,NaN,0.0,48.0,,13 / 14,,922,2021-05-02 18:36:19:616
0.126897,0.131685,9.701602,0.121242,0.13464,9.804976,-0.001098,0.001602,-0.001732,7.26,-33.3,-44.52,193.1381,-0.7879,-0.7107,55.813835,37.500233,218.2619,NaN,0.0,48.0,,13 / 14,,932,2021-05-02 18:36:19:626
0.124502,0.126897,9.715967,0.120029,0.134378,9.804995,-0.001098,0.002213,-5.11E-4,7.32,-32.82,-44.52,193.1381,-0.7879,-0.7107,55.813835,37.500233,218.2619,NaN,0.0,48.0,,13 / 14,,943,2021-05-02 18:36:19:637
0.117319,0.148445,9.720756,0.119863,0.133942,9.805003,-4.87E-4,0.004045,-0.002343,6.66,-32.58,-44.22,193.0991,-0.7851,-0.7014,55.813835,37.500233,218.2619,NaN,0.0,48.0,,13 / 14,,952,2021-05-02 18:36:19:646
0.117319,0.148445,9.720756,0.119863,0.133942,9.805003,-0.002319,-2.31E-4,-0.002343,6.66,-32.58,-44.22,193.0991,-0.7851,-0.7014,55.813835,37.500233,218.2619,NaN,0.0,48.0,,13 / 14,,962,2021-05-02 18:36:19:656
0.107742,0.148445,9.708784,0.119863,0.133942,9.805003,-0.001709,-8.42E-4,-5.11E-4,6.66,-32.58,-44.22,193.0991,-0.7851,-0.7014,55.813835,37.500233,218.2619,NaN,0.0,48.0,,13 / 14,,973,2021-05-02 18:36:19:667
0.110137,0.119714,9.708784,0.119609,0.133772,9.805008,-4.87E-4,0.001602,1.0E-4,6.48,-32.82,-43.8,193.0991,-0.7851,-0.7014,55.813835,37.500233,218.2619,NaN,0.0,48.0,,13 / 14,,982,2021-05-02 18:36:19:676
0.122108,0.129291,9.732727,0.119609,0.133772,9.805008,1.24E-4,-2.31E-4,0.001933,6.48,-32.82,-43.8,193.0991,-0.7851,-0.7014,55.813835,37.500233,218.2619,NaN,0.0,48.0,,13 / 14,,992,2021-05-02 18:36:19:686
0.136474,0.126897,9.725544,0.119251,0.134283,9.805005,7.35E-4,-0.001453,-0.001122,6.54,-32.52,-43.32,193.0691,-0.7816,-0.6989,55.813835,37.500233,218.2619,NaN,0.0,48.0,,13 / 14,,1003,2021-05-02 18:36:19:697
0.136474,0.126897,9.725544,0.119709,0.134156,9.805002,-0.001709,9.91E-4,-0.001732,6.48,-32.52,-43.62,193.0691,-0.7816,-0.6989,55.813835,37.500233,218.2619,NaN,0.0,48.0,,13 / 14,,1013,2021-05-02 18:36:19:707
0.112531,0.129291,9.711179,0.119709,0.134156,9.805002,-0.001709,9.91E-4,-0.001732,6.48,-32.52,-43.62,193.0691,-0.7816,-0.6989,55.813835,37.500233,218.2619,NaN,0.0,48.0,,13 / 14,,1022,2021-05-02 18:36:19:716
0.119714,0.119714,9.708784,0.11967,0.133983,9.805005,-0.001709,9.91E-4,-0.002343,5.94,-32.34,-43.92,193.0691,-0.7816,-0.6989,55.813835,37.500233,218.2619,NaN,0.0,48.0,,13 / 14,,1034,2021-05-02 18:36:19:728
0.122108,0.146051,9.708784,0.120506,0.134249,9.804991,-0.001098,-0.003285,-0.002343,6.18,-32.1,-44.46,191.7604,-0.7828,-0.6993,55.813835,37.500233,218.2619,NaN,0.0,48.0,,13 / 14,,1042,2021-05-02 18:36:19:736
0.122108,0.146051,9.708784,0.120506,0.134249,9.804991,-0.004152,-0.002674,-0.001732,6.18,-32.1,-44.46,191.7604,-0.7828,-0.6993,55.813835,37.500233,218.2619,NaN,0.0,48.0,,13 / 14,,1052,2021-05-02 18:36:19:746
0.110137,0.134079,9.727939,0.120757,0.134025,9.804991,1.24E-4,3.8E-4,-0.001732,6.12,-32.04,-44.16,191.7604,-0.7828,-0.6993,55.813835,37.500233,218.2619,NaN,0.0,48.0,,13 / 14,,1063,2021-05-02 18:36:19:757
0.105348,0.148445,9.718362,0.120757,0.134025,9.804991,-4.87E-4,-0.001453,-0.001732,6.12,-32.04,-44.16,191.7604,-0.7828,-0.6993,55.813835,37.500233,218.2619,NaN,0.0,48.0,,13 / 14,,1072,2021-05-02 18:36:19:766
0.119714,0.138868,9.720756,0.120935,0.1344,9.804984,1.24E-4,-2.31E-4,-0.004787,6.48,-32.64,-43.86,191.7604,-0.7828,-0.6993,55.813835,37.500233,218.2619,NaN,0.0,48.0,,13 / 14,,1082,2021-05-02 18:36:19:776
0.124502,0.124502,9.713573,0.120935,0.1344,9.804984,-4.87E-4,3.8E-4,-5.11E-4,7.02,-32.64,-44.16,193.106,-0.7853,-0.7067,55.813835,37.500233,218.2619,NaN,0.0,48.0,,13 / 14,,1094,2021-05-02 18:36:19:788
0.124502,0.124502,9.713573,0.120564,0.134243,9.80499,-4.87E-4,0.002823,0.001322,7.02,-32.64,-44.16,193.106,-0.7853,-0.7067,55.813835,37.500233,218.2619,NaN,0.0,48.0,,13 / 14,,1102,2021-05-02 18:36:19:796
0.10056,0.143657,9.703996,0.120564,0.134243,9.80499,-0.002319,9.91E-4,7.11E-4,7.02,-32.64,-44.16,193.106,-0.7853,-0.7067,55.813835,37.500233,218.2619,NaN,0.0,48.0,,13 / 14,,1112,2021-05-02 18:36:19:806
0.124502,0.134079,9.70639,0.119657,0.13371,9.805009,-4.87E-4,-8.42E-4,-5.11E-4,6.72,-32.22,-44.04,193.106,-0.7853,-0.7067,55.813835,37.500233,218.2619,NaN,0.0,48.0,,13 / 14,,1122,2021-05-02 18:36:19:816
0.110137,0.150839,9.730332,0.119349,0.133075,9.805021,0.001346,9.91E-4,-0.001122,6.54,-32.28,-43.92,193.4971,-0.7812,-0.6992,55.813835,37.500233,218.2619,NaN,0.0,48.0,,13 / 14,,1132,2021-05-02 18:36:19:826
0.110137,0.150839,9.730332,0.119349,0.133075,9.805021,-4.87E-4,-8.42E-4,-5.11E-4,6.54,-32.28,-43.92,193.4971,-0.7812,-0.6992,55.813835,37.500233,218.2619,NaN,0.0,48.0,,13 / 14,,1142,2021-05-02 18:36:19:836
0.110137,0.129291,9.72315,0.119349,0.133075,9.805021,-4.87E-4,-8.42E-4,-5.11E-4,6.54,-32.28,-43.92,193.4971,-0.7812,-0.6992,55.813835,37.500233,218.2619,NaN,0.0,48.0,,13 / 14,,1152,2021-05-02 18:36:19:846
0.117319,0.129291,9.708784,0.119261,0.132809,9.805026,-0.001098,-0.002674,0.001322,6.6,-32.76,-43.56,193.4971,-0.7812,-0.6992,55.813835,37.500233,218.2619,NaN,0.0,48.0,,13 / 14,,1163,2021-05-02 18:36:19:857
0.124502,0.138868,9.737515,0.119261,0.132809,9.805026,-4.87E-4,-2.31E-4,1.0E-4,6.6,-32.76,-43.56,193.4971,-0.7812,-0.6992,55.813835,37.500233,218.2619,NaN,0.0,48.0,,13 / 14,,1172,2021-05-02 18:36:19:866
0.117319,0.129291,9.732727,0.119518,0.133153,9.805017,-0.001098,-8.42E-4,-0.002954,6.3,-33.12,-43.8,191.4022,-0.776,-0.6969,55.813835,37.500233,218.2619,NaN,0.0,48.0,,13 / 14,,1182,2021-05-02 18:36:19:876
0.117319,0.129291,9.732727,0.119518,0.133153,9.805017,-0.001098,-8.42E-4,-0.001732,6.3,-33.12,-43.8,191.4022,-0.776,-0.6969,55.813835,37.500233,218.2619,NaN,0.0,48.0,,13 / 14,,1192,2021-05-02 18:36:19:886
0.119714,0.136474,9.725544,0.120015,0.133575,9.805006,-0.00293,0.002213,-0.002343,6.9,-32.94,-44.1,191.4022,-0.776,-0.6969,55.813835,37.500233,218.2619,NaN,0.0,48.0,,13 / 14,,1202,2021-05-02 18:36:19:896
0.124502,0.131685,9.727939,0.119337,0.13373,9.805012,-0.001709,0.004045,-0.002954,7.14,-32.52,-43.62,193.0976,-0.7804,-0.7013,55.813835,37.500233,218.2619,NaN,0.0,48.0,,13 / 14,,1212,2021-05-02 18:36:19:906
0.124502,0.131685,9.727939,0.119337,0.13373,9.805012,-4.87E-4,0.005267,7.11E-4,7.14,-32.52,-43.62,193.0976,-0.7804,-0.7013,55.813835,37.500233,218.2619,NaN,0.0,48.0,,13 / 14,,1222,2021-05-02 18:36:19:916
0.114925,0.134079,9.72315,0.118693,0.133623,9.805021,-0.001709,0.008932,-0.001732,6.9,-32.34,-43.62,193.0976,-0.7804,-0.7013,55.813835,37.500233,218.2619,NaN,0.0,48.0,,13 / 14,,1232,2021-05-02 18:36:19:926
0.114925,0.141262,9.713573,0.117314,0.133677,9.805037,-0.002319,9.91E-4,0.001933,6.3,-31.86,-44.34,193.0976,-0.7804,-0.7013,55.813835,37.500233,218.2619,NaN,0.0,48.0,,13 / 14,,1242,2021-05-02 18:36:19:936
0.117319,0.146051,9.711179,0.117314,0.133677,9.805037,-0.003541,0.002823,-0.001732,6.3,-31.86,-44.34,193.0976,-0.7804,-0.7013,55.813835,37.500233,218.2619,NaN,0.0,48.0,,13 / 14,,1252,2021-05-02 18:36:19:946
0.117319,0.146051,9.711179,0.117355,0.132984,9.805046,-0.001709,3.8E-4,-5.11E-4,6.3,-32.04,-44.1,191.7415,-0.781,-0.6855,55.813835,37.500233,218.2619,NaN,0.0,48.0,,13 / 14,,1262,2021-05-02 18:36:19:956
0.119714,0.129291,9.715967,0.117355,0.132984,9.805046,-0.001098,-0.003896,1.0E-4,6.3,-32.04,-44.1,191.7415,-0.781,-0.6855,55.813835,37.500233,218.2619,NaN,0.0,48.0,,13 / 14,,1273,2021-05-02 18:36:19:967
0.114925,0.134079,9.711179,0.117897,0.133261,9.805036,-0.001098,-0.004507,0.023313,6.48,-32.1,-43.26,191.7415,-0.781,-0.6855,55.813835,37.500233,218.2619,NaN,0.0,48.0,,13 / 14,,1282,2021-05-02 18:36:19:976
0.107742,0.114925,9.742304,0.117897,0.133261,9.805036,-0.001098,-0.004507,0.023313,6.48,-32.1,-43.26,191.7415,-0.781,-0.6855,55.813835,37.500233,218.2619,NaN,0.0,48.0,,13 / 14,,1292,2021-05-02 18:36:19:986
0.138868,0.191542,9.701602,0.117528,0.132066,9.805057,-0.003541,0.00771,0.038585,6.72,-32.46,-43.44,191.7415,-0.781,-0.6855,55.813835,37.500233,218.2619,NaN,0.0,48.0,,13 / 14,,1302,2021-05-02 18:36:19:996
0.138868,0.191542,9.701602,0.116208,0.131132,9.805085,-0.001098,-0.003896,0.00682,6.6,-32.82,-43.26,193.0509,-0.7716,-0.6867,55.813835,37.500233,218.2619,NaN,0.0,48.0,,13 / 14,,1313,2021-05-02 18:36:20:007
0.117319,0.143657,9.718362,0.116208,0.131132,9.805085,0.001346,0.003434,0.001322,6.6,-32.82,-43.26,193.0509,-0.7716,-0.6867,55.813835,37.500233,218.2619,NaN,0.0,48.0,,13 / 14,,1322,2021-05-02 18:36:20:016
0.122108,0.136474,9.694419,0.116763,0.131548,9.805073,-0.001709,0.002823,1.0E-4,6.9,-32.7,-43.74,193.0509,-0.7716,-0.6867,55.813835,37.500233,218.2619,NaN,0.0,48.0,,13 / 14,,1333,2021-05-02 18:36:20:027
0.114925,0.141262,9.732727,0.116763,0.131548,9.805073,0.001957,9.91E-4,0.001322,6.9,-32.7,-43.74,193.0509,-0.7716,-0.6867,55.813835,37.500233,218.2619,NaN,0.0,48.0,,13 / 14,,1342,2021-05-02 18:36:20:036
0.114925,0.141262,9.732727,0.116763,0.131548,9.805073,0.001957,9.91E-4,0.001322,6.9,-32.7,-43.74,193.0509,-0.7716,-0.6867,55.813835,37.500233,218.2619,NaN,0.0,48.0,,13 / 14,,1352,2021-05-02 18:36:20:046
0.102954,0.143657,9.718362,0.11715,0.131486,9.805068,-0.002319,3.8E-4,-0.003565,6.84,-32.16,-44.46,193.4707,-0.7686,-0.6823,55.813835,37.500233,218.2619,NaN,0.0,48.0,,13 / 14,,1362,2021-05-02 18:36:20:056
0.095771,0.143657,9.720756,0.11715,0.131486,9.805068,-0.004152,9.91E-4,-0.002343,6.84,-32.16,-44.46,193.4707,-0.7686,-0.6823,55.813835,37.500233,218.2619,NaN,0.0,48.0,,13 / 14,,1372,2021-05-02 18:36:20:066
0.093377,0.076617,9.718362,0.117494,0.132121,9.805057,-0.002319,0.003434,0.001933,6.6,-31.74,-44.46,193.4707,-0.7686,-0.6823,55.813835,37.500233,218.2619,NaN,0.0,48.0,,13 / 14,,1382,2021-05-02 18:36:20:076
0.114925,0.122108,9.715967,0.116058,0.131257,9.805085,-0.00293,0.006489,0.0282,6.24,-31.86,-44.94,191.7662,-0.7719,-0.6865,55.813835,37.500233,218.2619,NaN,0.0,48.0,,13 / 14,,1393,2021-05-02 18:36:20:087
0.114925,0.122108,9.715967,0.116058,0.131257,9.805085,-0.002319,0.004656,0.024535,6.24,-31.86,-44.94,191.7662,-0.7719,-0.6865,55.813835,37.500233,218.2619,NaN,0.0,48.0,,13 / 14,,1402,2021-05-02 18:36:20:096
0.119714,0.160416,9.72315,0.116058,0.131257,9.805085,-4.87E-4,0.003434,0.01415,6.24,-31.86,-44.94,191.7662,-0.7719,-0.6865,55.813835,37.500233,218.2619,NaN,0.0,48.0,,13 / 14,,1413,2021-05-02 18:36:20:107
0.112531,0.158022,9.689631,0.115201,0.130519,9.805104,-0.00293,9.91E-4,0.003765,6.78,-31.92,-44.58,191.7662,-0.7719,-0.6865,55.813835,37.500233,218.2619,NaN,0.0,48.0,,13 / 14,,1422,2021-05-02 18:36:20:116
0.131685,0.126897,9.72315,0.114982,0.130816,9.805103,1.24E-4,-0.003285,7.11E-4,6.42,-32.46,-44.28,191.7662,-0.7719,-0.6865,55.813835,37.500233,218.2619,NaN,0.0,48.0,,13 / 14,,1432,2021-05-02 18:36:20:126
0.110137,0.122108,9.737515,0.115458,0.131772,9.805085,1.24E-4,-0.002674,7.11E-4,6.36,-32.22,-44.28,191.7185,-0.7643,-0.6719,55.813835,37.500233,218.2619,NaN,0.0,48.0,,13 / 14,,1443,2021-05-02 18:36:20:137
0.110137,0.122108,9.737515,0.115458,0.131772,9.805085,1.24E-4,-0.003285,-0.001732,6.36,-32.22,-44.28,191.7185,-0.7643,-0.6719,55.813835,37.500233,218.2619,NaN,0.0,48.0,,13 / 14,,1452,2021-05-02 18:36:20:146
0.102954,0.122108,9.708784,0.11609,0.131626,9.805079,-0.002319,-0.003896,-5.11E-4,6.84,-32.46,-44.7,191.7185,-0.7643,-0.6719,55.813835,37.500233,218.2619,NaN,0.0,48.0,,13 / 14,,1463,2021-05-02 18:36:20:157
0.124502,0.131685,9.715967,0.11609,0.131626,9.805079,7.35E-4,3.8E-4,0.002544,6.84,-32.46,-44.7,191.7185,-0.7643,-0.6719,55.813835,37.500233,218.2619,NaN,0.0,48.0,,13 / 14,,1472,2021-05-02 18:36:20:166
0.105348,0.124502,9.708784,0.116368,0.131812,9.805074,-4.87E-4,3.8E-4,-0.002343,7.02,-32.22,-44.28,191.7185,-0.7643,-0.6719,55.813835,37.500233,218.2619,NaN,0.0,48.0,,13 / 14,,1482,2021-05-02 18:36:20:176
0.105348,0.124502,9.708784,0.115784,0.132429,9.805073,1.24E-4,-0.001453,-0.001122,6.96,-32.16,-44.52,193.4942,-0.7701,-0.68,55.813835,37.500233,218.2619,NaN,0.0,48.0,,13 / 14,,1493,2021-05-02 18:36:20:187
0.110137,0.138868,9.727939,0.115784,0.132429,9.805073,-0.001709,-0.001453,-5.11E-4,6.96,-32.16,-44.52,193.4942,-0.7701,-0.68,55.813835,37.500233,218.2619,NaN,0.0,48.0,,13 / 14,,1502,2021-05-02 18:36:20:196
0.119714,0.134079,9.711179,0.115899,0.132219,9.805074,1.24E-4,-0.002064,-0.002343,6.0,-32.28,-44.16,193.4942,-0.7701,-0.68,55.813835,37.500233,218.2619,NaN,0.0,48.0,,13 / 14,,1514,2021-05-02 18:36:20:208
0.10056,0.129291,9.708784,0.115899,0.132219,9.805074,1.24E-4,-0.002064,-0.002343,6.0,-32.28,-44.16,193.4942,-0.7701,-0.68,55.813835,37.500233,218.2619,NaN,0.0,48.0,,13 / 14,,1522,2021-05-02 18:36:20:216
0.10056,0.129291,9.708784,0.116097,0.132238,9.805072,7.35E-4,-0.005118,-0.002343,5.82,-32.28,-44.16,193.4942,-0.7701,-0.68,55.813835,37.500233,218.2619,NaN,0.0,48.0,,13 / 14,,1533,2021-05-02 18:36:20:227
0.126897,0.131685,9.732727,0.117459,0.132269,9.805055,-4.87E-4,-0.009394,-0.001122,7.14,-31.8,-44.34,193.4669,-0.7726,-0.6784,55.813835,37.500233,218.2619,NaN,0.0,48.0,,13 / 14,,1543,2021-05-02 18:36:20:237
0.131685,0.126897,9.711179,0.117459,0.132269,9.805055,7.35E-4,-0.003896,-0.002954,7.14,-31.8,-44.34,193.4669,-0.7726,-0.6784,55.813835,37.500233,218.2619,NaN,0.0,48.0,,13 / 14,,1552,2021-05-02 18:36:20:246
0.110137,0.134079,9.708784,0.117459,0.132269,9.805055,-0.001098,-0.005729,1.0E-4,7.62,-32.04,-44.04,193.4669,-0.7726,-0.6784,55.813835,37.500233,218.2619,NaN,0.0,48.0,,13 / 14,,1562,2021-05-02 18:36:20:256
0.110137,0.134079,9.708784,0.117743,0.132733,9.805045,-0.001709,-0.001453,-0.001732,7.62,-32.04,-44.04,193.4669,-0.7726,-0.6784,55.813835,37.500233,218.2619,NaN,0.0,48.0,,13 / 14,,1572,2021-05-02 18:36:20:266
0.129291,0.124502,9.737515,0.118141,0.13257,9.805042,-0.002319,0.002823,-5.11E-4,6.54,-32.16,-44.28,193.4669,-0.7726,-0.6784,55.813835,37.500233,218.2619,NaN,0.0,48.0,,13 / 14,,1582,2021-05-02 18:36:20:276
0.129291,0.119714,9.718362,0.118141,0.13257,9.805042,7.35E-4,0.001602,-0.001732,6.54,-32.16,-44.28,193.4669,-0.7726,-0.6784,55.813835,37.500233,218.2619,NaN,0.0,48.0,,13 / 14,,1593,2021-05-02 18:36:20:287
0.105348,0.146051,9.72315,0.117819,0.132173,9.805052,-4.87E-4,0.002823,-0.002343,6.42,-32.7,-44.28,191.3933,-0.7746,-0.6903,55.813835,37.500233,218.2619,NaN,0.0,48.0,,13 / 14,,1602,2021-05-02 18:36:20:296
0.105348,0.146051,9.72315,0.117195,0.131908,9.805062,-0.00293,0.005878,1.0E-4,6.48,-32.88,-44.46,191.3933,-0.7746,-0.6903,55.813835,37.500233,218.2619,NaN,0.0,48.0,,13 / 14,,1613,2021-05-02 18:36:20:307
0.114925,0.134079,9.718362,0.117195,0.131908,9.805062,-0.00293,0.005878,1.0E-4,6.48,-32.88,-44.46,191.3933,-0.7746,-0.6903,55.813835,37.500233,218.2619,NaN,0.0,48.0,,13 / 14,,1622,2021-05-02 18:36:20:316
0.105348,0.146051,9.711179,0.11626,0.132208,9.80507,-0.001709,0.002823,-0.001122,6.54,-32.7,-44.76,193.0988,-0.7707,-0.6848,55.813835,37.500233,218.2619,NaN,0.0,48.0,,13 / 14,,1633,2021-05-02 18:36:20:327
0.107742,0.136474,9.727939,0.11626,0.132208,9.80507,-0.001098,-2.31E-4,7.11E-4,6.54,-32.7,-44.76,193.0988,-0.7707,-0.6848,55.813835,37.500233,218.2619,NaN,0.0,48.0,,13 / 14,,1642,2021-05-02 18:36:20:336
0.107742,0.136474,9.727939,0.11626,0.132208,9.80507,-0.00293,-8.42E-4,1.0E-4,6.54,-32.7,-44.76,193.0988,-0.7707,-0.6848,55.813835,37.500233,218.2619,NaN,0.0,48.0,,13 / 14,,1653,2021-05-02 18:36:20:347
0.112531,0.143657,9.720756,0.115938,0.133052,9.805062,7.35E-4,-0.003896,-5.11E-4,6.24,-32.4,-44.64,193.0988,-0.7707,-0.6848,55.813835,37.500233,218.2619,NaN,0.0,48.0,,13 / 14,,1663,2021-05-02 18:36:20:357
0.122108,0.136474,9.725544,0.115938,0.133052,9.805062,-4.87E-4,-0.005118,1.0E-4,6.24,-32.4,-44.64,193.0988,-0.7707,-0.6848,55.813835,37.500233,218.2619,NaN,0.0,48.0,,13 / 14,,1673,2021-05-02 18:36:20:367
0.110137,0.119714,9.725544,0.116481,0.13335,9.805052,-0.001709,-0.004507,-0.001732,5.64,-32.4,-44.46,191.7297,-0.7774,-0.6774,55.813835,37.500233,218.2619,NaN,0.0,48.0,,13 / 14,,1682,2021-05-02 18:36:20:376
0.126897,0.155628,9.708784,0.116481,0.13335,9.805052,1.24E-4,-8.42E-4,0.001322,5.64,-32.4,-44.46,191.7297,-0.7774,-0.6774,55.813835,37.500233,218.2619,NaN,0.0,48.0,,13 / 14,,1692,2021-05-02 18:36:20:386
0.126897,0.155628,9.708784,0.117245,0.133859,9.805036,7.35E-4,-0.002064,-0.001732,5.94,-32.04,-44.52,191.7297,-0.7774,-0.6774,55.813835,37.500233,218.2619,NaN,0.0,48.0,,13 / 14,,1702,2021-05-02 18:36:20:396
0.126897,0.134079,9.72315,0.117245,0.133859,9.805036,7.35E-4,-0.002064,-0.001732,5.94,-32.04,-44.52,191.7297,-0.7774,-0.6774,55.813885,37.500233,217.7941,NaN,0.0,32.0,,15 / 16,,1712,2021-05-02 18:36:20:406
0.146051,0.162811,9.713573,0.117762,0.134079,9.805026,-0.002319,0.001602,-0.013339,6.06,-32.4,-44.64,191.7671,-0.7821,-0.6851,55.813885,37.500233,217.7941,NaN,0.0,32.0,,15 / 16,,1722,2021-05-02 18:36:20:416
0.141262,0.136474,9.711179,0.117762,0.134079,9.805026,-0.001709,-0.002674,-0.026167,6.12,-32.7,-44.7,191.7671,-0.7821,-0.6851,55.813885,37.500233,217.7941,NaN,0.0,32.0,,15 / 16,,1732,2021-05-02 18:36:20:426
0.141262,0.136474,9.711179,0.118406,0.134953,9.805007,-4.87E-4,0.002213,-0.022502,6.12,-32.7,-44.7,191.7671,-0.7821,-0.6851,55.813885,37.500233,217.7941,NaN,0.0,32.0,,15 / 16,,1742,2021-05-02 18:36:20:436
0.129291,0.107742,9.725544,0.11895,0.135286,9.804996,-0.005374,0.006489,-0.020669,6.42,-32.94,-44.22,191.7671,-0.7821,-0.6851,55.813885,37.500233,217.7941,NaN,0.0,32.0,,15 / 16,,1752,2021-05-02 18:36:20:446
0.105348,0.124502,9.70639,0.118392,0.13493,9.805007,-0.001098,0.002823,-0.010895,6.78,-32.88,-44.16,193.0926,-0.7904,-0.6951,55.813885,37.500233,217.7941,NaN,0.0,32.0,,15 / 16,,1762,2021-05-02 18:36:20:456
0.117319,0.146051,9.72315,0.118392,0.13493,9.805007,1.24E-4,-8.42E-4,-0.010895,6.78,-32.88,-44.16,193.0926,-0.7904,-0.6951,55.813885,37.500233,217.7941,NaN,0.0,32.0,,15 / 16,,1772,2021-05-02 18:36:20:466
0.122108,0.134079,9.720756,0.118712,0.134841,9.805005,1.24E-4,0.004656,-0.011506,6.72,-32.64,-44.28,193.0926,-0.7904,-0.6951,55.813885,37.500233,217.7941,NaN,0.0,32.0,,15 / 16,,1782,2021-05-02 18:36:20:476
0.122108,0.134079,9.720756,0.118712,0.134841,9.805005,-0.00293,0.004045,-0.018226,6.72,-32.64,-44.28,193.0926,-0.7904,-0.6951,55.813885,37.500233,217.7941,NaN,0.0,32.0,,15 / 16,,1793,2021-05-02 18:36:20:487
0.093377,0.122108,9.70639,0.118191,0.134177,9.80502,-0.002319,-8.42E-4,-0.017615,6.0,-31.98,-44.34,193.0926,-0.7904,-0.6951,55.813885,37.500233,217.7941,NaN,0.0,32.0,,15 / 16,,1802,2021-05-02 18:36:20:496
0.10056,0.131685,9.718362,0.118191,0.134177,9.80502,-0.012704,-0.005729,-0.015171,6.0,-31.98,-44.34,193.0926,-0.7904,-0.6951,55.813885,37.500233,217.7941,NaN,0.0,32.0,,15 / 16,,1812,2021-05-02 18:36:20:506
0.122108,0.136474,9.72315,0.118128,0.133828,9.805026,-0.030419,9.91E-4,-0.011506,6.6,-32.7,-44.34,193.085,-0.784,-0.6906,55.813885,37.500233,217.7941,NaN,0.0,32.0,,15 / 16,,1822,2021-05-02 18:36:20:516
0.122108,0.136474,9.72315,0.118128,0.133828,9.805026,-0.060963,0.008321,-0.00723,6.6,-32.7,-44.34,193.085,-0.784,-0.6906,55.813885,37.500233,217.7941,NaN,0.0,32.0,,15 / 16,,1832,2021-05-02 18:36:20:526
0.114925,0.112531,9.737515,0.116702,0.129578,9.8051,-0.070125,0.019317,-0.007841,7.26,-32.58,-44.64,193.085,-0.784,-0.6906,55.813885,37.500233,217.7941,NaN,0.0,32.0,,15 / 16,,1843,2021-05-02 18:36:20:537
0.095771,-0.076617,9.512454,0.116702,0.11759,9.80525,-0.020035,-0.054598,-0.005398,6.84,-32.16,-44.22,193.4666,-0.7571,-0.6819,55.813885,37.500233,217.7941,NaN,0.0,32.0,,15 / 16,,1853,2021-05-02 18:36:20:547
0.177176,-0.038308,9.845258,0.116702,0.11759,9.80525,-0.020035,-0.054598,-0.005398,6.84,-32.16,-44.22,193.4666,-0.7571,-0.6819,55.813885,37.500233,217.7941,NaN,0.0,32.0,,15 / 16,,1862,2021-05-02 18:36:20:556
0.177176,-0.038308,9.845258,0.121284,0.105617,9.805331,-0.027365,-0.020389,0.008041,6.48,-32.1,-44.28,193.4666,-0.7571,-0.6819,55.813885,37.500233,217.7941,NaN,0.0,32.0,,15 / 16,,1872,2021-05-02 18:36:20:566
0.134079,0.071828,9.802161,0.121284,0.105617,9.805331,-0.053632,-0.005118,0.011707,6.48,-32.1,-44.28,193.4666,-0.7571,-0.6819,55.813885,37.500233,217.7941,NaN,0.0,32.0,,15 / 16,,1882,2021-05-02 18:36:20:576
0.098165,0.158022,9.737515,0.121284,0.105617,9.805331,-0.053632,-0.005118,0.011707,6.48,-32.1,-44.28,193.4666,-0.7571,-0.6819,55.813885,37.500233,217.7941,NaN,0.0,32.0,,15 / 16,,1892,2021-05-02 18:36:20:586
0.119714,0.141262,9.761458,0.124317,0.09287,9.805423,-0.100669,-0.036272,0.020259,7.44,-31.92,-44.58,193.483,-0.6171,-0.7087,55.813885,37.500233,217.7941,NaN,0.0,32.0,,15 / 16,,1902,2021-05-02 18:36:20:596
0.119714,0.141262,9.761458,0.124317,0.09287,9.805423,-0.123271,-0.033218,0.030033,7.44,-31.92,-44.58,193.483,-0.6171,-0.7087,55.813885,37.500233,217.7941,NaN,0.0,32.0,,15 / 16,,1912,2021-05-02 18:36:20:606
0.117319,0.198725,9.701602,0.130294,0.073161,9.805511,-0.117773,-0.040548,0.03492,7.62,-32.22,-44.7,193.483,-0.6171,-0.7087,55.813885,37.500233,217.7941,NaN,0.0,32.0,,15 / 16,,1923,2021-05-02 18:36:20:617
0.117319,0.143657,9.720756,0.136945,0.050401,9.805565,-0.110443,-0.029552,0.038585,6.48,-31.86,-44.34,191.7438,-0.4274,-0.7613,55.813885,37.500233,217.7941,NaN,0.0,32.0,,15 / 16,,1932,2021-05-02 18:36:20:626
0.129291,0.05028,9.672871,0.136945,0.050401,9.805565,-0.106777,-0.05582,0.038585,6.48,-31.86,-44.34,191.7438,-0.4274,-0.7613,55.813885,37.500233,217.7941,NaN,0.0,32.0,,15 / 16,,1942,2021-05-02 18:36:20:636
0.129291,0.05028,9.672871,0.136945,0.050401,9.805565,-0.118995,-0.101024,0.037363,6.48,-31.86,-44.34,191.7438,-0.4274,-0.7613,55.813885,37.500233,217.7941,NaN,0.0,32.0,,15 / 16,,1952,2021-05-02 18:36:20:646
0.131685,0.031126,9.713573,0.148653,0.029088,9.80548,-0.133045,-0.113852,0.036141,7.02,-31.62,-43.98,191.7438,-0.4274,-0.7613,55.813885,37.500233,217.7941,NaN,0.0,32.0,,15 / 16,,1962,2021-05-02 18:36:20:656
0.172388,0.031126,9.775824,0.170505,0.003091,9.805167,-0.162366,-0.108354,0.025146,6.96,-31.5,-44.88,193.9745,-0.1699,-0.8686,55.813885,37.500233,217.7941,NaN,0.0,32.0,,15 / 16,,1972,2021-05-02 18:36:20:666
0.179571,0.004789,9.771035,0.170505,0.003091,9.805167,-0.180692,-0.085141,0.016594,6.96,-31.5,-44.88,193.9745,-0.1699,-0.8686,55.813885,37.500233,217.7941,NaN,0.0,32.0,,15 / 16,,1982,2021-05-02 18:36:20:676
0.179571,0.004789,9.771035,0.170505,0.003091,9.805167,-0.180692,-0.085141,0.016594,6.96,-31.5,-44.88,193.9745,-0.1699,-0.8686,55.813885,37.500233,217.7941,NaN,0.0,32.0,,15 / 16,,1992,2021-05-02 18:36:20:686
0.181965,-0.040703,9.759064,0.189387,-0.03042,9.804774,-0.215511,-0.056431,0.011096,5.52,-31.14,-45.18,193.9745,-0.1699,-0.8686,55.813885,37.500233,217.7941,NaN,0.0,32.0,,15 / 16,,2003,2021-05-02 18:36:20:697
0.222668,-0.052674,9.797373,0.189387,-0.03042,9.804774,-0.215511,-0.056431,0.011096,5.52,-31.14,-45.18,193.9745,-0.1699,-0.8686,55.813885,37.500233,217.7941,NaN,0.0,32.0,,15 / 16,,2012,2021-05-02 18:36:20:706
0.354353,-0.110137,10.187639,0.201436,-0.070374,9.804328,-0.224674,0.066964,0.014761,5.58,-31.38,-45.18,192.4378,0.1777,-1.1066,55.813885,37.500233,217.7941,NaN,0.0,32.0,,15 / 16,,2022,2021-05-02 18:36:20:716
0.138868,-0.119714,9.414289,0.172983,-0.117766,9.804418,-0.247276,0.253278,0.031865,6.12,-31.08,-45.36,192.4378,0.1777,-1.1066,55.813885,37.500233,217.7941,NaN,0.0,32.0,,15 / 16,,2033,2021-05-02 18:36:20:727
0.138868,-0.119714,9.414289,0.172983,-0.117766,9.804418,-0.238113,0.218459,0.03492,6.12,-31.08,-45.36,192.4378,0.1777,-1.1066,55.813885,37.500233,217.7941,NaN,0.0,32.0,,15 / 16,,2042,2021-05-02 18:36:20:736
0.126897,-0.134079,9.703996,0.141569,-0.16206,9.804289,-0.161144,0.068797,0.025757,6.42,-30.36,-45.54,192.5679,0.6881,-1.0108,55.813885,37.500233,217.7941,NaN,0.0,32.0,,15 / 16,,2053,2021-05-02 18:36:20:747
0.138868,-0.143656,9.895537,0.141569,-0.16206,9.804289,-0.120216,0.04253,0.01415,6.42,-30.36,-45.54,192.5679,0.6881,-1.0108,55.813885,37.500233,217.7941,NaN,0.0,32.0,,15 / 16,,2062,2021-05-02 18:36:20:756
0.165205,-0.193936,9.847652,0.141569,-0.16206,9.804289,-0.142818,0.013208,0.027589,6.42,-30.36,-45.54,192.5679,0.6881,-1.0108,55.813885,37.500233,217.7941,NaN,0.0,32.0,,15 / 16,,2072,2021-05-02 18:36:20:766
0.110137,-0.179571,9.845258,0.148267,-0.185283,9.803779,-0.175194,-8.42E-4,0.027589,6.9,-30.72,-46.38,192.5679,0.6881,-1.0108,55.813885,37.500233,217.7941,NaN,0.0,32.0,,15 / 16,,2082,2021-05-02 18:36:20:776
0.110137,-0.179571,9.845258,0.148267,-0.185283,9.803779,-0.175194,-8.42E-4,0.027589,6.9,-30.72,-46.38,192.5679,0.6881,-1.0108,55.813885,37.500233,217.7941,NaN,0.0,32.0,,15 / 16,,2093,2021-05-02 18:36:20:787
0.10056,-0.189148,9.785401,0.14713,-0.217634,9.803131,-0.202683,-0.005118,0.009874,6.84,-31.26,-46.44,193.5774,1.0826,-0.8664,55.813885,37.500233,217.7941,NaN,0.0,32.0,,15 / 16,,2102,2021-05-02 18:36:20:796
0.148445,-0.253793,9.713573,0.14713,-0.217634,9.803131,-0.210624,-0.008172,-0.002343,6.84,-31.26,-46.44,193.5774,1.0826,-0.8664,55.813885,37.500233,217.7941,NaN,0.0,32.0,,15 / 16,,2112,2021-05-02 18:36:20:806
0.148445,-0.282524,9.670476,0.148385,-0.257924,9.802135,-0.20757,-0.005729,-0.008452,6.78,-30.9,-46.2,193.5774,1.0826,-0.8664,55.813885,37.500233,217.7941,NaN,0.0,32.0,,15 / 16,,2122,2021-05-02 18:36:20:816
0.129291,-0.282524,9.670476,0.148385,-0.257924,9.802135,-0.194742,-0.003285,-0.001732,6.78,-30.9,-46.2,193.5774,1.0826,-0.8664,55.813885,37.500233,217.7941,NaN,0.0,32.0,,15 / 16,,2133,2021-05-02 18:36:20:827
0.134079,-0.316044,9.699207,0.149437,-0.297401,9.801001,-0.184968,-2.31E-4,-0.001122,7.44,-30.6,-46.2,193.4425,1.5071,-0.8673,55.813885,37.500233,217.7941,NaN,0.0,32.0,,15 / 16,,2142,2021-05-02 18:36:20:836
0.114925,-0.325621,9.708784,0.149437,-0.297401,9.801001,-0.17947,-2.31E-4,0.003765,7.44,-30.6,-46.2,193.4425,1.5071,-0.8673,55.813885,37.500233,217.7941,NaN,0.0,32.0,,15 / 16,,2152,2021-05-02 18:36:20:846
0.119714,-0.339987,9.749487,0.149535,-0.33314,9.79985,-0.17947,-2.31E-4,0.001933,6.96,-30.3,-45.6,193.4425,1.5071,-0.8673,55.813885,37.500233,217.7941,NaN,0.0,32.0,,15 / 16,,2162,2021-05-02 18:36:20:856
0.119714,-0.339987,9.749487,0.149535,-0.33314,9.79985,-0.190466,-0.002674,-0.003565,6.96,-30.3,-45.6,193.4425,1.5071,-0.8673,55.813885,37.500233,217.7941,NaN,0.0,32.0,,15 / 16,,2172,2021-05-02 18:36:20:866
0.124502,-0.368718,9.732727,0.14938,-0.368975,9.798568,-0.203294,-8.42E-4,0.001933,6.24,-29.52,-45.42,191.9802,1.9468,-0.8742,55.813885,37.500233,217.7941,NaN,0.0,32.0,,15 / 16,,2182,2021-05-02 18:36:20:876
0.141262,-0.407027,9.761458,0.14938,-0.368975,9.798568,-0.21429,-0.001453,-0.001122,6.24,-29.52,-45.42,191.9802,1.9468,-0.8742,55.813885,37.500233,217.7941,NaN,0.0,32.0,,15 / 16,,2192,2021-05-02 18:36:20:886
0.129291,-0.407027,9.747093,0.14946,-0.409009,9.796977,-0.226507,-0.002064,-0.006008,6.48,-29.16,-45.9,191.9802,1.9468,-0.8742,55.813885,37.500233,217.7941,NaN,0.0,32.0,,15 / 16,,2202,2021-05-02 18:36:20:896
0.122108,-0.442941,9.732727,0.14946,-0.409009,9.796977,-0.234448,-0.005729,-0.006619,6.48,-29.16,-45.9,191.9802,1.9468,-0.8742,55.813885,37.500233,217.7941,NaN,0.0,32.0,,15 / 16,,2213,2021-05-02 18:36:20:907
0.122108,-0.442941,9.732727,0.150042,-0.452777,9.795043,-0.241779,-0.004507,-0.006619,6.66,-29.4,-45.96,193.9991,2.3903,-0.874,55.813885,37.500233,217.7941,NaN,0.0,32.0,,15 / 16,,2222,2021-05-02 18:36:20:916
0.143657,-0.481249,9.713573,0.150042,-0.452777,9.795043,-0.249109,-0.005118,-0.010895,6.3,-29.76,-46.56,193.9991,2.3903,-0.874,55.813885,37.500233,217.7941,NaN,0.0,32.0,,15 / 16,,2233,2021-05-02 18:36:20:927
0.129291,-0.509981,9.727939,0.151454,-0.499552,9.792747,-0.249109,-0.005118,-0.010895,6.3,-29.76,-46.56,193.9991,2.3903,-0.874,55.813885,37.500233,217.7941,NaN,0.0,32.0,,15 / 16,,2243,2021-05-02 18:36:20:937
0.124502,-0.550683,9.747093,0.151454,-0.499552,9.792747,-0.253996,-0.005729,-0.012117,5.7,-29.4,-46.56,193.9991,2.3903,-0.874,55.813885,37.500233,217.7941,NaN,0.0,32.0,,15 / 16,,2252,2021-05-02 18:36:20:946
0.129291,-0.555472,9.754275,0.152668,-0.548402,9.790114,-0.269268,-0.005729,-0.015171,5.88,-28.98,-47.7,192.0413,3.2057,-0.8934,55.813885,37.500233,217.7941,NaN,0.0,32.0,,15 / 16,,2262,2021-05-02 18:36:20:956
0.117319,-0.622511,9.763853,0.154075,-0.601454,9.786976,-0.28515,-0.00695,-0.016393,5.88,-28.98,-47.7,192.0413,3.2057,-0.8934,55.813885,37.500233,217.7941,NaN,0.0,32.0,,15 / 16,,2273,2021-05-02 18:36:20:967
0.117319,-0.622511,9.763853,0.154075,-0.601454,9.786976,-0.302865,-8.42E-4,-0.015782,5.88,-28.98,-47.7,192.0413,3.2057,-0.8934,55.813885,37.500233,217.7941,NaN,0.0,32.0,,15 / 16,,2282,2021-05-02 18:36:20:976
0.141262,-0.658426,9.759064,0.154075,-0.601454,9.786976,-0.318137,-0.001453,-0.01395,6.54,-29.28,-47.88,192.0413,3.2057,-0.8934,55.813885,37.500233,217.7941,NaN,0.0,32.0,,15 / 16,,2292,2021-05-02 18:36:20:986
0.162811,-0.703917,9.742304,0.154918,-0.66057,9.783151,-0.339517,-0.001453,-0.00723,6.54,-29.28,-47.88,192.0413,3.2057,-0.8934,55.813885,37.500233,217.7941,NaN,0.0,32.0,,15 / 16,,2302,2021-05-02 18:36:20:996
0.179571,-0.723071,9.761458,0.154918,-0.66057,9.783151,-0.3554,-0.004507,0.003765,6.72,-28.8,-47.1,193.5652,3.8623,-0.9072,55.813885,37.500233,217.7941,NaN,0.0,32.0,,15 / 16,,2313,2021-05-02 18:36:21:007
0.167599,-0.782928,9.75667,0.15551,-0.725816,9.778517,-0.382888,-0.004507,0.019037,6.78,-28.56,-46.98,193.5652,3.8623,-0.9072,55.813885,37.500233,217.7941,NaN,0.0,32.0,,15 / 16,,2322,2021-05-02 18:36:21:016
0.167599,-0.782928,9.75667,0.15551,-0.725816,9.778517,-0.397549,-0.005729,0.022702,6.84,-27.54,-47.4,193.5652,3.8623,-0.9072,55.813885,37.500233,217.7941,NaN,0.0,32.0,,15 / 16,,2332,2021-05-02 18:36:21:026
0.162811,-0.842785,9.718362,0.156357,-0.798399,9.772845,-0.397549,-0.005729,0.022702,6.84,-27.54,-47.4,193.5652,3.8623,-0.9072,55.813885,37.500233,217.7941,NaN,0.0,32.0,,15 / 16,,2342,2021-05-02 18:36:21:036
0.124502,-0.876305,9.701602,0.156876,-0.876401,9.76615,-0.403658,-0.004507,0.032476,6.84,-27.36,-47.22,194.1576,4.6699,-0.9166,55.813885,37.500233,217.7941,NaN,0.0,32.0,,15 / 16,,2353,2021-05-02 18:36:21:047
0.150839,-0.92419,9.672871,0.156876,-0.876401,9.76615,-0.401825,-0.010616,0.0282,6.48,-27.12,-47.16,194.1576,4.6699,-0.9166,55.813885,37.500233,217.7941,NaN,0.0,32.0,,15 / 16,,2363,2021-05-02 18:36:21:057
0.150839,-0.92419,9.672871,0.156876,-0.876401,9.76615,-0.402436,-0.010005,0.0282,6.48,-27.12,-47.16,194.1576,4.6699,-0.9166,55.813885,37.500233,217.7941,NaN,0.0,32.0,,15 / 16,,2372,2021-05-02 18:36:21:066
0.150839,-0.99123,9.660899,0.158097,-0.955087,9.75875,-0.401214,-0.011226,0.032476,6.48,-27.0,-47.94,192.1277,5.589,-0.9281,55.813885,37.500233,217.7941,NaN,0.0,32.0,,15 / 16,,2383,2021-05-02 18:36:21:077
0.126897,-1.031932,9.634562,0.159191,-1.032587,9.750836,-0.387775,-0.007561,0.03553,6.48,-27.0,-47.94,192.1277,5.589,-0.9281,55.813885,37.500233,217.7941,NaN,0.0,32.0,,15 / 16,,2393,2021-05-02 18:36:21:087
0.124502,-1.075029,9.596253,0.159191,-1.032587,9.750836,-0.373726,-0.011226,0.032476,6.6,-26.82,-48.36,192.1277,5.589,-0.9281,55.813885,37.500233,217.7941,NaN,0.0,32.0,,15 / 16,,2402,2021-05-02 18:36:21:096
0.124502,-1.075029,9.596253,0.159191,-1.032587,9.750836,-0.3554,-0.007561,0.032476,6.6,-26.82,-48.36,192.1277,5.589,-0.9281,55.813885,37.500233,217.7941,NaN,0.0,32.0,,15 / 16,,2412,2021-05-02 18:36:21:106
0.112531,-1.130098,9.601042,0.160256,-1.105204,9.742855,-0.335852,-0.005118,0.019648,6.36,-26.88,-49.2,191.8835,6.471,-0.9423,55.813885,37.500233,217.7941,NaN,0.0,32.0,,15 / 16,,2422,2021-05-02 18:36:21:116
0.069434,-1.151646,9.646533,0.160256,-1.105204,9.742855,-0.327911,0.002213,0.00682,6.36,-26.88,-49.2,191.8835,6.471,-0.9423,55.813885,37.500233,217.7941,NaN,0.0,32.0,,15 / 16,,2433,2021-05-02 18:36:21:127
0.06704,-1.175589,9.660899,0.160789,-1.171549,9.735091,-0.332187,0.002213,-0.015782,5.94,-26.58,-49.38,191.8835,6.471,-0.9423,55.813885,37.500233,217.7941,NaN,0.0,32.0,,15 / 16,,2442,2021-05-02 18:36:21:136
0.093377,-1.22108,9.653716,0.160469,-1.235424,9.727198,-0.333408,0.002213,-0.032887,6.06,-26.28,-49.86,191.8835,6.471,-0.9423,55.813885,37.500233,217.7941,NaN,0.0,32.0,,15 / 16,,2452,2021-05-02 18:36:21:146
0.093377,-1.22108,9.653716,0.160469,-1.235424,9.727198,-0.329132,9.91E-4,-0.04205,6.06,-26.28,-49.86,191.8835,6.471,-0.9423,55.813885,37.500233,217.7941,NaN,0.0,32.0,,15 / 16,,2462,2021-05-02 18:36:21:156
0.129291,-1.300091,9.62259,0.16137,-1.299204,9.718869,-0.322413,0.001602,-0.045715,6.48,-25.86,-49.62,192.0093,7.2372,-0.9451,55.813885,37.500233,217.7941,NaN,0.0,32.0,,15 / 16,,2472,2021-05-02 18:36:21:166
0.146051,-1.359948,9.615408,0.16137,-1.299204,9.718869,-0.318748,-2.31E-4,-0.038995,6.48,-25.86,-49.62,192.0093,7.2372,-0.9451,55.813885,37.500233,217.7941,NaN,0.0,32.0,,15 / 16,,2482,2021-05-02 18:36:21:176
0.124502,-1.383891,9.632168,0.16137,-1.299204,9.718869,-0.318748,-2.31E-4,-0.038995,6.48,-25.86,-49.62,192.0093,7.2372,-0.9451,55.813885,37.500233,217.7941,NaN,0.0,32.0,,15 / 16,,2492,2021-05-02 18:36:21:186
0.124502,-1.383891,9.632168,0.162282,-1.360972,9.710397,-0.32058,0.001602,-0.040828,6.48,-24.6,-49.32,192.0093,7.2372,-0.9451,55.813885,37.500233,217.7941,NaN,0.0,32.0,,15 / 16,,2502,2021-05-02 18:36:21:196
0.160416,-1.426988,9.615408,0.162449,-1.422498,9.701571,-0.321191,0.002213,-0.02861,6.3,-24.24,-50.04,192.5541,7.9773,-0.9574,55.813885,37.500233,217.7941,NaN,0.0,32.0,,15 / 16,,2512,2021-05-02 18:36:21:206
0.155628,-1.460508,9.620196,0.162449,-1.422498,9.701571,-0.324245,0.005878,-0.02128,6.3,-24.24,-50.04,192.5541,7.9773,-0.9574,55.813885,37.500233,217.7941,NaN,0.0,32.0,,15 / 16,,2522,2021-05-02 18:36:21:216
0.150839,-1.462902,9.627379,0.16321,-1.485149,9.692165,-0.329743,9.91E-4,-0.019448,6.78,-23.88,-49.74,192.5541,7.9773,-0.9574,55.813885,37.500233,217.7941,NaN,0.0,32.0,,15 / 16,,2532,2021-05-02 18:36:21:226
0.150839,-1.462902,9.627379,0.16321,-1.485149,9.692165,-0.337074,3.8E-4,-0.019448,6.78,-23.88,-49.74,192.5541,7.9773,-0.9574,55.813885,37.500233,217.7941,NaN,0.0,32.0,,15 / 16,,2542,2021-05-02 18:36:21:236
0.141262,-1.549096,9.613013,0.16342,-1.51707,9.687217,-0.34135,0.002823,-0.009674,7.02,-24.18,-49.32,192.5541,7.9773,-0.9574,55.813885,37.500233,217.7941,NaN,0.0,32.0,,15 / 16,,2553,2021-05-02 18:36:21:247
0.179571,-1.649655,9.629773,0.159503,-1.550636,9.681967,-0.3554,-0.003896,0.003155,6.84,-23.76,-49.32,194.0492,8.8993,-0.9665,55.813885,37.500233,217.7941,NaN,0.0,32.0,,15 / 16,,2562,2021-05-02 18:36:21:256
0.160416,-1.675992,9.608225,0.159503,-1.550636,9.681967,-0.368228,-0.005118,0.012928,6.84,-23.76,-49.32,194.0492,8.8993,-0.9665,55.813885,37.500233,217.7941,NaN,0.0,32.0,,15 / 16,,2573,2021-05-02 18:36:21:267
0.150839,-1.671204,9.565128,0.158198,-1.595727,9.674658,-0.373726,-0.007561,0.015372,7.2,-23.28,-50.04,194.0492,8.8993,-0.9665,55.813885,37.500233,217.7941,NaN,0.0,32.0,,15 / 16,,2582,2021-05-02 18:36:21:276
0.150839,-1.671204,9.565128,0.158198,-1.595727,9.674658,-0.373726,-0.007561,0.015372,7.2,-23.28,-50.04,194.0492,8.8993,-0.9665,55.813885,37.500233,217.7941,NaN,0.0,32.0,,15 / 16,,2592,2021-05-02 18:36:21:286
0.124502,-1.714301,9.550762,0.157664,-1.620747,9.670506,-0.37006,-0.003896,0.009263,7.14,-22.98,-50.16,194.0492,8.8993,-0.9665,55.813885,37.500233,217.7941,NaN,0.0,32.0,,15 / 16,,2602,2021-05-02 18:36:21:296
0.138868,-1.786129,9.553157,0.157664,-1.620747,9.670506,-0.36273,-0.00695,0.008652,7.14,-22.98,-50.16,194.0492,8.8993,-0.9665,55.813885,37.500233,217.7941,NaN,0.0,32.0,,15 / 16,,2612,2021-05-02 18:36:21:306
0.126897,-1.817254,9.574705,0.156028,-1.671703,9.661856,-0.357232,-0.008172,0.014761,7.32,-23.34,-49.86,194.1797,9.5129,-0.934,55.813885,37.500233,217.7941,NaN,0.0,32.0,,15 / 16,,2622,2021-05-02 18:36:21:316
0.126897,-1.817254,9.574705,0.156028,-1.671703,9.661856,-0.36273,-0.011226,0.012317,7.32,-23.34,-49.86,194.1797,9.5129,-0.934,55.813885,37.500233,217.7941,NaN,0.0,32.0,,15 / 16,,2632,2021-05-02 18:36:21:326
0.117319,-1.843592,9.593859,0.154764,-1.724974,9.652508,-0.387775,-0.009394,0.010485,6.84,-22.62,-49.74,194.1797,9.5129,-0.934,55.813885,37.500233,217.7941,NaN,0.0,32.0,,15 / 16,,2642,2021-05-02 18:36:21:336
0.131685,-1.910631,9.601042,0.153898,-1.753713,9.647341,-0.41221,-0.009394,0.009263,6.3,-22.62,-50.46,194.1797,9.5129,-0.934,55.813885,37.500233,217.7941,NaN,0.0,32.0,,15 / 16,,2652,2021-05-02 18:36:21:346
0.141262,-1.944151,9.565128,0.153898,-1.753713,9.647341,-0.423816,-0.009394,0.004987,6.3,-22.62,-50.46,194.1797,9.5129,-0.934,55.813885,37.500233,217.7941,NaN,0.0,32.0,,15 / 16,,2662,2021-05-02 18:36:21:356
0.119714,-1.989642,9.502876,0.152011,-1.81779,9.635503,-0.423816,-0.009394,0.004987,6.24,-21.54,-50.58,192.4932,10.3016,-0.9139,55.813885,37.500233,217.7941,NaN,0.0,32.0,,15 / 16,,2672,2021-05-02 18:36:21:366
0.150839,-2.063865,9.474146,0.151418,-1.852157,9.628965,-0.426871,-0.002674,0.005598,6.36,-21.54,-50.64,192.4932,10.3016,-0.9139,55.813885,37.500233,217.7941,NaN,0.0,32.0,,15 / 16,,2682,2021-05-02 18:36:21:376
0.150839,-2.063865,9.474146,0.151418,-1.852157,9.628965,-0.413432,-0.002674,0.004987,6.36,-21.54,-50.64,192.4932,10.3016,-0.9139,55.813885,37.500233,217.7941,NaN,0.0,32.0,,15 / 16,,2692,2021-05-02 18:36:21:386
0.143657,-2.092596,9.474146,0.151706,-1.933298,9.612997,-0.409767,-2.31E-4,0.008041,6.78,-21.06,-50.94,192.4932,10.3016,-0.9139,55.81389,37.50027,213.7603,NaN,0.0,24.0,,15 / 16,,2703,2021-05-02 18:36:21:397
0.138868,-2.142876,9.512454,0.151341,-2.01197,9.596846,-0.412821,0.007099,0.003155,6.66,-20.76,-51.9,194.2384,11.3699,-0.9041,55.81389,37.50027,213.7603,NaN,0.0,24.0,,15 / 16,,2712,2021-05-02 18:36:21:406
0.136474,-2.209916,9.483723,0.151341,-2.01197,9.596846,-0.41954,0.010154,-5.11E-4,6.66,-20.76,-51.9,194.2384,11.3699,-0.9041,55.81389,37.50027,213.7603,NaN,0.0,24.0,,15 / 16,,2722,2021-05-02 18:36:21:416
0.136474,-2.209916,9.483723,0.151341,-2.01197,9.596846,-0.424427,0.011986,0.004987,6.66,-20.76,-51.9,194.2384,11.3699,-0.9041,55.81389,37.50027,213.7603,NaN,0.0,24.0,,15 / 16,,2733,2021-05-02 18:36:21:427
0.136474,-2.267378,9.478934,0.148271,-2.085292,9.581229,-0.430536,0.010154,0.00682,6.3,-20.22,-52.2,194.2384,11.3699,-0.9041,55.81389,37.50027,213.7603,NaN,0.0,24.0,,15 / 16,,2742,2021-05-02 18:36:21:436
0.114925,-2.322446,9.440625,0.1446,-2.155494,9.565737,-0.426871,0.010154,0.012928,6.18,-20.04,-52.2,192.5442,12.2771,-0.8866,55.81389,37.50027,213.7603,NaN,0.0,24.0,,15 / 16,,2752,2021-05-02 18:36:21:446
0.107742,-2.360755,9.407105,0.1446,-2.155494,9.565737,-0.42626,0.013208,0.008652,6.18,-20.04,-52.2,192.5442,12.2771,-0.8866,55.81389,37.50027,213.7603,NaN,0.0,24.0,,15 / 16,,2762,2021-05-02 18:36:21:456
0.141262,-2.437372,9.356826,0.14014,-2.227041,9.549399,-0.41954,0.009543,0.009874,6.12,-19.8,-53.04,192.5442,12.2771,-0.8866,55.81389,37.50027,213.7603,NaN,0.0,24.0,,15 / 16,,2772,2021-05-02 18:36:21:466
0.141262,-2.437372,9.356826,0.14014,-2.227041,9.549399,-0.405491,0.00771,0.012928,6.12,-19.8,-53.04,192.5442,12.2771,-0.8866,55.81389,37.50027,213.7603,NaN,0.0,24.0,,15 / 16,,2782,2021-05-02 18:36:21:476
0.155628,-2.461314,9.337671,0.14014,-2.227041,9.549399,-0.390219,-8.42E-4,0.025757,6.12,-19.8,-53.04,192.5442,12.2771,-0.8866,55.81389,37.50027,213.7603,NaN,0.0,24.0,,15 / 16,,2792,2021-05-02 18:36:21:486
0.158022,-2.39188,9.347249,0.137394,-2.297881,9.53264,-0.365784,-0.005729,0.043472,6.42,-19.92,-52.86,192.1447,13.1261,-0.8408,55.81389,37.50027,213.7603,NaN,0.0,24.0,,15 / 16,,2802,2021-05-02 18:36:21:496
0.088588,-2.415823,9.342461,0.136558,-2.36036,9.517376,-0.341961,-0.016113,0.052635,6.66,-19.5,-52.92,192.1447,13.1261,-0.8408,55.81389,37.50027,213.7603,NaN,0.0,24.0,,15 / 16,,2812,2021-05-02 18:36:21:506
0.088588,-2.415823,9.342461,0.136558,-2.36036,9.517376,-0.323024,-0.019779,0.054467,6.66,-19.5,-52.92,192.1447,13.1261,-0.8408,55.81389,37.50027,213.7603,NaN,0.0,24.0,,15 / 16,,2822,2021-05-02 18:36:21:516
0.071828,-2.413429,9.37598,0.136335,-2.416673,9.503236,-0.301033,-0.016724,0.051413,6.42,-18.72,-52.92,192.2338,13.9273,-0.822,55.81389,37.50027,213.7603,NaN,0.0,24.0,,15 / 16,,2832,2021-05-02 18:36:21:526
0.062251,-2.44216,9.416683,0.136335,-2.416673,9.503236,-0.293702,-0.01367,0.045304,6.42,-18.72,-52.92,192.2338,13.9273,-0.822,55.81389,37.50027,213.7603,NaN,0.0,24.0,,15 / 16,,2842,2021-05-02 18:36:21:536
0.069434,-2.602577,9.390346,0.137094,-2.445097,9.495951,-0.290648,-0.00634,0.044693,6.42,-18.72,-52.92,192.2338,13.9273,-0.822,55.81389,37.50027,213.7603,NaN,0.0,24.0,,15 / 16,,2853,2021-05-02 18:36:21:547
0.136474,-2.758204,9.335278,0.137094,-2.445097,9.495951,-0.294313,-0.016724,0.046526,5.82,-18.42,-52.92,192.2338,13.9273,-0.822,55.81389,37.50027,213.7603,NaN,0.0,24.0,,15 / 16,,2862,2021-05-02 18:36:21:556
0.136474,-2.758204,9.335278,0.138674,-2.499957,9.481633,-0.305309,-0.016113,0.048359,5.46,-17.76,-53.64,190.5278,14.7691,-0.8379,55.81389,37.50027,213.7603,NaN,0.0,24.0,,15 / 16,,2872,2021-05-02 18:36:21:566
0.146051,-2.877918,9.328094,0.138893,-2.557073,9.466387,-0.307752,-0.011226,0.047137,5.46,-17.76,-53.64,190.5278,14.7691,-0.8379,55.81389,37.50027,213.7603,NaN,0.0,24.0,,15 / 16,,2882,2021-05-02 18:36:21:576
0.167599,-2.959324,9.265843,0.138893,-2.557073,9.466387,-0.310806,-0.014281,0.037974,6.3,-17.52,-53.88,190.5278,14.7691,-0.8379,55.81389,37.50027,213.7603,NaN,0.0,24.0,,15 / 16,,2893,2021-05-02 18:36:21:587
0.146051,-3.000026,9.261055,0.138729,-2.586283,9.458449,-0.310806,-0.014281,0.037974,6.3,-17.52,-53.88,190.5278,14.7691,-0.8379,55.81389,37.50027,213.7603,NaN,0.0,24.0,,15 / 16,,2902,2021-05-02 18:36:21:596
0.146051,-3.000026,9.261055,0.138729,-2.586283,9.458449,-0.315693,-0.014281,0.030643,6.3,-17.52,-53.88,190.5278,14.7691,-0.8379,55.81389,37.50027,213.7603,NaN,0.0,24.0,,15 / 16,,2912,2021-05-02 18:36:21:606
0.136474,-2.964112,9.239507,0.139614,-2.64575,9.441976,-0.313861,-0.011226,0.0282,7.38,-17.58,-53.94,193.8608,15.2914,-0.8403,55.81389,37.50027,213.7603,NaN,0.0,24.0,,15 / 16,,2922,2021-05-02 18:36:21:616
0.155628,-2.921015,9.225141,0.139746,-2.704282,9.425377,-0.301643,-0.012448,0.033087,7.02,-17.52,-54.42,193.8608,15.2914,-0.8403,55.81389,37.50027,213.7603,NaN,0.0,24.0,,15 / 16,,2933,2021-05-02 18:36:21:627
0.155628,-2.921015,9.225141,0.139746,-2.704282,9.425377,-0.287594,-0.015503,0.037974,7.02,-17.52,-54.42,193.8608,15.2914,-0.8403,55.81389,37.50027,213.7603,NaN,0.0,24.0,,15 / 16,,2942,2021-05-02 18:36:21:636
0.134079,-2.887495,9.268238,0.139746,-2.704282,9.425377,-0.282707,-0.016724,0.046526,7.02,-17.52,-54.42,193.8608,15.2914,-0.8403,55.81389,37.50027,213.7603,NaN,0.0,24.0,,15 / 16,,2952,2021-05-02 18:36:21:646
0.122108,-2.82285,9.256267,0.140689,-2.758994,9.409492,-0.269268,-0.021611,0.04958,6.54,-17.4,-54.24,194.0351,16.0073,-0.8494,55.81389,37.50027,213.7603,NaN,0.0,24.0,,15 / 16,,2962,2021-05-02 18:36:21:656
0.090982,-2.842004,9.268238,0.140689,-2.758994,9.409492,-0.257661,-0.022833,0.053856,6.54,-17.4,-54.24,194.0351,16.0073,-0.8494,55.81389,37.50027,213.7603,NaN,0.0,24.0,,15 / 16,,2972,2021-05-02 18:36:21:666
0.045491,-2.901861,9.261055,0.141196,-2.809177,9.394624,-0.246055,-0.021,0.055078,6.24,-16.92,-53.76,194.0351,16.0073,-0.8494,55.81389,37.50027,213.7603,NaN,0.0,24.0,,15 / 16,,2982,2021-05-02 18:36:21:676
0.03352,-3.06946,9.239507,0.138802,-2.858071,9.379901,-0.243,-0.017946,0.045304,6.3,-16.26,-53.82,192.4807,16.6459,-0.8611,55.81389,37.50027,213.7603,NaN,0.0,24.0,,15 / 16,,2993,2021-05-02 18:36:21:687
0.03352,-3.06946,9.239507,0.138802,-2.858071,9.379901,-0.241168,-0.016113,0.031865,6.3,-16.26,-53.82,192.4807,16.6459,-0.8611,55.81389,37.50027,213.7603,NaN,0.0,24.0,,15 / 16,,3002,2021-05-02 18:36:21:696
0.086194,-3.189174,9.172467,0.138802,-2.858071,9.379901,-0.235059,-0.010616,0.020259,6.3,-16.26,-53.82,192.4807,16.6459,-0.8611,55.81389,37.50027,213.7603,NaN,0.0,24.0,,15 / 16,,3013,2021-05-02 18:36:21:707
0.134079,-3.323253,9.155706,0.131601,-2.911586,9.363532,-0.236892,-0.007561,0.017815,6.36,-15.78,-53.88,192.4807,16.6459,-0.8611,55.81389,37.50027,213.7603,NaN,0.0,24.0,,15 / 16,,3022,2021-05-02 18:36:21:716
0.227456,-3.347196,9.131764,0.131601,-2.911586,9.363532,-0.240557,-0.005118,0.00682,6.36,-15.78,-53.88,192.4807,16.6459,-0.8611,55.81389,37.50027,213.7603,NaN,0.0,24.0,,15 / 16,,3032,2021-05-02 18:36:21:726
0.122108,-3.18678,9.150918,0.126388,-2.97412,9.343929,-0.227729,0.002823,-0.010895,5.82,-15.84,-54.06,192.1901,17.2715,-0.8052,55.81389,37.50027,213.7603,NaN,0.0,24.0,,15 / 16,,3042,2021-05-02 18:36:21:736
0.122108,-3.18678,9.150918,0.126388,-2.97412,9.343929,-0.219787,0.004045,-0.010285,5.82,-15.84,-54.06,192.1901,17.2715,-0.8052,55.81389,37.50027,213.7603,NaN,0.0,24.0,,15 / 16,,3052,2021-05-02 18:36:21:746
0.110137,-3.198751,9.182044,0.12613,-3.038395,9.323231,-0.219787,0.002823,-0.012117,5.64,-15.6,-54.84,192.1901,17.2715,-0.8052,55.81389,37.50027,213.7603,NaN,0.0,24.0,,15 / 16,,3063,2021-05-02 18:36:21:757
0.131685,-3.227482,9.167678,0.126352,-3.080165,9.309511,-0.230783,-0.002064,-0.010285,5.46,-15.18,-55.26,190.4046,18.049,-0.7751,55.81389,37.50027,213.7603,NaN,0.0,24.0,,15 / 16,,3073,2021-05-02 18:36:21:767
0.131685,-3.227482,9.167678,0.126352,-3.080165,9.309511,-0.230172,0.002213,-0.009063,5.46,-15.18,-55.26,190.4046,18.049,-0.7751,55.81389,37.50027,213.7603,NaN,0.0,24.0,,15 / 16,,3082,2021-05-02 18:36:21:776
0.150839,-3.256214,9.14613,0.126352,-3.080165,9.309511,-0.230172,0.002213,-0.009063,5.46,-15.18,-55.26,190.4046,18.049,-0.7751,55.81389,37.50027,213.7603,NaN,0.0,24.0,,15 / 16,,3092,2021-05-02 18:36:21:786
0.141262,-3.304099,9.119793,0.126877,-3.123547,9.295037,-0.222842,-2.31E-4,0.001322,5.46,-15.18,-55.44,190.4046,18.049,-0.7751,55.81389,37.50027,213.7603,NaN,0.0,24.0,,15 / 16,,3103,2021-05-02 18:36:21:797
0.105348,-3.31607,9.124581,0.126877,-3.123547,9.295037,-0.213679,-0.002064,0.001933,5.46,-15.18,-55.44,190.4046,18.049,-0.7751,55.81389,37.50027,213.7603,NaN,0.0,24.0,,15 / 16,,3112,2021-05-02 18:36:21:806
0.059857,-3.320859,9.138947,0.12798,-3.177485,9.276723,-0.208792,9.91E-4,-0.009063,5.64,-15.72,-55.38,191.6784,18.573,-0.782,55.81389,37.50027,213.7603,NaN,0.0,24.0,,15 / 16,,3122,2021-05-02 18:36:21:816
0.059857,-3.320859,9.138947,0.12698,-3.226333,9.259861,-0.206959,0.00771,-0.02128,5.58,-15.36,-54.9,191.6784,18.573,-0.782,55.81389,37.50027,213.7603,NaN,0.0,24.0,,15 / 16,,3132,2021-05-02 18:36:21:826
0.10056,-3.359167,9.136553,0.12698,-3.226333,9.259861,-0.211846,0.009543,-0.034719,5.58,-15.36,-54.9,191.6784,18.573,-0.782,55.81389,37.50027,213.7603,NaN,0.0,24.0,,15 / 16,,3142,2021-05-02 18:36:21:836
0.110137,-3.385504,9.098245,0.12698,-3.226333,9.259861,-0.213068,0.013819,-0.036552,5.58,-15.36,-54.9,191.6784,18.573,-0.782,55.81389,37.50027,213.7603,NaN,0.0,24.0,,15 / 16,,3152,2021-05-02 18:36:21:846
0.110137,-3.385504,9.098245,0.124068,-3.273126,9.243464,-0.206959,0.011986,-0.034719,6.12,-14.34,-54.96,192.1811,19.2078,-0.7856,55.81389,37.50027,213.7603,NaN,0.0,24.0,,15 / 16,,3162,2021-05-02 18:36:21:856
0.136474,-3.411842,9.091062,0.123048,-3.317396,9.227682,-0.203294,0.011376,-0.034108,6.54,-14.58,-54.9,192.1811,19.2078,-0.7856,55.81389,37.50027,213.7603,NaN,0.0,24.0,,15 / 16,,3173,2021-05-02 18:36:21:867
0.129291,-3.430996,9.091062,0.123048,-3.317396,9.227682,-0.203294,0.012597,-0.035941,6.54,-14.58,-54.9,192.1811,19.2078,-0.7856,55.81389,37.50027,213.7603,NaN,0.0,24.0,,15 / 16,,3182,2021-05-02 18:36:21:876
0.134079,-3.464516,9.098245,0.122621,-3.359978,9.212268,-0.204516,0.010154,-0.032276,6.24,-14.1,-55.32,191.9721,19.7721,-0.764,55.81389,37.50027,213.7603,NaN,0.0,24.0,,15 / 16,,3192,2021-05-02 18:36:21:886
0.131685,-3.495641,9.091062,0.122621,-3.359978,9.212268,-0.208792,0.008932,-0.028,6.24,-14.1,-55.32,191.9721,19.7721,-0.764,55.81389,37.50027,213.7603,NaN,0.0,24.0,,15 / 16,,3202,2021-05-02 18:36:21:896
0.131685,-3.495641,9.091062,0.122621,-3.359978,9.212268,-0.212457,0.010154,-0.02128,6.24,-14.1,-55.32,191.9721,19.7721,-0.764,55.81389,37.50027,213.7603,NaN,0.0,24.0,,15 / 16,,3212,2021-05-02 18:36:21:906
0.110137,-3.502824,9.057542,0.123196,-3.402161,9.196766,-0.210624,0.008321,-0.023113,5.82,-13.38,-55.56,191.9721,19.7721,-0.764,55.81389,37.50027,213.7603,NaN,0.0,24.0,,15 / 16,,3222,2021-05-02 18:36:21:916
0.10056,-3.548315,9.081485,0.123512,-3.443866,9.181225,-0.210624,0.008321,-0.028,5.76,-13.62,-55.62,191.6526,20.5593,-0.7707,55.81389,37.50027,213.7603,NaN,0.0,24.0,,15 / 16,,3233,2021-05-02 18:36:21:927
0.129291,-3.581835,9.110215,0.123512,-3.443866,9.181225,-0.234448,0.00771,-0.02861,5.76,-13.62,-55.62,191.6526,20.5593,-0.7707,55.81389,37.50027,213.7603,NaN,0.0,24.0,,15 / 16,,3242,2021-05-02 18:36:21:936
0.129291,-3.581835,9.110215,0.123463,-3.486298,9.165197,-0.255218,0.00771,-0.024334,5.82,-13.5,-55.38,191.6526,20.5593,-0.7707,55.81389,37.50027,213.7603,NaN,0.0,24.0,,15 / 16,,3252,2021-05-02 18:36:21:946
0.146051,-3.632115,9.055147,0.123463,-3.486298,9.165197,-0.269268,0.002823,-0.019448,5.82,-13.5,-55.38,191.6526,20.5593,-0.7707,55.81389,37.50027,213.7603,NaN,0.0,24.0,,15 / 16,,3263,2021-05-02 18:36:21:957
0.150839,-3.617749,9.026416,0.123463,-3.486298,9.165197,-0.269268,0.002823,-0.019448,5.82,-13.5,-55.38,191.6526,20.5593,-0.7707,55.81389,37.50027,213.7603,NaN,0.0,24.0,,15 / 16,,3272,2021-05-02 18:36:21:966
0.136474,-3.677606,8.992896,0.124883,-3.535026,9.146495,-0.271711,-8.42E-4,-0.010285,5.94,-13.38,-55.74,191.8342,21.1292,-0.7822,55.81389,37.50027,213.7603,NaN,0.0,24.0,,15 / 16,,3282,2021-05-02 18:36:21:976
0.141262,-3.74704,8.980925,0.126446,-3.584072,9.127365,-0.268046,-0.001453,-0.001732,6.48,-13.26,-55.98,191.8342,21.1292,-0.7822,55.81389,37.50027,213.7603,NaN,0.0,24.0,,15 / 16,,3293,2021-05-02 18:36:21:987
0.141262,-3.74704,8.980925,0.126446,-3.584072,9.127365,-0.26377,-0.002674,-5.11E-4,6.48,-13.26,-55.98,191.8342,21.1292,-0.7822,55.81389,37.50027,213.7603,NaN,0.0,24.0,,15 / 16,,3302,2021-05-02 18:36:21:996
0.131685,-3.802108,8.952193,0.126446,-3.584072,9.127365,-0.264992,-0.002064,-0.008452,6.48,-13.26,-55.98,191.8342,21.1292,-0.7822,55.81389,37.50027,213.7603,NaN,0.0,24.0,,15 / 16,,3312,2021-05-02 18:36:22:006
0.114925,-3.756617,8.925857,0.128482,-3.633796,9.107655,-0.250331,0.006489,-0.016393,5.94,-12.6,-56.22,191.7633,21.4367,-0.7937,55.81389,37.50027,213.7603,NaN,0.0,24.0,,15 / 16,,3322,2021-05-02 18:36:22:016
0.086194,-3.794926,8.913885,0.128482,-3.633796,9.107655,-0.234448,0.006489,-0.020669,5.94,-12.6,-56.22,191.7633,21.4367,-0.7937,55.81389,37.50027,213.7603,NaN,0.0,24.0,,15 / 16,,3333,2021-05-02 18:36:22:027
0.124502,-3.759011,8.918674,0.129951,-3.682468,9.088064,-0.214901,0.009543,-0.017615,4.86,-11.94,-56.64,191.7633,21.4367,-0.7937,55.81389,37.50027,213.7603,NaN,0.0,24.0,,15 / 16,,3342,2021-05-02 18:36:22:036
0.124502,-3.759011,8.918674,0.129951,-3.682468,9.088064,-0.214901,0.009543,-0.017615,4.86,-11.94,-56.64,191.7633,21.4367,-0.7937,55.81389,37.50027,213.7603,NaN,0.0,24.0,,15 / 16,,3352,2021-05-02 18:36:22:046
0.095771,-3.708732,8.959376,0.130263,-3.724814,9.070786,-0.206959,0.008321,-0.020058,5.4,-12.36,-56.4,190.2356,22.0557,-0.8192,55.81389,37.50027,213.7603,NaN,0.0,24.0,,15 / 16,,3362,2021-05-02 18:36:22:056
0.112531,-3.842811,8.897125,0.130263,-3.724814,9.070786,-0.192909,0.006489,-0.011506,5.4,-12.36,-56.4,190.2356,22.0557,-0.8192,55.81389,37.50027,213.7603,NaN,0.0,24.0,,15 / 16,,3372,2021-05-02 18:36:22:066
0.143657,-3.893091,8.894731,0.128986,-3.758843,9.056756,-0.183136,3.8E-4,-0.007841,6.24,-12.78,-56.16,190.2356,22.0557,-0.8192,55.81389,37.50027,213.7603,NaN,0.0,24.0,,15 / 16,,3382,2021-05-02 18:36:22:076
0.143657,-3.893091,8.894731,0.128986,-3.758843,9.056756,-0.177027,-0.002674,1.0E-4,6.24,-12.78,-56.16,190.2356,22.0557,-0.8192,55.81389,37.50027,213.7603,NaN,0.0,24.0,,15 / 16,,3392,2021-05-02 18:36:22:086
0.107742,-3.888302,8.940222,0.128842,-3.791817,9.043001,-0.180692,-8.42E-4,0.001322,6.3,-11.82,-55.98,191.8076,22.538,-0.816,55.81389,37.50027,213.7603,NaN,0.0,24.0,,15 / 16,,3402,2021-05-02 18:36:22:096
0.112531,-3.897879,8.959376,0.128842,-3.791817,9.043001,-0.197185,3.8E-4,-0.00723,6.3,-11.82,-55.98,191.8076,22.538,-0.816,55.81389,37.50027,213.7603,NaN,0.0,24.0,,15 / 16,,3412,2021-05-02 18:36:22:106
0.114925,-3.931399,8.887548,0.128545,-3.82621,9.028509,-0.204516,0.005878,-0.01395,6.18,-10.8,-55.8,191.8076,22.538,-0.816,55.81389,37.50027,213.7603,NaN,0.0,24.0,,15 / 16,,3422,2021-05-02 18:36:22:116
0.105348,-3.969708,8.873182,0.128684,-3.863189,9.012746,-0.205738,0.006489,-0.021891,5.94,-11.04,-56.22,192.0123,22.9648,-0.8157,55.81389,37.50027,213.7603,NaN,0.0,24.0,,15 / 16,,3432,2021-05-02 18:36:22:126
0.105348,-3.969708,8.873182,0.128684,-3.863189,9.012746,-0.194131,0.010154,-0.029832,5.94,-11.04,-56.22,192.0123,22.9648,-0.8157,55.81389,37.50027,213.7603,NaN,0.0,24.0,,15 / 16,,3442,2021-05-02 18:36:22:136
0.122108,-3.988862,8.889942,0.128684,-3.863189,9.012746,-0.197185,0.015041,-0.037773,5.94,-11.04,-56.22,192.0123,22.9648,-0.8157,55.81389,37.50027,213.7603,NaN,0.0,24.0,,15 / 16,,3453,2021-05-02 18:36:22:147
0.122108,-3.988862,8.889942,0.128654,-3.898688,8.997447,-0.206348,0.013819,-0.036552,5.46,-11.52,-56.58,192.0123,22.9648,-0.8157,55.81389,37.50027,213.7603,NaN,0.0,24.0,,15 / 16,,3462,2021-05-02 18:36:22:156
0.112531,-4.000833,8.897125,0.128654,-3.898688,8.997447,-0.216733,0.013819,-0.034719,5.46,-11.52,-56.58,192.0123,22.9648,-0.8157,55.81389,37.50027,213.7603,NaN,0.0,24.0,,15 / 16,,3472,2021-05-02 18:36:22:166
0.093377,-4.024776,8.909097,0.127801,-3.936241,8.981093,-0.234448,0.01443,-0.038384,5.16,-10.8,-56.46,190.1722,23.4255,-0.8192,55.81389,37.50027,213.7603,NaN,0.0,24.0,,15 / 16,,3483,2021-05-02 18:36:22:177
0.126897,-4.091815,8.882759,0.127801,-3.936241,8.981093,-0.257661,0.016873,-0.043882,5.94,-10.44,-56.4,190.1722,23.4255,-0.8192,55.81389,37.50027,213.7603,NaN,0.0,24.0,,15 / 16,,3492,2021-05-02 18:36:22:186
0.126897,-4.091815,8.882759,0.124602,-3.977713,8.962847,-0.273544,0.018095,-0.036552,5.94,-10.44,-56.4,190.1722,23.4255,-0.8192,55.81389,37.50027,213.7603,NaN,0.0,24.0,,15 / 16,,3502,2021-05-02 18:36:22:196
0.150839,-4.125336,8.825297,0.124602,-3.977713,8.962847,-0.282096,0.013819,-0.030443,5.94,-10.44,-56.4,190.1722,23.4255,-0.8192,55.81389,37.50027,213.7603,NaN,0.0,24.0,,15 / 16,,3513,2021-05-02 18:36:22:207
0.143657,-4.163644,8.803748,0.122927,-4.024033,8.942171,-0.287594,0.010765,-0.022502,6.0,-10.32,-56.52,191.9018,23.9296,-0.7965,55.81389,37.50027,213.7603,NaN,0.0,24.0,,15 / 16,,3522,2021-05-02 18:36:22:216
0.153234,-4.201952,8.763046,0.122927,-4.024033,8.942171,-0.296146,0.007099,-0.014561,6.0,-10.32,-56.52,191.9018,23.9296,-0.7965,55.81389,37.50027,213.7603,NaN,0.0,24.0,,15 / 16,,3532,2021-05-02 18:36:22:226
0.158022,-4.233078,8.743892,0.123094,-4.075229,8.918953,-0.294924,9.91E-4,-0.008452,6.18,-9.72,-56.7,191.9018,23.9296,-0.7965,55.81389,37.50027,213.7603,NaN,0.0,24.0,,15 / 16,,3542,2021-05-02 18:36:22:236
0.158022,-4.233078,8.743892,0.123094,-4.075229,8.918953,-0.296146,0.001602,-0.006619,6.18,-9.72,-56.7,191.9018,23.9296,-0.7965,55.81389,37.50027,213.7603,NaN,0.0,24.0,,15 / 16,,3552,2021-05-02 18:36:22:246
0.143657,-4.288146,8.753469,0.123355,-4.127851,8.894716,-0.296146,0.001602,-0.006619,6.18,-9.06,-56.64,192.0328,24.5544,-0.7907,55.81389,37.50027,213.7603,NaN,0.0,24.0,,15 / 16,,3562,2021-05-02 18:36:22:256
0.143657,-4.312089,8.700794,0.123355,-4.127851,8.894716,-0.305309,9.91E-4,-0.002954,6.18,-9.06,-56.64,192.0328,24.5544,-0.7907,55.81389,37.50027,213.7603,NaN,0.0,24.0,,15 / 16,,3573,2021-05-02 18:36:22:267
0.095771,-4.25702,8.696006,0.123395,-4.181422,8.869658,-0.303476,0.006489,-0.013339,6.18,-8.76,-56.7,192.0328,24.5544,-0.7907,55.81389,37.50027,213.7603,NaN,0.0,24.0,,15 / 16,,3583,2021-05-02 18:36:22:277
0.095771,-4.25702,8.696006,0.123395,-4.181422,8.869658,-0.29248,0.003434,-0.014561,6.18,-8.76,-56.7,192.0328,24.5544,-0.7907,55.81389,37.50027,213.7603,NaN,0.0,24.0,,15 / 16,,3592,2021-05-02 18:36:22:286
0.057463,-4.211529,8.696006,0.123527,-4.234175,8.844595,-0.274765,0.005267,-0.013339,6.9,-8.28,-56.64,193.7812,25.5797,-0.8002,55.81389,37.50027,213.7603,NaN,0.0,24.0,,15 / 16,,3602,2021-05-02 18:36:22:296
0.129291,-4.379128,8.60263,0.123527,-4.234175,8.844595,-0.248498,-0.001453,1.0E-4,6.9,-8.28,-56.64,193.7812,25.5797,-0.8002,55.81389,37.50027,213.7603,NaN,0.0,24.0,,15 / 16,,3613,2021-05-02 18:36:22:307
0.134079,-4.395888,8.590658,0.12373,-4.280529,8.822252,-0.225896,-0.005118,0.003765,6.54,-8.04,-56.76,193.7812,25.5797,-0.8002,55.81389,37.50027,213.7603,NaN,0.0,24.0,,15 / 16,,3622,2021-05-02 18:36:22:316
0.134079,-4.395888,8.590658,0.12373,-4.280529,8.822252,-0.20024,-0.008172,0.009874,6.54,-8.04,-56.76,193.7812,25.5797,-0.8002,55.81389,37.50027,213.7603,NaN,0.0,24.0,,15 / 16,,3632,2021-05-02 18:36:22:326
0.143657,-4.436591,8.581081,0.124225,-4.318145,8.803893,-0.177638,-0.011226,0.015372,6.3,-8.16,-57.42,191.9157,26.1248,-0.8084,55.81389,37.50027,213.7603,NaN,0.0,24.0,,15 / 16,,3643,2021-05-02 18:36:22:337
0.124502,-4.429408,8.636149,0.124225,-4.318145,8.803893,-0.161144,-0.007561,0.015372,6.3,-8.16,-57.42,191.9157,26.1248,-0.8084,55.81389,37.50027,213.7603,NaN,0.0,24.0,,15 / 16,,3652,2021-05-02 18:36:22:346
0.102954,-4.472505,8.667274,0.124598,-4.348179,8.789094,-0.163588,-0.007561,0.009874,6.48,-8.4,-57.54,191.9157,26.1248,-0.8084,55.81389,37.50027,213.7603,NaN,0.0,24.0,,15 / 16,,3663,2021-05-02 18:36:22:357
0.105348,-4.45814,8.681641,0.124707,-4.362308,8.782089,-0.166031,-0.003896,0.007431,6.48,-8.4,-57.72,191.9157,26.1248,-0.8084,55.81389,37.50027,213.7603,NaN,0.0,24.0,,15 / 16,,3672,2021-05-02 18:36:22:366
0.105348,-4.45814,8.681641,0.125009,-4.391773,8.767386,-0.177027,3.8E-4,-0.002954,6.66,-7.38,-58.26,193.7279,26.4126,-0.8136,55.81389,37.50027,213.7603,NaN,0.0,24.0,,15 / 16,,3682,2021-05-02 18:36:22:376
0.095771,-4.455745,8.643332,0.125009,-4.391773,8.767386,-0.177027,3.8E-4,-0.002954,6.66,-7.38,-58.26,193.7279,26.4126,-0.8136,55.81389,37.50027,213.7603,NaN,0.0,24.0,,15 / 16,,3692,2021-05-02 18:36:22:386
0.110137,-4.477294,8.628966,0.125101,-4.407302,8.759589,-0.181914,0.006489,-0.012117,6.6,-6.96,-58.2,193.7279,26.4126,-0.8136,55.81389,37.50027,213.7603,NaN,0.0,24.0,,15 / 16,,3702,2021-05-02 18:36:22:396
0.124502,-4.532362,8.607418,0.125101,-4.407302,8.759589,-0.183136,0.006489,-0.015782,6.6,-6.96,-58.2,193.7279,26.4126,-0.8136,55.813934,37.500275,216.9586,NaN,0.0,24.0,,15 / 16,,3712,2021-05-02 18:36:22:406
0.10056,-4.573065,8.559532,0.125299,-4.438709,8.743711,-0.183746,0.005878,-0.014561,6.42,-6.72,-57.48,193.7279,26.4126,-0.8136,55.813934,37.500275,216.9586,NaN,0.0,24.0,,15 / 16,,3722,2021-05-02 18:36:22:416
0.10056,-4.573065,8.559532,0.125109,-4.470194,8.727661,-0.180692,0.008321,-0.01395,6.36,-6.6,-56.76,192.0246,26.9121,-0.821,55.813934,37.500275,216.9586,NaN,0.0,24.0,,15 / 16,,3732,2021-05-02 18:36:22:426
0.141262,-4.575459,8.578687,0.125109,-4.470194,8.727661,-0.185579,0.003434,-0.014561,6.36,-6.6,-56.76,192.0246,26.9121,-0.821,55.813934,37.500275,216.9586,NaN,0.0,24.0,,15 / 16,,3743,2021-05-02 18:36:22:437
0.131685,-4.594613,8.590658,0.125109,-4.470194,8.727661,-0.197796,0.002823,-0.012728,6.36,-6.6,-56.76,192.0246,26.9121,-0.821,55.813934,37.500275,216.9586,NaN,0.0,24.0,,15 / 16,,3752,2021-05-02 18:36:22:446
0.150839,-4.642499,8.566715,0.125366,-4.502467,8.711053,-0.206348,0.002213,-0.008452,6.9,-7.08,-57.24,192.0246,26.9121,-0.821,55.813934,37.500275,216.9586,NaN,0.0,24.0,,15 / 16,,3762,2021-05-02 18:36:22:456
0.124502,-4.676018,8.537984,0.125928,-4.538211,8.692476,-0.214901,0.005267,-0.011506,6.78,-6.6,-57.42,193.5928,27.3306,-0.8245,55.813934,37.500275,216.9586,NaN,0.0,24.0,,15 / 16,,3772,2021-05-02 18:36:22:466
0.124502,-4.676018,8.537984,0.125928,-4.538211,8.692476,-0.221009,0.002213,-0.010895,6.78,-6.6,-57.42,193.5928,27.3306,-0.8245,55.813934,37.500275,216.9586,NaN,0.0,24.0,,15 / 16,,3782,2021-05-02 18:36:22:476
0.143657,-4.690384,8.516436,0.126388,-4.580177,8.67043,-0.218566,0.002213,-0.003565,5.64,-6.12,-57.3,193.5928,27.3306,-0.8245,55.813934,37.500275,216.9586,NaN,0.0,24.0,,15 / 16,,3792,2021-05-02 18:36:22:486
0.146051,-4.709538,8.480521,0.126388,-4.580177,8.67043,-0.213679,3.8E-4,-0.002343,5.64,-6.12,-57.3,193.5928,27.3306,-0.8245,55.813934,37.500275,216.9586,NaN,0.0,24.0,,15 / 16,,3802,2021-05-02 18:36:22:496
0.136474,-4.767001,8.482916,0.126388,-4.580177,8.67043,-0.21429,0.003434,-5.11E-4,5.64,-6.12,-57.3,193.5928,27.3306,-0.8245,55.813934,37.500275,216.9586,NaN,0.0,24.0,,15 / 16,,3812,2021-05-02 18:36:22:506
0.158022,-4.824464,8.437425,0.126252,-4.625405,8.64639,-0.21429,0.002213,-0.004176,5.82,-6.0,-57.66,191.9465,27.8429,-0.8351,55.813934,37.500275,216.9586,NaN,0.0,24.0,,15 / 16,,3822,2021-05-02 18:36:22:516
0.158022,-4.824464,8.437425,0.126252,-4.625405,8.64639,-0.211846,0.002213,7.11E-4,5.82,-6.0,-57.66,191.9465,27.8429,-0.8351,55.813934,37.500275,216.9586,NaN,0.0,24.0,,15 / 16,,3832,2021-05-02 18:36:22:526
0.160416,-4.869955,8.439818,0.127681,-4.67165,8.621469,-0.216733,-8.42E-4,-0.001732,5.94,-5.4,-57.84,191.9465,27.8429,-0.8351,55.813934,37.500275,216.9586,NaN,0.0,24.0,,15 / 16,,3842,2021-05-02 18:36:22:536
0.141262,-4.80531,8.482916,0.127681,-4.67165,8.621469,-0.222842,0.003434,-0.005398,5.94,-5.4,-57.84,191.9465,27.8429,-0.8351,55.813934,37.500275,216.9586,NaN,0.0,24.0,,15 / 16,,3852,2021-05-02 18:36:22:546
0.107742,-4.733481,8.439818,0.130611,-4.719461,8.595345,-0.223453,0.009543,-0.008452,6.3,-4.86,-57.96,192.1037,28.449,-0.8485,55.813934,37.500275,216.9586,NaN,0.0,24.0,,15 / 16,,3862,2021-05-02 18:36:22:556
0.107742,-4.733481,8.439818,0.130611,-4.719461,8.595345,-0.208792,9.91E-4,-0.008452,6.3,-4.86,-57.96,192.1037,28.449,-0.8485,55.813934,37.500275,216.9586,NaN,0.0,24.0,,15 / 16,,3872,2021-05-02 18:36:22:566
0.05028,-4.666441,8.475733,0.132926,-4.761912,8.571866,-0.191077,9.91E-4,-0.006619,6.36,-4.62,-57.6,192.1037,28.449,-0.8485,55.813934,37.500275,216.9586,NaN,0.0,24.0,,15 / 16,,3882,2021-05-02 18:36:22:576
0.06704,-4.695173,8.487704,0.132926,-4.761912,8.571866,-0.191077,9.91E-4,-0.006619,6.36,-4.62,-57.6,192.1037,28.449,-0.8485,55.813934,37.500275,216.9586,NaN,0.0,24.0,,15 / 16,,3892,2021-05-02 18:36:22:586
0.055068,-4.822069,8.413482,0.131224,-4.79125,8.555529,-0.169086,-0.001453,0.003155,5.94,-4.92,-57.3,192.139,29.0505,-0.8884,55.813934,37.500275,216.9586,NaN,0.0,24.0,,15 / 16,,3903,2021-05-02 18:36:22:597
0.129291,-4.874743,8.384751,0.131224,-4.79125,8.555529,-0.169086,-0.001453,0.003155,5.94,-4.92,-57.3,192.139,29.0505,-0.8884,55.813934,37.500275,216.9586,NaN,0.0,24.0,,15 / 16,,3912,2021-05-02 18:36:22:606
0.148445,-4.925023,8.358414,0.1261,-4.814808,8.542371,-0.159923,-8.42E-4,-0.001732,6.48,-5.22,-57.72,192.139,29.0505,-0.8884,55.813934,37.500275,216.9586,NaN,0.0,24.0,,15 / 16,,3923,2021-05-02 18:36:22:617
0.148445,-4.925023,8.358414,0.1261,-4.814808,8.542371,-0.145262,-0.005729,0.004987,6.48,-5.22,-57.72,192.139,29.0505,-0.8884,55.813934,37.500275,216.9586,NaN,0.0,24.0,,15 / 16,,3932,2021-05-02 18:36:22:626
0.174782,-4.903475,8.384751,0.123371,-4.840041,8.528137,-0.139764,-0.008172,0.012317,7.14,-4.74,-57.9,193.4767,29.4046,-0.8457,55.813934,37.500275,216.9586,NaN,0.0,24.0,,15 / 16,,3942,2021-05-02 18:36:22:636
0.153234,-4.922629,8.379962,0.123371,-4.840041,8.528137,-0.136099,-0.010005,0.014761,6.48,-4.32,-57.72,193.4767,29.4046,-0.8457,55.813934,37.500275,216.9586,NaN,0.0,24.0,,15 / 16,,3952,2021-05-02 18:36:22:646
0.141262,-4.893897,8.372779,0.123846,-4.865545,8.513606,-0.12999,-0.01367,0.023924,6.48,-4.32,-57.72,193.4767,29.4046,-0.8457,55.813934,37.500275,216.9586,NaN,0.0,24.0,,15 / 16,,3963,2021-05-02 18:36:22:657
0.143657,-4.860378,8.339259,0.12444,-4.878427,8.506222,-0.112275,-0.018557,0.026367,5.82,-4.62,-58.32,193.4767,29.4046,-0.8457,55.813934,37.500275,216.9586,NaN,0.0,24.0,,15 / 16,,3973,2021-05-02 18:36:22:667
0.143657,-4.860378,8.339259,0.124908,-4.898951,8.494412,-0.095171,-0.017946,0.029422,6.12,-4.38,-57.66,191.9784,29.8322,-0.8381,55.813934,37.500275,216.9586,NaN,0.0,24.0,,15 / 16,,3982,2021-05-02 18:36:22:676
0.138868,-4.867561,8.389539,0.124908,-4.898951,8.494412,-0.095171,-0.017946,0.029422,6.12,-4.38,-57.66,191.9784,29.8322,-0.8381,55.813934,37.500275,216.9586,NaN,0.0,24.0,,15 / 16,,3992,2021-05-02 18:36:22:686
0.079011,-4.953754,8.363202,0.125022,-4.907119,8.489693,-0.092728,-0.014892,0.014761,6.12,-4.38,-57.66,191.9784,29.8322,-0.8381,55.813934,37.500275,216.9586,NaN,0.0,24.0,,15 / 16,,4002,2021-05-02 18:36:22:696
0.079011,-4.953754,8.363202,0.125022,-4.907119,8.489693,-0.095171,-0.00695,0.00682,7.26,-3.96,-57.3,191.9784,29.8322,-0.8381,55.813934,37.500275,216.9586,NaN,0.0,24.0,,15 / 16,,4012,2021-05-02 18:36:22:706
0.055068,-4.977697,8.351231,0.125906,-4.922957,8.480507,-0.096393,-0.002674,-0.003565,7.02,-4.02,-57.48,191.9784,29.8322,-0.8381,55.813934,37.500275,216.9586,NaN,0.0,24.0,,15 / 16,,4022,2021-05-02 18:36:22:716
0.095771,-4.977697,8.324894,0.126707,-4.939051,8.471131,-0.089673,0.007099,-0.02128,6.66,-3.84,-58.32,193.588,30.1325,-0.8506,55.813934,37.500275,216.9586,NaN,0.0,24.0,,15 / 16,,4033,2021-05-02 18:36:22:727
0.081405,-5.078257,8.286585,0.126707,-4.939051,8.471131,-0.078067,0.015041,-0.026167,6.66,-3.84,-58.32,193.588,30.1325,-0.8506,55.813934,37.500275,216.9586,NaN,0.0,24.0,,15 / 16,,4042,2021-05-02 18:36:22:736
0.081405,-5.078257,8.286585,0.126707,-4.939051,8.471131,-0.071958,0.015652,-0.026778,6.66,-3.84,-58.32,193.588,30.1325,-0.8506,55.813934,37.500275,216.9586,NaN,0.0,24.0,,15 / 16,,4052,2021-05-02 18:36:22:746
0.076617,-5.085439,8.291374,0.126781,-4.952506,8.46327,-0.071958,0.016262,-0.024334,6.0,-3.48,-57.9,193.588,30.1325,-0.8506,55.813934,37.500275,216.9586,NaN,0.0,24.0,,15 / 16,,4062,2021-05-02 18:36:22:756
0.088588,-5.023188,8.365596,0.127088,-4.964962,8.455966,-0.084175,0.012597,-0.025556,6.66,-3.72,-57.24,193.7132,30.3324,-0.8582,55.813934,37.500275,216.9586,NaN,0.0,24.0,,15 / 16,,4072,2021-05-02 18:36:22:766
0.098165,-5.023188,8.348836,0.127088,-4.964962,8.455966,-0.095171,0.020539,-0.034719,6.66,-3.72,-57.24,193.7132,30.3324,-0.8582,55.813934,37.500275,216.9586,NaN,0.0,24.0,,15 / 16,,4083,2021-05-02 18:36:22:777
0.098165,-5.023188,8.348836,0.127404,-4.981456,8.446254,-0.105556,0.019928,-0.032887,7.8,-4.38,-58.2,193.7132,30.3324,-0.8582,55.813934,37.500275,216.9586,NaN,0.0,24.0,,15 / 16,,4092,2021-05-02 18:36:22:786
0.122108,-5.073468,8.324894,0.127404,-4.981456,8.446254,-0.119606,0.018095,-0.03533,7.8,-4.38,-58.2,193.7132,30.3324,-0.8582,55.813934,37.500275,216.9586,NaN,0.0,24.0,,15 / 16,,4102,2021-05-02 18:36:22:796
0.10056,-5.085439,8.3225,0.127404,-4.981456,8.446254,-0.131212,0.018706,-0.036552,7.8,-4.38,-58.2,193.7132,30.3324,-0.8582,55.813934,37.500275,216.9586,NaN,0.0,24.0,,15 / 16,,4112,2021-05-02 18:36:22:806
0.136474,-5.066285,8.300951,0.12312,-5.012308,8.428046,-0.138542,0.016873,-0.031054,7.56,-3.48,-58.74,195.3014,30.5285,-0.8642,55.813934,37.500275,216.9586,NaN,0.0,24.0,,15 / 16,,4123,2021-05-02 18:36:22:817
0.146051,-5.090228,8.28898,0.120809,-5.042634,8.409969,-0.142818,0.010765,-0.025556,6.66,-2.76,-58.44,195.3014,30.5285,-0.8642,55.813934,37.500275,216.9586,NaN,0.0,24.0,,15 / 16,,4132,2021-05-02 18:36:22:826
0.146051,-5.090228,8.28898,0.120809,-5.042634,8.409969,-0.138542,0.008932,-0.013339,6.66,-2.76,-58.44,195.3014,30.5285,-0.8642,55.813934,37.500275,216.9586,NaN,0.0,24.0,,15 / 16,,4142,2021-05-02 18:36:22:836
0.131685,-5.111777,8.274614,0.120809,-5.042634,8.409969,-0.140986,0.006489,-0.011506,6.06,-3.6,-58.44,191.6265,30.9444,-0.823,55.813934,37.500275,216.9586,NaN,0.0,24.0,,15 / 16,,4152,2021-05-02 18:36:22:846
0.126897,-5.128536,8.28898,0.120732,-5.071925,8.392341,-0.140986,0.006489,-0.011506,6.06,-3.6,-58.44,191.6265,30.9444,-0.823,55.813934,37.500275,216.9586,NaN,0.0,24.0,,15 / 16,,4162,2021-05-02 18:36:22:856
0.114925,-5.162056,8.253065,0.120825,-5.086047,8.383787,-0.148927,0.010765,-0.013339,6.3,-3.24,-58.5,191.6265,30.9444,-0.823,55.813934,37.500275,216.9586,NaN,0.0,24.0,,15 / 16,,4172,2021-05-02 18:36:22:866
0.124502,-5.200365,8.248277,0.120825,-5.086047,8.383787,-0.15809,0.010154,-0.020669,6.3,-3.24,-58.5,191.6265,30.9444,-0.823,55.813934,37.500275,216.9586,NaN,0.0,24.0,,15 / 16,,4182,2021-05-02 18:36:22:876
0.124502,-5.200365,8.248277,0.121294,-5.115627,8.365764,-0.169697,0.018706,-0.030443,6.54,-2.28,-57.78,191.6265,30.9444,-0.823,55.813934,37.500275,216.9586,NaN,0.0,24.0,,15 / 16,,4192,2021-05-02 18:36:22:886
0.141262,-5.212336,8.219546,0.121294,-5.115627,8.365764,-0.170307,0.021149,-0.027389,6.54,-2.28,-57.78,191.6265,30.9444,-0.823,55.813934,37.500275,216.9586,NaN,0.0,24.0,,15 / 16,,4202,2021-05-02 18:36:22:896
0.112531,-5.121353,8.224334,0.121621,-5.148815,8.345373,-0.164199,0.019317,-0.020669,6.96,-2.34,-57.72,193.8056,31.4429,-0.8307,55.813934,37.500275,216.9586,NaN,0.0,24.0,,15 / 16,,4213,2021-05-02 18:36:22:907
0.038308,-5.023188,8.260248,0.121736,-5.162852,8.336697,-0.155647,0.011376,-0.022502,7.2,-2.28,-58.14,193.8056,31.4429,-0.8307,55.813934,37.500275,216.9586,NaN,0.0,24.0,,15 / 16,,4222,2021-05-02 18:36:22:916
0.126897,-5.19797,8.150111,0.121736,-5.162852,8.336697,-0.130601,0.005878,-0.010285,7.2,-2.28,-58.14,193.8056,31.4429,-0.8307,55.813934,37.500275,216.9586,NaN,0.0,24.0,,15 / 16,,4232,2021-05-02 18:36:22:926
0.126897,-5.19797,8.150111,0.121898,-5.187093,8.32163,-0.114108,0.004656,-0.004176,7.2,-2.46,-57.84,193.8056,31.4429,-0.8307,55.813934,37.500275,216.9586,NaN,0.0,24.0,,15 / 16,,4242,2021-05-02 18:36:22:936
0.126897,-5.238673,8.212363,0.120771,-5.206341,8.309621,-0.109832,9.91E-4,-0.005398,6.6,-3.12,-57.48,193.4974,31.9336,-0.8392,55.813934,37.500275,216.9586,NaN,0.0,24.0,,15 / 16,,4253,2021-05-02 18:36:22:947
0.136474,-5.229096,8.183631,0.120771,-5.206341,8.309621,-0.113497,3.8E-4,-0.003565,6.6,-3.12,-57.48,193.4974,31.9336,-0.8392,55.813934,37.500275,216.9586,NaN,0.0,24.0,,15 / 16,,4262,2021-05-02 18:36:22:956
0.117319,-5.260222,8.152506,0.120385,-5.225119,8.297832,-0.10861,0.001602,-0.003565,6.84,-2.82,-58.02,193.4974,31.9336,-0.8392,55.813934,37.500275,216.9586,NaN,0.0,24.0,,15 / 16,,4273,2021-05-02 18:36:22:967
0.117319,-5.260222,8.152506,0.120385,-5.225119,8.297832,-0.102501,-0.001453,-0.001732,6.84,-2.82,-58.02,193.4974,31.9336,-0.8392,55.813934,37.500275,216.9586,NaN,0.0,24.0,,15 / 16,,4282,2021-05-02 18:36:22:976
0.131685,-5.272193,8.17166,0.120385,-5.225119,8.297832,-0.102501,-0.002064,7.11E-4,6.84,-2.82,-58.02,193.4974,31.9336,-0.8392,55.813934,37.500275,216.9586,NaN,0.0,24.0,,15 / 16,,4292,2021-05-02 18:36:22:986
0.129291,-5.276982,8.202786,0.120487,-5.244063,8.28587,-0.109221,-8.42E-4,0.003155,6.48,-1.98,-58.02,191.87,32.1958,-0.8312,55.813934,37.500275,216.9586,NaN,0.0,24.0,,15 / 16,,4302,2021-05-02 18:36:22:996
0.090982,-5.288953,8.159689,0.120946,-5.264101,8.273147,-0.112275,-0.004507,-5.11E-4,6.66,-1.5,-57.48,191.87,32.1958,-0.8312,55.813934,37.500275,216.9586,NaN,0.0,24.0,,15 / 16,,4312,2021-05-02 18:36:23:006
0.090982,-5.288953,8.159689,0.120946,-5.264101,8.273147,-0.10861,-2.31E-4,-0.004787,6.66,-1.5,-57.48,191.87,32.1958,-0.8312,55.813934,37.500275,216.9586,NaN,0.0,24.0,,15 / 16,,4323,2021-05-02 18:36:23:017
0.086194,-5.267404,8.128563,0.12001,-5.283343,8.260885,-0.09456,0.007099,-0.009063,7.44,-1.92,-57.06,193.6607,32.4653,-0.8376,55.813934,37.500275,216.9586,NaN,0.0,24.0,,15 / 16,,4333,2021-05-02 18:36:23:027
0.090982,-5.305713,8.133352,0.12001,-5.283343,8.260885,-0.086619,0.008932,-0.02128,7.44,-1.92,-57.06,193.6607,32.4653,-0.8376,55.813934,37.500275,216.9586,NaN,0.0,24.0,,15 / 16,,4342,2021-05-02 18:36:23:036
0.102954,-5.293741,8.159689,0.12001,-5.283343,8.260885,-0.084786,0.015652,-0.027389,7.44,-1.92,-57.06,193.6607,32.4653,-0.8376,55.813934,37.500275,216.9586,NaN,0.0,24.0,,15 / 16,,4352,2021-05-02 18:36:23:046
0.090982,-5.312896,8.186026,0.11806,-5.299189,8.250758,-0.100058,0.024815,-0.038995,6.6,-1.86,-57.48,193.6607,32.4653,-0.8376,55.813934,37.500275,216.9586,NaN,0.0,24.0,,15 / 16,,4362,2021-05-02 18:36:23:056
0.090982,-5.312896,8.186026,0.115128,-5.314856,8.240717,-0.111053,0.025425,-0.040828,6.48,-1.74,-58.08,191.7009,32.7086,-0.8198,55.813934,37.500275,216.9586,NaN,0.0,24.0,,15 / 16,,4372,2021-05-02 18:36:23:066
0.138868,-5.372752,8.140535,0.115128,-5.314856,8.240717,-0.120216,0.026647,-0.036552,6.48,-1.74,-58.08,191.7009,32.7086,-0.8198,55.813934,37.500275,216.9586,NaN,0.0,24.0,,15 / 16,,4382,2021-05-02 18:36:23:076
0.160416,-5.370358,8.126169,0.115128,-5.314856,8.240717,-0.120216,0.026647,-0.036552,6.9,-2.22,-58.38,191.7009,32.7086,-0.8198,55.813934,37.500275,216.9586,NaN,0.0,24.0,,15 / 16,,4392,2021-05-02 18:36:23:086
0.160416,-5.370358,8.126169,0.113937,-5.335214,8.227566,-0.12999,0.016873,-0.024945,6.9,-2.22,-58.38,191.7009,32.7086,-0.8198,55.813934,37.500275,216.9586,NaN,0.0,24.0,,15 / 16,,4403,2021-05-02 18:36:23:097
0.143657,-5.363175,8.109409,0.11434,-5.346524,8.220215,-0.129379,0.011986,-0.020669,6.72,-1.86,-57.84,191.7009,32.7086,-0.8198,55.813934,37.500275,216.9586,NaN,0.0,24.0,,15 / 16,,4412,2021-05-02 18:36:23:106
0.126897,-5.38233,8.095043,0.116659,-5.369354,8.205291,-0.137321,0.010154,-0.017615,6.96,-2.1,-57.72,193.2151,33.0379,-0.7969,55.813934,37.500275,216.9586,NaN,0.0,24.0,,15 / 16,,4422,2021-05-02 18:36:23:116
0.122108,-5.391906,8.123775,0.116659,-5.369354,8.205291,-0.143429,0.012597,-0.018837,6.96,-2.1,-57.72,193.2151,33.0379,-0.7969,55.813934,37.500275,216.9586,NaN,0.0,24.0,,15 / 16,,4433,2021-05-02 18:36:23:127
0.122108,-5.391906,8.123775,0.118198,-5.392564,8.190031,-0.157479,0.010765,-0.018837,6.9,-2.28,-57.54,193.2151,33.0379,-0.7969,55.813934,37.500275,216.9586,NaN,0.0,24.0,,15 / 16,,4443,2021-05-02 18:36:23:137
0.131685,-5.413455,8.152506,0.118198,-5.392564,8.190031,-0.171529,0.013208,-0.02128,6.9,-2.28,-57.54,193.2151,33.0379,-0.7969,55.813934,37.500275,216.9586,NaN,0.0,24.0,,15 / 16,,4452,2021-05-02 18:36:23:146
0.129291,-5.420638,8.085467,0.11936,-5.417349,8.173641,-0.181914,0.011376,-0.012728,6.66,-1.62,-58.2,193.1638,33.3594,-0.8268,55.813934,37.500275,216.9586,NaN,0.0,24.0,,15 / 16,,4462,2021-05-02 18:36:23:156
0.134079,-5.449369,8.042369,0.11936,-5.417349,8.173641,-0.180081,0.005878,-0.007841,6.66,-1.62,-58.2,193.1638,33.3594,-0.8268,55.813934,37.500275,216.9586,NaN,0.0,24.0,,15 / 16,,4472,2021-05-02 18:36:23:166
0.146051,-5.490072,8.030398,0.120163,-5.430647,8.164803,-0.175194,9.91E-4,-0.002954,6.96,-0.84,-58.38,193.1638,33.3594,-0.8268,55.813934,37.500275,216.9586,NaN,0.0,24.0,,15 / 16,,4483,2021-05-02 18:36:23:177
0.146051,-5.490072,8.030398,0.121581,-5.457991,8.146527,-0.175194,-8.42E-4,0.005598,6.9,0.12,-58.38,193.1638,33.3594,-0.8268,55.813934,37.500275,216.9586,NaN,0.0,24.0,,15 / 16,,4493,2021-05-02 18:36:23:187
0.146051,-5.506832,8.023216,0.121581,-5.457991,8.146527,-0.175194,-8.42E-4,0.005598,6.9,0.12,-58.38,193.1638,33.3594,-0.8268,55.813934,37.500275,216.9586,NaN,0.0,24.0,,15 / 16,,4503,2021-05-02 18:36:23:197
0.110137,-5.51162,8.008849,0.121585,-5.486753,8.127183,-0.176416,-0.010616,0.010485,7.38,0.12,-58.08,193.7179,33.8183,-0.855,55.813934,37.500275,216.9586,NaN,0.0,24.0,,15 / 16,,4512,2021-05-02 18:36:23:206
0.141262,-5.5619,7.951387,0.121585,-5.486753,8.127183,-0.175805,-0.011837,0.014761,7.38,0.12,-58.08,193.7179,33.8183,-0.855,55.813934,37.500275,216.9586,NaN,0.0,24.0,,15 / 16,,4522,2021-05-02 18:36:23:216
0.141262,-5.5619,7.951387,0.121585,-5.486753,8.127183,-0.16542,-0.021611,0.0282,7.38,0.12,-58.08,193.7179,33.8183,-0.855,55.813934,37.500275,216.9586,NaN,0.0,24.0,,15 / 16,,4532,2021-05-02 18:36:23:226
0.124502,-5.533169,7.989695,0.121596,-5.514889,8.108117,-0.15809,-0.021611,0.0282,7.74,-0.24,-58.5,193.7179,33.8183,-0.855,55.813934,37.500275,216.9586,NaN,0.0,24.0,,15 / 16,,4542,2021-05-02 18:36:23:236
0.081405,-5.521198,7.965752,0.123557,-5.539573,8.091245,-0.147095,-0.021611,0.023924,7.14,-0.72,-58.98,193.076,34.2193,-0.8592,55.813934,37.500275,216.9586,NaN,0.0,24.0,,15 / 16,,4552,2021-05-02 18:36:23:246
0.090982,-5.569083,7.963358,0.123557,-5.539573,8.091245,-0.142818,-0.014281,0.018426,7.14,-0.72,-58.98,193.076,34.2193,-0.8592,55.813934,37.500275,216.9586,NaN,0.0,24.0,,15 / 16,,4563,2021-05-02 18:36:23:257
0.090982,-5.569083,7.963358,0.123557,-5.539573,8.091245,-0.13671,-0.013059,0.013539,7.14,-0.72,-58.98,193.076,34.2193,-0.8592,55.813934,37.500275,216.9586,NaN,0.0,24.0,,15 / 16,,4572,2021-05-02 18:36:23:266
0.114925,-5.583449,7.920261,0.123108,-5.561193,8.076403,-0.123882,-0.005729,0.009874,6.72,-0.24,-58.62,193.076,34.2193,-0.8592,55.813934,37.500275,216.9586,NaN,0.0,24.0,,15 / 16,,4582,2021-05-02 18:36:23:276
0.136474,-5.521198,7.965752,0.123108,-5.561193,8.076403,-0.109832,-0.005729,0.008041,6.72,-0.24,-58.62,193.076,34.2193,-0.8592,55.813934,37.500275,216.9586,NaN,0.0,24.0,,15 / 16,,4592,2021-05-02 18:36:23:286
0.143657,-5.52838,7.996878,0.122401,-5.581311,8.062525,-0.107999,-0.003896,0.009263,6.6,0.06,-58.8,193.3073,34.5471,-0.8733,55.813934,37.500275,216.9586,NaN,0.0,24.0,,15 / 16,,4602,2021-05-02 18:36:23:296
0.165205,-5.54514,7.99209,0.122107,-5.596201,8.052205,-0.106777,-0.005729,0.010485,6.54,0.12,-58.92,193.3073,34.5471,-0.8733,55.813934,37.500275,216.9586,NaN,0.0,24.0,,15 / 16,,4612,2021-05-02 18:36:23:306
0.165205,-5.54514,7.99209,0.122107,-5.596201,8.052205,-0.10128,-0.010616,0.00682,6.54,0.12,-58.92,193.3073,34.5471,-0.8733,55.813934,37.500275,216.9586,NaN,0.0,24.0,,15 / 16,,4622,2021-05-02 18:36:23:316
0.162811,-5.597814,7.934627,0.124618,-5.608263,8.043765,-0.100669,-0.012448,0.012317,6.3,0.66,-58.38,192.051,34.7958,-0.8688,55.813934,37.500275,216.9586,NaN,0.0,24.0,,15 / 16,,4634,2021-05-02 18:36:23:328
0.143657,-5.626546,7.915473,0.124618,-5.608263,8.043765,-0.100669,-0.012448,0.012317,6.3,0.66,-58.38,192.051,34.7958,-0.8688,55.813934,37.500275,216.9586,NaN,0.0,24.0,,15 / 16,,4642,2021-05-02 18:36:23:336
0.122108,-5.62894,7.922655,0.124618,-5.608263,8.043765,-0.095782,-0.014281,0.02087,6.3,0.66,-58.38,192.051,34.7958,-0.8688,55.813934,37.500275,216.9586,NaN,0.0,24.0,,15 / 16,,4653,2021-05-02 18:36:23:347
0.0838,-5.686403,7.90829,0.127763,-5.62313,8.033331,-0.085397,-0.017946,0.017204,6.72,1.26,-58.14,192.051,34.7958,-0.8688,55.813934,37.500275,216.9586,NaN,0.0,24.0,,15 / 16,,4662,2021-05-02 18:36:23:356
0.0838,-5.686403,7.90829,0.128155,-5.637249,8.023425,-0.084175,-0.016113,0.015983,6.78,1.26,-58.5,193.751,34.9876,-0.9112,55.813934,37.500275,216.9586,NaN,0.0,24.0,,15 / 16,,4673,2021-05-02 18:36:23:367
0.064645,-5.765414,7.877164,0.128155,-5.637249,8.023425,-0.089062,-0.016113,0.015372,6.78,1.26,-58.5,193.751,34.9876,-0.9112,55.813934,37.500275,216.9586,NaN,0.0,24.0,,15 / 16,,4682,2021-05-02 18:36:23:376
0.074223,-5.736682,7.846039,0.128155,-5.637249,8.023425,-0.090284,-0.010005,0.008652,6.78,1.26,-58.5,193.751,34.9876,-0.9112,55.813934,37.500275,216.9586,NaN,0.0,24.0,,15 / 16,,4692,2021-05-02 18:36:23:386
0.074223,-5.794145,7.817308,0.128995,-5.651495,8.013381,-0.091506,-0.005729,0.00682,6.72,0.96,-58.26,193.751,34.9876,-0.9112,55.813953,37.50029,219.6519,NaN,0.0,16.0,,14 / 16,,4702,2021-05-02 18:36:23:396
0.074223,-5.794145,7.817308,0.128995,-5.651495,8.013381,-0.099447,-0.009394,0.009874,6.72,0.96,-58.26,193.751,34.9876,-0.9112,55.813953,37.50029,219.6519,NaN,0.0,16.0,,14 / 16,,4712,2021-05-02 18:36:23:406
0.134079,-5.698374,7.886741,0.12389,-5.678022,7.994691,-0.097614,-0.010005,0.011707,6.96,1.14,-58.26,193.5784,35.38,-0.8878,55.813953,37.50029,219.6519,NaN,0.0,16.0,,14 / 16,,4722,2021-05-02 18:36:23:416
0.134079,-5.700768,7.867587,0.12389,-5.678022,7.994691,-0.097004,-0.013059,0.013539,6.96,1.14,-58.26,193.5784,35.38,-0.8878,55.813953,37.50029,219.6519,NaN,0.0,16.0,,14 / 16,,4732,2021-05-02 18:36:23:426
0.112531,-5.717528,7.867587,0.120371,-5.702808,7.977083,-0.10189,-0.014892,0.017204,7.26,0.54,-58.38,193.5784,35.38,-0.8878,55.813953,37.50029,219.6519,NaN,0.0,16.0,,14 / 16,,4742,2021-05-02 18:36:23:436
0.119714,-5.707951,7.872376,0.120371,-5.702808,7.977083,-0.103112,-0.015503,0.016594,7.26,0.54,-58.38,193.5784,35.38,-0.8878,55.813953,37.50029,219.6519,NaN,0.0,16.0,,14 / 16,,4752,2021-05-02 18:36:23:446
0.090982,-5.717528,7.850827,0.118978,-5.724363,7.961648,-0.100058,-0.011226,0.009874,7.38,0.3,-58.02,193.1656,35.5579,-0.8645,55.813953,37.50029,219.6519,NaN,0.0,16.0,,14 / 16,,4762,2021-05-02 18:36:23:456
0.090982,-5.717528,7.850827,0.118978,-5.724363,7.961648,-0.09456,-0.005118,0.008041,7.38,0.3,-58.02,193.1656,35.5579,-0.8645,55.813953,37.50029,219.6519,NaN,0.0,16.0,,14 / 16,,4772,2021-05-02 18:36:23:466
0.090982,-5.765414,7.829279,0.117522,-5.74285,7.948347,-0.089673,-0.00695,0.006209,6.3,0.84,-58.5,193.1656,35.5579,-0.8645,55.813953,37.50029,219.6519,NaN,0.0,16.0,,14 / 16,,4782,2021-05-02 18:36:23:476
0.122108,-5.765414,7.798153,0.11599,-5.759464,7.936338,-0.075012,-0.00695,0.007431,5.64,1.92,-59.16,191.8065,35.8459,-0.8471,55.813953,37.50029,219.6519,NaN,0.0,16.0,,14 / 16,,4792,2021-05-02 18:36:23:486
0.122108,-5.765414,7.769422,0.11599,-5.759464,7.936338,-0.062184,-0.01367,0.009263,5.64,1.92,-59.16,191.8065,35.8459,-0.8471,55.813953,37.50029,219.6519,NaN,0.0,16.0,,14 / 16,,4803,2021-05-02 18:36:23:497
0.131685,-5.760625,7.793365,0.115959,-5.773974,7.925786,-0.046302,-0.009394,0.009874,6.18,2.22,-59.64,191.8065,35.8459,-0.8471,55.813953,37.50029,219.6519,NaN,0.0,16.0,,14 / 16,,4813,2021-05-02 18:36:23:507
0.131685,-5.760625,7.793365,0.115959,-5.773974,7.925786,-0.035917,-0.010005,0.007431,6.18,2.22,-59.64,191.8065,35.8459,-0.8471,55.813953,37.50029,219.6519,NaN,0.0,16.0,,14 / 16,,4822,2021-05-02 18:36:23:516
0.129291,-5.731894,7.817308,0.115959,-5.773974,7.925786,-0.014537,-0.003896,0.005598,6.18,2.22,-59.64,191.8065,35.8459,-0.8471,55.813953,37.50029,219.6519,NaN,0.0,16.0,,14 / 16,,4833,2021-05-02 18:36:23:527
0.114925,-5.693585,7.790971,0.116495,-5.78382,7.918601,0.009287,-2.31E-4,0.001933,6.6,1.38,-59.64,192.8776,36.0706,-0.8382,55.813953,37.50029,219.6519,NaN,0.0,16.0,,14 / 16,,4843,2021-05-02 18:36:23:537
0.131685,-5.674431,7.814913,0.11695,-5.784995,7.917731,0.036165,0.001602,7.11E-4,6.72,1.2,-59.82,192.8776,36.0706,-0.8382,55.813953,37.50029,219.6519,NaN,0.0,16.0,,14 / 16,,4852,2021-05-02 18:36:23:546
0.179571,-5.693585,7.802942,0.11695,-5.784995,7.917731,0.071595,-0.003285,1.0E-4,6.72,1.2,-59.82,192.8776,36.0706,-0.8382,55.813953,37.50029,219.6519,NaN,0.0,16.0,,14 / 16,,4862,2021-05-02 18:36:23:556
0.179571,-5.693585,7.802942,0.117123,-5.775957,7.924327,0.095419,0.002213,-0.003565,6.54,1.26,-59.64,192.8666,36.1503,-0.8462,55.813953,37.50029,219.6519,NaN,0.0,16.0,,14 / 16,,4872,2021-05-02 18:36:23:566
0.136474,-5.655277,7.848433,0.117123,-5.775957,7.924327,0.095419,0.002213,-0.003565,6.54,1.26,-59.64,192.8666,36.1503,-0.8462,55.813953,37.50029,219.6519,NaN,0.0,16.0,,14 / 16,,4883,2021-05-02 18:36:23:577
0.090982,-5.719922,7.776605,0.11717,-5.7684,7.929827,0.116188,0.011986,-0.011506,5.88,1.2,-59.46,192.8666,36.1503,-0.8462,55.813953,37.50029,219.6519,NaN,0.0,16.0,,14 / 16,,4892,2021-05-02 18:36:23:586
0.090982,-5.719922,7.776605,0.11717,-5.7684,7.929827,0.125351,0.016873,-0.015171,5.88,1.2,-59.46,192.8666,36.1503,-0.8462,55.813953,37.50029,219.6519,NaN,0.0,16.0,,14 / 16,,4902,2021-05-02 18:36:23:596
0.10056,-5.736682,7.862799,0.116443,-5.749247,7.943734,0.127795,0.010154,-0.023724,6.12,1.2,-58.74,192.8666,36.1503,-0.8462,55.813953,37.50029,219.6519,NaN,0.0,16.0,,14 / 16,,4913,2021-05-02 18:36:23:607
0.079011,-5.779779,7.814913,0.116443,-5.749247,7.943734,0.134514,0.016873,-0.030443,6.66,1.56,-58.98,193.441,35.8921,-0.8398,55.813953,37.50029,219.6519,NaN,0.0,16.0,,14 / 16,,4922,2021-05-02 18:36:23:616
0.110137,-5.736682,7.757451,0.116893,-5.728771,7.958506,0.147953,0.02848,-0.036552,6.66,1.56,-58.98,193.441,35.8921,-0.8398,55.813953,37.50029,219.6519,NaN,0.0,16.0,,14 / 16,,4933,2021-05-02 18:36:23:627
0.167599,-5.626546,7.829279,0.116638,-5.705503,7.975207,0.169945,0.02848,-0.035941,6.78,1.8,-58.86,193.441,35.8921,-0.8398,55.813953,37.50029,219.6519,NaN,0.0,16.0,,14 / 16,,4942,2021-05-02 18:36:23:636
0.167599,-5.626546,7.829279,0.116638,-5.705503,7.975207,0.188271,0.015652,-0.025556,6.78,1.8,-58.86,193.441,35.8921,-0.8398,55.813953,37.50029,219.6519,NaN,0.0,16.0,,14 / 16,,4952,2021-05-02 18:36:23:646
0.107742,-5.672037,7.872376,0.116765,-5.691253,7.985383,0.20904,0.013208,-0.022502,6.78,1.56,-58.86,193.441,35.8921,-0.8398,55.813953,37.50029,219.6519,NaN,0.0,16.0,,14 / 16,,4962,2021-05-02 18:36:23:656
0.119714,-5.609786,7.877164,0.11694,-5.65941,8.007982,0.226755,0.012597,-0.019448,6.72,0.96,-58.56,193.2597,35.4749,-0.8377,55.813953,37.50029,219.6519,NaN,0.0,16.0,,14 / 16,,4973,2021-05-02 18:36:23:667
0.114925,-5.590631,7.913079,0.11694,-5.65941,8.007982,0.226755,0.012597,-0.019448,6.72,0.96,-58.56,193.2597,35.4749,-0.8377,55.813953,37.50029,219.6519,NaN,0.0,16.0,,14 / 16,,4982,2021-05-02 18:36:23:676
0.114925,-5.590631,7.913079,0.11694,-5.65941,8.007982,0.253633,0.019317,-0.020058,6.6,0.3,-59.34,193.2597,35.4749,-0.8377,55.813953,37.50029,219.6519,NaN,0.0,16.0,,14 / 16,,4992,2021-05-02 18:36:23:686
0.0838,-5.695979,7.800547,0.116587,-5.621043,8.034962,0.271348,0.021149,-0.040217,6.6,0.3,-59.34,193.2597,35.4749,-0.8377,55.813953,37.50029,219.6519,NaN,0.0,16.0,,14 / 16,,5002,2021-05-02 18:36:23:696
0.05028,-5.712739,7.843644,0.116587,-5.621043,8.034962,0.280511,0.033367,-0.05671,6.6,0.3,-59.34,193.2597,35.4749,-0.8377,55.813953,37.50029,219.6519,NaN,0.0,16.0,,14 / 16,,5013,2021-05-02 18:36:23:707
0.134079,-5.600209,7.898713,0.117249,-5.576998,8.065587,0.292118,0.038864,-0.05671,7.32,-0.3,-59.7,192.9116,34.9728,-0.8313,55.813953,37.50029,219.6519,NaN,0.0,16.0,,14 / 16,,5023,2021-05-02 18:36:23:717
0.165205,-5.444581,7.994484,0.11707,-5.528663,8.098797,0.31533,0.029701,-0.046326,7.14,-1.32,-59.52,192.9116,34.9728,-0.8313,55.813953,37.50029,219.6519,NaN,0.0,16.0,,14 / 16,,5032,2021-05-02 18:36:23:726
0.165205,-5.444581,7.994484,0.11707,-5.528663,8.098797,0.32938,0.027258,-0.040217,7.14,-1.32,-59.52,192.9116,34.9728,-0.8313,55.813953,37.50029,219.6519,NaN,0.0,16.0,,14 / 16,,5042,2021-05-02 18:36:23:736
0.172388,-5.303318,8.111803,0.11707,-5.528663,8.098797,0.34343,0.024815,-0.036552,7.14,-1.32,-59.52,192.9116,34.9728,-0.8313,55.813953,37.50029,219.6519,NaN,0.0,16.0,,14 / 16,,5052,2021-05-02 18:36:23:746
0.167599,-5.31529,8.118986,0.1165,-5.475275,8.134993,0.353204,0.018706,-0.029832,6.84,-1.8,-59.64,192.5226,34.3167,-0.8282,55.813953,37.50029,219.6519,NaN,0.0,16.0,,14 / 16,,5063,2021-05-02 18:36:23:757
0.167599,-5.31529,8.118986,0.1165,-5.475275,8.134993,0.35015,0.010765,-0.020669,6.84,-1.8,-59.64,192.5226,34.3167,-0.8282,55.813953,37.50029,219.6519,NaN,0.0,16.0,,14 / 16,,5072,2021-05-02 18:36:23:766
0.071828,-5.446975,8.135746,0.116898,-5.418158,8.173144,0.336711,0.010154,-0.018226,6.48,-1.8,-58.98,192.5226,34.3167,-0.8282,55.813953,37.50029,219.6519,NaN,0.0,16.0,,14 / 16,,5082,2021-05-02 18:36:23:776
0.011971,-5.492466,8.102227,0.117379,-5.38985,8.191832,0.315941,0.010154,-0.017004,7.08,-2.04,-59.1,192.5226,34.3167,-0.8282,55.813953,37.50029,219.6519,NaN,0.0,16.0,,14 / 16,,5092,2021-05-02 18:36:23:786
0.0838,-5.518803,8.059129,0.117379,-5.38985,8.191832,0.292728,0.006489,-0.011506,7.08,-2.04,-59.1,192.5226,34.3167,-0.8282,55.813953,37.50029,219.6519,NaN,0.0,16.0,,14 / 16,,5102,2021-05-02 18:36:23:796
0.160416,-5.415849,8.078284,0.117728,-5.338177,8.225591,0.287231,0.002823,-0.012728,7.2,-2.52,-58.5,192.8504,33.3404,-0.8209,55.813953,37.50029,219.6519,NaN,0.0,16.0,,14 / 16,,5112,2021-05-02 18:36:23:806
0.136474,-5.262616,8.166871,0.118179,-5.290668,8.256223,0.292118,0.007099,-0.010895,6.9,-1.92,-58.74,192.8504,33.3404,-0.8209,55.813953,37.50029,219.6519,NaN,0.0,16.0,,14 / 16,,5122,2021-05-02 18:36:23:816
0.136474,-5.262616,8.166871,0.118179,-5.290668,8.256223,0.292118,0.007099,-0.010895,6.9,-1.92,-58.74,192.8504,33.3404,-0.8209,55.813953,37.50029,219.6519,NaN,0.0,16.0,,14 / 16,,5132,2021-05-02 18:36:23:826
0.107742,-5.219519,8.241094,0.118165,-5.266739,8.271508,0.279289,0.007099,-0.019448,6.54,-2.4,-59.46,192.8504,33.3404,-0.8209,55.813953,37.50029,219.6519,NaN,0.0,16.0,,14 / 16,,5142,2021-05-02 18:36:23:836
0.10056,-5.159662,8.279403,0.117996,-5.220372,8.300853,0.273792,0.01443,-0.021891,6.36,-2.94,-59.22,191.3238,32.4836,-0.8185,55.813953,37.50029,219.6519,NaN,0.0,16.0,,14 / 16,,5153,2021-05-02 18:36:23:847
0.095771,-5.138114,8.281797,0.117996,-5.220372,8.300853,0.26585,0.016262,-0.029221,6.36,-2.94,-59.22,191.3238,32.4836,-0.8185,55.813953,37.50029,219.6519,NaN,0.0,16.0,,14 / 16,,5162,2021-05-02 18:36:23:856
0.098165,-5.059102,8.312923,0.117817,-5.176743,8.328135,0.255466,0.019317,-0.031665,6.9,-3.0,-59.4,191.3238,32.4836,-0.8185,55.813953,37.50029,219.6519,NaN,0.0,16.0,,14 / 16,,5172,2021-05-02 18:36:23:866
0.098165,-5.059102,8.312923,0.117817,-5.176743,8.328135,0.253022,0.025425,-0.039606,6.9,-3.0,-59.4,191.3238,32.4836,-0.8185,55.813953,37.50029,219.6519,NaN,0.0,16.0,,14 / 16,,5182,2021-05-02 18:36:23:876
0.134079,-5.044737,8.298557,0.117817,-5.176743,8.328135,0.252411,0.024204,-0.038384,6.9,-3.0,-59.4,191.3238,32.4836,-0.8185,55.813953,37.50029,219.6519,NaN,0.0,16.0,,14 / 16,,5192,2021-05-02 18:36:23:886
0.141262,-5.047131,8.300951,0.116069,-5.161288,8.337746,0.249968,0.016262,-0.034719,5.94,-3.36,-60.0,191.3318,31.8624,-0.8105,55.813953,37.50029,219.6519,NaN,0.0,16.0,,14 / 16,,5202,2021-05-02 18:36:23:896
0.146051,-5.042342,8.300951,0.116617,-5.119511,8.363454,0.255466,0.016873,-0.033497,5.88,-3.66,-59.58,191.3318,31.8624,-0.8105,55.813953,37.50029,219.6519,NaN,0.0,16.0,,14 / 16,,5212,2021-05-02 18:36:23:906
0.124502,-5.121353,8.293768,0.116617,-5.119511,8.363454,0.262185,0.011986,-0.032887,5.88,-3.66,-59.58,191.3318,31.8624,-0.8105,55.813953,37.50029,219.6519,NaN,0.0,16.0,,14 / 16,,5223,2021-05-02 18:36:23:917
0.124502,-5.121353,8.293768,0.116617,-5.119511,8.363454,0.269516,0.016873,-0.031054,5.88,-3.66,-59.58,191.3318,31.8624,-0.8105,55.813953,37.50029,219.6519,NaN,0.0,16.0,,14 / 16,,5232,2021-05-02 18:36:23:926
0.10056,-5.135719,8.253065,0.117363,-5.075817,8.390032,0.264018,0.01443,-0.027389,7.14,-3.84,-58.62,192.8978,31.4695,-0.7989,55.813953,37.50029,219.6519,NaN,0.0,16.0,,14 / 16,,5242,2021-05-02 18:36:23:936
0.0838,-5.05192,8.327288,0.117363,-5.075817,8.390032,0.259131,0.016262,-0.037163,7.14,-3.84,-58.62,192.8978,31.4695,-0.7989,55.813953,37.50029,219.6519,NaN,0.0,16.0,,14 / 16,,5252,2021-05-02 18:36:23:946
0.0838,-5.05192,8.327288,0.117707,-5.031775,8.416516,0.259131,0.017484,-0.032276,7.8,-3.96,-58.44,192.8978,31.4695,-0.7989,55.813953,37.50029,219.6519,NaN,0.0,16.0,,14 / 16,,5262,2021-05-02 18:36:23:956
0.110137,-4.941783,8.370385,0.116924,-5.014941,8.426569,0.259131,0.018706,-0.034108,7.08,-4.5,-58.98,193.0888,30.8704,-0.8012,55.813953,37.50029,219.6519,NaN,0.0,16.0,,14 / 16,,5272,2021-05-02 18:36:23:966
0.143657,-4.905869,8.408693,0.116924,-5.014941,8.426569,0.254855,0.018706,-0.031054,7.08,-4.5,-58.98,193.0888,30.8704,-0.8012,55.813953,37.50029,219.6519,NaN,0.0,16.0,,14 / 16,,5282,2021-05-02 18:36:23:976
0.150839,-4.893897,8.41827,0.11703,-4.991412,8.440525,0.253022,0.018095,-0.028,6.84,-5.22,-59.58,193.0888,30.8704,-0.8012,55.813953,37.50029,219.6519,NaN,0.0,16.0,,14 / 16,,5292,2021-05-02 18:36:23:986
0.124502,-4.869955,8.406299,0.11703,-4.991412,8.440525,0.2518,0.016873,-0.027389,6.84,-5.22,-59.58,193.0888,30.8704,-0.8012,55.813953,37.50029,219.6519,NaN,0.0,16.0,,14 / 16,,5303,2021-05-02 18:36:23:997
0.124502,-4.869955,8.406299,0.11703,-4.991412,8.440525,0.2518,0.016873,-0.027389,6.84,-5.22,-59.58,193.0888,30.8704,-0.8012,55.813953,37.50029,219.6519,NaN,0.0,16.0,,14 / 16,,5312,2021-05-02 18:36:24:006
0.124502,-4.83404,8.367991,0.117842,-4.963794,8.456786,0.262185,0.012597,-0.026778,7.44,-5.28,-59.52,192.6856,30.5961,-0.7944,55.813953,37.50029,219.6519,NaN,0.0,16.0,,14 / 16,,5322,2021-05-02 18:36:24:016
0.138868,-4.836435,8.387145,0.117842,-4.963794,8.456786,0.286009,0.006489,-0.024334,7.44,-5.28,-59.52,192.6856,30.5961,-0.7944,55.813953,37.50029,219.6519,NaN,0.0,16.0,,14 / 16,,5332,2021-05-02 18:36:24:026
0.129291,-4.764607,8.430242,0.11933,-4.931214,8.475805,0.300059,0.006489,-0.018837,6.96,-5.1,-58.62,192.6856,30.5961,-0.7944,55.813953,37.50029,219.6519,NaN,0.0,16.0,,14 / 16,,5342,2021-05-02 18:36:24:036
0.117319,-4.762213,8.475733,0.121323,-4.892997,8.497895,0.311054,0.006489,-0.012117,6.66,-5.4,-58.8,192.9918,30.1883,-0.8066,55.813953,37.50029,219.6519,NaN,0.0,16.0,,14 / 16,,5353,2021-05-02 18:36:24:047
0.117319,-4.762213,8.475733,0.121323,-4.892997,8.497895,0.311054,0.007099,-0.013339,6.66,-5.4,-58.8,192.9918,30.1883,-0.8066,55.813953,37.50029,219.6519,NaN,0.0,16.0,,14 / 16,,5362,2021-05-02 18:36:24:056
0.110137,-4.690384,8.499676,0.121323,-4.892997,8.497895,0.311665,0.006489,-0.013339,6.66,-5.4,-58.8,192.9918,30.1883,-0.8066,55.813953,37.50029,219.6519,NaN,0.0,16.0,,14 / 16,,5372,2021-05-02 18:36:24:066
0.122108,-4.664047,8.521224,0.122653,-4.849869,8.522563,0.31472,0.007099,-0.016393,6.78,-6.0,-59.1,192.9918,30.1883,-0.8066,55.813953,37.50029,219.6519,NaN,0.0,16.0,,14 / 16,,5382,2021-05-02 18:36:24:076
0.105348,-4.628133,8.561927,0.122653,-4.849869,8.522563,0.31533,0.011376,-0.020058,6.78,-6.0,-59.1,192.9918,30.1883,-0.8066,55.813953,37.50029,219.6519,NaN,0.0,16.0,,14 / 16,,5392,2021-05-02 18:36:24:086
0.124502,-4.616162,8.583475,0.122257,-4.803666,8.548697,0.315941,0.011376,-0.019448,6.84,-6.72,-58.62,192.5659,29.64,-0.8245,55.813953,37.50029,219.6519,NaN,0.0,16.0,,14 / 16,,5403,2021-05-02 18:36:24:097
0.124502,-4.616162,8.583475,0.122087,-4.755101,8.575808,0.317774,0.008932,-0.015171,6.78,-7.56,-58.38,192.5659,29.64,-0.8245,55.813953,37.50029,219.6519,NaN,0.0,16.0,,14 / 16,,5412,2021-05-02 18:36:24:106
0.136474,-4.582642,8.583475,0.122087,-4.755101,8.575808,0.32205,0.004045,-0.007841,6.78,-7.56,-58.38,192.5659,29.64,-0.8245,55.813953,37.50029,219.6519,NaN,0.0,16.0,,14 / 16,,5422,2021-05-02 18:36:24:116
0.129291,-4.580248,8.559532,0.122087,-4.755101,8.575808,0.329991,0.002823,-5.11E-4,6.78,-7.56,-58.38,192.5659,29.64,-0.8245,55.813953,37.50029,219.6519,NaN,0.0,16.0,,14 / 16,,5432,2021-05-02 18:36:24:126
0.150839,-4.527573,8.597841,0.122414,-4.705154,8.603307,0.334267,-0.005118,0.008652,6.54,-7.92,-57.66,192.673,28.6718,-0.8152,55.813953,37.50029,219.6519,NaN,0.0,16.0,,14 / 16,,5442,2021-05-02 18:36:24:136
0.114925,-4.453351,8.674458,0.122414,-4.705154,8.603307,0.32938,-0.008172,0.017204,6.54,-7.92,-57.66,192.673,28.6718,-0.8152,55.813953,37.50029,219.6519,NaN,0.0,16.0,,14 / 16,,5452,2021-05-02 18:36:24:146
0.114925,-4.453351,8.674458,0.124138,-4.654165,8.630975,0.312887,-0.002674,0.002544,7.26,-7.74,-57.42,192.673,28.6718,-0.8152,55.813953,37.50029,219.6519,NaN,0.0,16.0,,14 / 16,,5462,2021-05-02 18:36:24:156
0.059857,-4.381523,8.760652,0.124138,-4.654165,8.630975,0.312887,-0.002674,0.002544,7.26,-7.74,-57.42,192.673,28.6718,-0.8152,55.813953,37.50029,219.6519,NaN,0.0,16.0,,14 / 16,,5472,2021-05-02 18:36:24:166
0.093377,-4.386311,8.710372,0.123997,-4.601597,8.659117,0.296394,0.006489,-0.009063,7.62,-7.98,-57.78,194.4668,27.9845,-0.8204,55.813953,37.50029,219.6519,NaN,0.0,16.0,,14 / 16,,5482,2021-05-02 18:36:24:176
0.095771,-4.35758,8.681641,0.123997,-4.601597,8.659117,0.291507,0.010765,-0.017615,7.62,-7.98,-57.78,194.4668,27.9845,-0.8204,55.813953,37.50029,219.6519,NaN,0.0,16.0,,14 / 16,,5492,2021-05-02 18:36:24:186
0.095771,-4.35758,8.681641,0.121601,-4.550553,8.686085,0.29395,0.011376,-0.023724,7.14,-8.46,-58.14,194.4668,27.9845,-0.8204,55.813953,37.50029,219.6519,NaN,0.0,16.0,,14 / 16,,5502,2021-05-02 18:36:24:196
0.079011,-4.302511,8.669669,0.118384,-4.497456,8.713739,0.308,0.017484,-0.032887,6.6,-8.4,-58.32,192.9564,27.6473,-0.8021,55.813953,37.50029,219.6519,NaN,0.0,16.0,,14 / 16,,5513,2021-05-02 18:36:24:207
0.110137,-4.237866,8.660092,0.118384,-4.497456,8.713739,0.336711,0.022371,-0.04205,6.6,-8.4,-58.32,192.9564,27.6473,-0.8021,55.813953,37.50029,219.6519,NaN,0.0,16.0,,14 / 16,,5522,2021-05-02 18:36:24:216
0.160416,-4.261809,8.717555,0.115914,-4.43917,8.74361,0.350761,0.017484,-0.034719,6.9,-8.76,-58.2,192.9564,27.6473,-0.8021,55.813953,37.50029,219.6519,NaN,0.0,16.0,,14 / 16,,5532,2021-05-02 18:36:24:226
0.160416,-4.245049,8.717555,0.115914,-4.43917,8.74361,0.358091,0.009543,-0.021891,6.9,-8.76,-58.2,192.9564,27.6473,-0.8021,55.813953,37.50029,219.6519,NaN,0.0,16.0,,14 / 16,,5542,2021-05-02 18:36:24:236
0.160416,-4.245049,8.717555,0.115914,-4.43917,8.74361,0.358091,0.009543,-0.021891,6.9,-8.76,-58.2,192.9564,27.6473,-0.8021,55.813953,37.50029,219.6519,NaN,0.0,16.0,,14 / 16,,5552,2021-05-02 18:36:24:246
0.153234,-4.187587,8.739103,0.117398,-4.379557,8.773601,0.377028,0.003434,-0.014561,7.8,-8.88,-57.72,194.3678,26.9151,-0.7595,55.813953,37.50029,219.6519,NaN,0.0,16.0,,14 / 16,,5562,2021-05-02 18:36:24:256
0.158022,-4.142095,8.834874,0.119937,-4.318267,8.803893,0.37886,0.004656,-0.001732,7.14,-9.54,-57.96,194.3678,26.9151,-0.7595,55.813953,37.50029,219.6519,NaN,0.0,16.0,,14 / 16,,5572,2021-05-02 18:36:24:266
0.117319,-4.063084,8.877971,0.119937,-4.318267,8.803893,0.369087,-0.001453,0.005598,7.14,-9.54,-57.96,194.3678,26.9151,-0.7595,55.813953,37.50029,219.6519,NaN,0.0,16.0,,14 / 16,,5582,2021-05-02 18:36:24:276
0.117319,-4.063084,8.877971,0.12261,-4.25775,8.833283,0.355037,-0.003285,0.010485,6.96,-10.02,-58.08,192.7323,26.1256,-0.7805,55.813953,37.50029,219.6519,NaN,0.0,16.0,,14 / 16,,5593,2021-05-02 18:36:24:287
0.126897,-4.015199,8.858817,0.12261,-4.25775,8.833283,0.347095,-0.005118,0.011707,6.96,-10.02,-58.08,192.7323,26.1256,-0.7805,55.813953,37.50029,219.6519,NaN,0.0,16.0,,14 / 16,,5603,2021-05-02 18:36:24:297
0.148445,-3.974496,8.839663,0.12261,-4.25775,8.833283,0.354426,-0.00695,0.015983,6.96,-10.02,-58.08,192.7323,26.1256,-0.7805,55.813953,37.50029,219.6519,NaN,0.0,16.0,,14 / 16,,5613,2021-05-02 18:36:24:307
0.148445,-3.974496,8.839663,0.123693,-4.198899,8.861394,0.3642,-0.008783,0.022091,7.32,-10.02,-57.18,192.7323,26.1256,-0.7805,55.813953,37.50029,219.6519,NaN,0.0,16.0,,14 / 16,,5622,2021-05-02 18:36:24:316
0.136474,-3.952947,8.849239,0.125531,-4.138076,8.889935,0.37886,-0.014892,0.030643,6.9,-10.68,-57.0,192.8026,25.3514,-0.7997,55.813953,37.50029,219.6519,NaN,0.0,16.0,,14 / 16,,5633,2021-05-02 18:36:24:327
0.141262,-3.931399,8.844451,0.125531,-4.138076,8.889935,0.395354,-0.019168,0.037974,6.9,-10.68,-57.0,192.8026,25.3514,-0.7997,55.813953,37.50029,219.6519,NaN,0.0,16.0,,14 / 16,,5642,2021-05-02 18:36:24:336
0.129291,-3.866754,8.897125,0.125531,-4.138076,8.889935,0.404517,-0.019779,0.044693,6.9,-10.68,-57.0,192.8026,25.3514,-0.7997,55.813953,37.50029,219.6519,NaN,0.0,16.0,,14 / 16,,5652,2021-05-02 18:36:24:346
0.079011,-3.785348,8.947405,0.12738,-4.073241,8.9198,0.415512,-0.017335,0.040417,7.08,-11.22,-57.18,192.8026,25.3514,-0.7997,55.813953,37.50029,219.6519,NaN,0.0,16.0,,14 / 16,,5662,2021-05-02 18:36:24:356
0.079011,-3.785348,8.947405,0.12738,-4.073241,8.9198,0.418567,-0.010616,0.026978,7.08,-11.22,-57.18,192.8026,25.3514,-0.7997,55.813953,37.50029,219.6519,NaN,0.0,16.0,,14 / 16,,5672,2021-05-02 18:36:24:366
0.079011,-3.7638,9.012051,0.12722,-3.999639,8.953048,0.405128,-0.00634,0.01415,7.14,-11.28,-58.14,192.9453,24.5417,-0.8182,55.813953,37.50029,219.6519,NaN,0.0,16.0,,14 / 16,,5682,2021-05-02 18:36:24:376
0.112531,-3.684789,9.019233,0.12722,-3.999639,8.953048,0.405128,-0.00634,0.01415,7.14,-11.28,-58.14,192.9453,24.5417,-0.8182,55.813953,37.50029,219.6519,NaN,0.0,16.0,,14 / 16,,5692,2021-05-02 18:36:24:386
0.095771,-3.629721,9.064724,0.127163,-3.925893,8.98563,0.377639,0.002213,7.11E-4,6.66,-11.94,-57.9,192.9453,24.5417,-0.8182,55.813953,37.50029,219.6519,NaN,0.0,16.0,,14 / 16,,5703,2021-05-02 18:36:24:397
0.095771,-3.629721,9.064724,0.123576,-3.858823,9.014687,0.37153,0.003434,-0.006619,6.18,-13.02,-56.88,191.0984,23.5988,-0.8108,55.813953,37.50029,219.6519,NaN,0.0,16.0,,14 / 16,,5712,2021-05-02 18:36:24:406
0.105348,-3.622538,9.038387,0.123576,-3.858823,9.014687,0.379471,0.002213,-0.006619,6.18,-13.02,-56.88,191.0984,23.5988,-0.8108,55.813953,37.50029,219.6519,NaN,0.0,16.0,,14 / 16,,5722,2021-05-02 18:36:24:416
0.124502,-3.548315,9.021627,0.123576,-3.858823,9.014687,0.379471,0.002213,-0.006619,6.18,-13.02,-56.88,191.0984,23.5988,-0.8108,55.813953,37.50029,219.6519,NaN,0.0,16.0,,14 / 16,,5733,2021-05-02 18:36:24:427
0.105348,-3.531555,9.021627,0.120598,-3.792174,9.042966,0.39291,0.004045,-0.008452,6.72,-13.92,-56.34,191.0984,23.5988,-0.8108,55.813953,37.50029,219.6519,NaN,0.0,16.0,,14 / 16,,5742,2021-05-02 18:36:24:436
0.119714,-3.474093,9.021627,0.11875,-3.722933,9.071717,0.408793,0.003434,-0.006619,7.56,-13.86,-56.1,194.2164,22.749,-0.7641,55.813953,37.50029,219.6519,NaN,0.0,16.0,,14 / 16,,5752,2021-05-02 18:36:24:446
0.119714,-3.474093,9.021627,0.11875,-3.722933,9.071717,0.423454,9.91E-4,0.001933,7.56,-13.86,-56.1,194.2164,22.749,-0.7641,55.813953,37.50029,219.6519,NaN,0.0,16.0,,14 / 16,,5763,2021-05-02 18:36:24:457
0.143657,-3.41663,9.081485,0.117913,-3.649118,9.10167,0.430784,3.8E-4,0.004987,7.44,-13.98,-56.46,194.2164,22.749,-0.7641,55.813953,37.50029,219.6519,NaN,0.0,16.0,,14 / 16,,5773,2021-05-02 18:36:24:467
0.160416,-3.373533,9.134158,0.117913,-3.649118,9.10167,0.432006,-0.003285,0.012928,7.44,-13.98,-56.46,194.2164,22.749,-0.7641,55.813953,37.50029,219.6519,NaN,0.0,16.0,,14 / 16,,5782,2021-05-02 18:36:24:476
0.134079,-3.311282,9.150918,0.117913,-3.649118,9.10167,0.427119,-0.005729,0.017815,7.44,-13.98,-56.46,194.2164,22.749,-0.7641,55.813953,37.50029,219.6519,NaN,0.0,16.0,,14 / 16,,5792,2021-05-02 18:36:24:486
0.134079,-3.311282,9.150918,0.118609,-3.573444,9.131638,0.426508,-0.004507,0.017815,7.02,-15.3,-56.22,192.5415,21.8456,-0.7422,55.813953,37.50029,219.6519,NaN,0.0,16.0,,14 / 16,,5802,2021-05-02 18:36:24:496
0.071828,-3.268185,9.158101,0.118698,-3.497336,9.161054,0.425897,3.8E-4,0.004987,7.44,-15.9,-56.28,192.5415,21.8456,-0.7422,55.813953,37.50029,219.6519,NaN,0.0,16.0,,14 / 16,,5812,2021-05-02 18:36:24:506
0.079011,-3.184385,9.167678,0.118698,-3.497336,9.161054,0.428341,0.004045,-0.001122,7.44,-15.9,-56.28,192.5415,21.8456,-0.7422,55.813953,37.50029,219.6519,NaN,0.0,16.0,,14 / 16,,5823,2021-05-02 18:36:24:517
0.088588,-3.131711,9.196409,0.117018,-3.419586,9.190381,0.434449,0.00771,-0.00723,7.62,-15.66,-55.86,194.0435,20.8933,-0.7423,55.813953,37.50029,219.6519,NaN,0.0,16.0,,14 / 16,,5832,2021-05-02 18:36:24:526
