ACCELEROMETER X (m/s²),ACCELEROMETER Y (m/s²),ACCELEROMETER Z (m/s²),GYROSCOPE X (rad/s),GYROSCOPE Y (rad/s),GYROSCOPE Z (rad/s),MAGNETIC FIELD X (μT),MAGNETIC FIELD Y (μT),MAGNETIC FIELD Z (μT),ORIENTATION Z (azimuth °),ORIENTATION X (pitch °),ORIENTATION Y (roll °),Time since start in ms 
0.304073,-0.253793,9.953,-0.014399,-0.002805,-0.005172,6.84,9.6,-12,320.0798,0.6876,-1.9878,24
0.284919,-0.093377,9.783007,0.025918,0.000249,0.003381,6.84,9.6,-12,320.0798,0.6876,-1.9878,33
0.284919,-0.093377,9.783007,0.042411,0.000249,0.000326,6.12,9.42,-11.88,324.078,0.7166,-1.9891,43
0.287313,0.045491,9.613013,0.049131,0.008801,0.005213,6.12,9.42,-11.88,324.078,0.7166,-1.9891,53
0.33041,0.150839,9.536397,0.028361,0.006969,0.002159,6.24,9.24,-12.36,324.078,0.7166,-1.9891,63
0.407027,0.081405,9.414289,-0.007069,-0.004638,0.000326,6.24,9.24,-12.36,324.078,0.7166,-1.9891,73
0.423787,-0.05028,9.45978,-0.047997,-0.011968,-0.004561,6.9,9.96,-12.42,323.0791,0.6628,-1.9842,84
0.407027,-0.270553,9.80695,-0.066323,-0.010746,-0.003339,6.9,9.96,-12.42,323.0791,0.6628,-1.9842,94
0.407027,-0.270553,9.80695,-0.059603,-0.010135,-0.003339,7.44,8.94,-12.18,323.0791,0.6628,-1.9842,103
0.407027,-0.36393,10.175668,-0.024173,-0.013801,-0.001506,7.44,8.94,-12.18,323.0791,0.6628,-1.9842,113
0.328016,-0.399844,10.115811,0.015533,0.006969,0.001548,7.14,8.76,-12.18,320.1055,0.6447,-1.9911,123
0.275342,-0.225062,9.744699,0.047909,0.027127,0.005824,7.14,8.76,-12.18,320.1055,0.6447,-1.9911,133
0.208302,-0.119714,9.526819,0.060126,0.025295,0.00277,6.06,9.48,-11.46,320.1055,0.6447,-1.9911,143
0.208302,-0.119714,9.526819,0.046076,0.006969,0.004602,6.06,9.48,-11.46,320.1055,0.6447,-1.9911,153
0.222668,0.028731,9.663293,0.016755,-0.010135,0.003381,6.12,9.24,-11.16,324.2784,0.6859,-1.9935,163
0.311256,0.026337,9.620196,0.016755,-0.010135,0.003381,6.12,9.24,-11.16,324.2784,0.6859,-1.9935,173
0.423787,-0.021548,9.581888,-0.019897,-0.018688,0.002159,7.14,9.3,-11.46,324.2784,0.6859,-1.9935,183
0.423787,-0.021548,9.581888,-0.044332,-0.021131,0.000326,7.14,9.3,-11.46,324.2784,0.6859,-1.9935,193
0.466884,-0.098165,9.727939,-0.033947,-0.004027,-0.002117,7.5,9.66,-11.82,319.5466,0.646,-1.9984,203
0.459701,-0.179571,9.893144,-0.005236,0.006969,0.000937,7.5,9.66,-11.82,319.5466,0.646,-1.9984,213
0.316044,-0.184359,9.893144,0.015533,0.016743,-0.002117,7.26,9.54,-12.12,319.5466,0.646,-1.9984,223
0.205908,-0.138868,9.749487,0.030194,0.02163,-0.001506,7.26,9.54,-12.12,319.5466,0.646,-1.9984,234
0.205908,-0.138868,9.749487,0.024696,0.013077,-0.001506,6.36,9.24,-12.42,324.0944,0.6768,-1.9994,243
0.189148,-0.110137,9.62259,-0.000349,-0.013801,0.005213,6.36,9.24,-12.42,324.0944,0.6768,-1.9994,253
0.28013,-0.105348,9.591465,-0.022951,-0.015633,0.00277,6.54,9.54,-12.9,324.0944,0.6768,-1.9994,263
0.373507,-0.122108,9.703996,-0.02906,-0.008914,-0.000285,6.54,9.54,-12.9,324.0944,0.6768,-1.9994,273
0.38069,-0.119714,9.828498,-0.024173,-0.012579,-0.001506,7.02,9.48,-12.84,319.9613,0.6345,-1.9718,284
0.390267,-0.155628,9.878778,-0.00768,-0.009525,0.005213,7.02,9.48,-12.84,319.9613,0.6345,-1.9718,294
0.390267,-0.155628,9.878778,0.01309,0.00819,-0.000285,6.72,9.48,-12.42,319.9613,0.6345,-1.9718,303
0.375901,-0.165205,9.73991,0.01309,0.00819,-0.000285,6.72,9.48,-12.42,319.9613,0.6345,-1.9718,313
0.323227,-0.110137,9.665688,0.009424,0.006358,-0.001506,6.96,9.12,-11.88,320.076,0.68,-1.9992,323
0.272947,-0.153234,9.684841,0.009424,0.006358,-0.001506,6.96,9.12,-11.88,320.076,0.68,-1.9992,333
0.272947,-0.153234,9.684841,-0.002793,-0.007692,-0.005172,6.6,8.82,-11.88,320.076,0.68,-1.9992,343
0.241822,-0.136474,9.742304,-0.015621,-0.008914,-0.004561,6.6,8.82,-11.88,320.076,0.68,-1.9992,353
0.258582,-0.081405,9.802161,-0.015621,-0.010746,-0.000896,6.48,9.3,-12.36,324.0882,0.6904,-1.9966,363
0.294496,-0.193936,9.845258,-0.006458,-0.013801,-0.000285,6.48,9.3,-12.36,324.0882,0.6904,-1.9966,373
0.371113,-0.342381,9.632168,0.005759,-0.010135,-0.000896,6.66,9.24,-11.58,324.0882,0.6904,-1.9966,384
0.440547,-0.237033,9.615408,0.005759,0.002693,0.003381,6.66,9.24,-11.58,324.0882,0.6904,-1.9966,393
0.440547,-0.237033,9.615408,0.005148,0.005136,0.000937,6.96,9.3,-11.1,320.237,0.7404,-1.9616,403
0.452518,-0.086194,10.079897,0.019809,0.00758,0.007046,6.96,9.3,-11.1,320.237,0.7404,-1.9616,413
0.328016,0.090982,10.122993,0.032026,0.00758,0.013765,7.26,9.66,-11.7,320.237,0.7404,-1.9616,423
0.373507,0.337593,9.371192,0.032026,0.00758,0.013765,7.26,9.66,-11.7,320.237,0.7404,-1.9616,433
0.26337,0.114925,8.779806,0.021642,0.009412,0.011933,6.84,9.9,-12.48,322.9856,0.8279,-1.9812,443
0.045491,-0.184359,9.431048,-0.018675,0.035679,0.011322,6.84,9.9,-12.48,322.9856,0.8279,-1.9812,453
0.045491,-0.184359,9.431048,-0.05716,0.02896,0.010711,6.6,9.96,-12.36,322.9856,0.8279,-1.9812,463
0.177176,-0.545895,10.374393,-0.073042,-0.043122,0.006435,6.6,9.96,-12.36,322.9856,0.8279,-1.9812,474
0.462095,-0.615329,10.702409,-0.054106,-0.074887,-0.002728,6.24,9.36,-11.7,324.1665,0.609,-1.9661,483
0.481249,-0.476461,10.096657,0.002094,-0.017466,-0.000285,6.24,9.36,-11.7,324.1665,0.609,-1.9661,493
0.567443,-0.004789,9.486116,0.050352,0.005136,-0.002728,6.06,9.18,-11.94,324.1665,0.609,-1.9661,504
0.567443,-0.004789,9.486116,0.090059,-0.012579,-0.005782,6.06,9.18,-11.94,324.1665,0.609,-1.9661,513
0.555472,0.205908,9.42626,0.098611,0.02163,-0.002117,6.72,9.78,-12.36,323.0328,0.821,-1.9243,524
0.354353,0.268159,9.395134,0.057072,0.074164,0.007657,6.72,9.78,-12.36,323.0328,0.821,-1.9243,533
0.21309,0.069434,9.196409,-0.019897,0.054616,0.007046,7.02,9.42,-12.72,323.0328,0.821,-1.9243,545
0.141262,-0.210696,9.672871,-0.082205,-0.015633,0.009489,7.02,9.42,-12.72,323.0328,0.821,-1.9243,553
0.141262,-0.210696,9.672871,-0.11397,-0.048009,0.008878,7.32,9,-12.54,319.9918,0.7416,-1.8443,563
0.294496,-0.409421,10.206794,-0.096255,-0.037014,0.002159,7.32,9,-12.54,319.9918,0.7416,-1.8443,573
0.292102,-0.569837,10.223554,-0.016232,-0.003416,0.001548,7.74,9.36,-11.64,319.9918,0.7416,-1.8443,583
0.122108,-0.325621,9.852441,0.060126,0.001471,0.013154,7.74,9.36,-11.64,319.9918,0.7416,-1.8443,593
0.373507,-0.01676,9.732727,0.110828,-0.007692,0.016209,7.62,9.24,-11.7,316.4314,0.8633,-1.8933,604
0.31365,0.344776,9.787795,0.118158,0.024684,0.008267,7.62,9.24,-11.7,316.4314,0.8633,-1.8933,614
0.31365,0.344776,9.787795,0.118158,0.024684,0.008267,6.96,9.12,-12.54,316.4314,0.8633,-1.8933,623
0.306467,0.217879,9.000079,0.06257,0.066223,0.011933,6.96,9.12,-12.54,316.4314,0.8633,-1.8933,633
0.651243,-0.019154,8.978531,-0.094423,-0.085272,-0.01128,6.66,9.54,-13.08,323.0136,0.6891,-1.8482,643
0.651243,-0.019154,8.978531,-0.094423,-0.085272,-0.01128,6.66,9.54,-13.08,323.0136,0.6891,-1.8482,653
0.407027,-0.395055,10.173274,-0.139016,-0.027851,-0.007004,7.2,9.54,-12.9,323.0136,0.6891,-1.8482,663
0.337593,-0.430969,10.520444,-0.09992,0.025906,0.000937,7.2,9.54,-12.9,323.0136,0.6891,-1.8482,673
0.318439,-0.292102,10.149331,0.016144,-0.037014,-0.00395,7.38,9.18,-12.06,320.0769,0.7729,-1.9191,683
0.222668,-0.093377,9.601042,0.104719,0.025295,0.002159,7.38,9.18,-12.06,320.0769,0.7729,-1.9191,693
0.227456,0.150839,9.244295,0.118769,0.07844,0.002159,6.84,9.54,-11.94,320.0769,0.7729,-1.9191,703
0.227456,0.150839,9.244295,0.09067,0.02896,-0.003339,6.84,9.54,-11.94,320.0769,0.7729,-1.9191,713
0.268159,-0.004789,9.419077,0.002094,-0.054729,-0.007615,6.66,9.36,-11.94,320.0028,0.8712,-1.9306,723
0.36393,-0.172388,9.838076,-0.076708,-0.033959,-0.000285,6.66,9.36,-11.94,320.0028,0.8712,-1.9306,734
0.509981,-0.205908,9.79019,-0.109083,-0.005859,0.000937,6.78,8.7,-12.24,320.0028,0.8712,-1.9306,743
0.509981,-0.205908,9.79019,-0.096866,-0.003416,-0.000896,6.78,8.7,-12.24,320.0028,0.8712,-1.9306,753
0.351958,-0.205908,9.792584,-0.030282,-0.018688,0.00277,6.42,8.7,-12.84,323.9592,0.731,-1.9075,763
0.375901,-0.035914,9.955395,-0.030282,-0.018688,0.00277,6.42,8.7,-12.84,323.9592,0.731,-1.9075,773
0.277736,0.098165,9.811738,0.058294,0.012467,-0.001506,6.06,8.28,-12.78,323.9592,0.731,-1.9075,784
0.172388,-0.019154,9.431048,0.096778,0.047286,-0.002117,6.06,8.28,-12.78,323.9592,0.731,-1.9075,793
0.172388,-0.019154,9.431048,0.070511,0.024073,0.002159,5.76,8.34,-12.24,320.6799,0.8939,-1.932,803
0.249005,-0.177176,9.332883,-0.005847,-0.022964,-0.001506,5.76,8.34,-12.24,320.6799,0.8939,-1.932,814
0.368718,-0.282524,9.680053,-0.085871,-0.015633,0.00277,6.24,9.42,-12.6,320.6799,0.8939,-1.932,823
0.356747,-0.294496,10.039194,-0.100531,-0.005859,0.000937,6.24,9.42,-12.6,320.6799,0.8939,-1.932,833
0.356747,-0.294496,10.039194,-0.063269,-0.025407,0.000326,6.72,9.9,-13.14,322.9338,0.7569,-1.8933,844
0.38069,-0.251399,10.024829,0.0137,-0.026629,-0.000896,6.72,9.9,-13.14,322.9338,0.7569,-1.8933,854
0.349564,-0.062251,9.821315,0.069289,0.015521,-0.002728,6.24,9.42,-12.9,322.9338,0.7569,-1.8933,863
0.284919,-0.167599,9.57231,0.088837,0.047897,0.004602,6.24,9.42,-12.9,322.9338,0.7569,-1.8933,873
0.325621,-0.06704,9.512454,0.069289,0.020408,-0.002117,6.96,9.54,-12.54,322.7988,0.9111,-1.9389,883
0.325621,-0.06704,9.512454,0.023474,-0.002194,0.001548,6.96,9.54,-12.54,322.7988,0.9111,-1.9389,893
0.253793,-0.062251,9.672871,-0.040056,-0.004638,0.000937,7.5,9.9,-12.24,322.7988,0.9111,-1.9389,903
0.332804,0.028731,9.732727,-0.060214,-0.031516,0.001548,7.5,9.9,-12.24,322.7988,0.9111,-1.9389,913
0.454912,-0.043097,9.61062,-0.051662,-0.043733,-0.006393,7.08,9.36,-12.12,320.1017,0.7622,-1.8963,924
0.339987,0,9.658504,-0.024173,-0.002805,-0.00395,7.08,9.36,-12.12,320.1017,0.7622,-1.8963,933
0.339987,0,9.658504,0.007592,0.029571,-0.002728,6.42,8.82,-11.82,320.1017,0.7622,-1.8963,943
0.373507,-0.090982,9.668081,0.007592,0.029571,-0.002728,6.42,8.82,-11.82,320.1017,0.7622,-1.8963,953
0.385478,-0.184359,9.885961,0.036303,0.004525,-0.00395,5.58,9.06,-12.3,324.0531,0.8473,-1.9215,963
0.318439,-0.272947,9.912297,0.028972,0.003304,-0.006393,5.58,9.06,-12.3,324.0531,0.8473,-1.9215,974
0.308861,-0.225062,9.565128,0.006981,0.018575,-0.002728,6.06,9.42,-12.6,324.0531,0.8473,-1.9215,984
0.308861,-0.225062,9.565128,-0.022341,-0.018077,-0.002117,6.06,9.42,-12.6,324.0531,0.8473,-1.9215,993
0.318439,-0.169993,9.593859,-0.029671,-0.037014,-0.005782,7.08,9.36,-12.48,320.0524,0.813,-1.9165,1003
0.337593,-0.117319,9.847652,-0.018675,-0.004638,-0.000285,7.08,9.36,-12.48,320.0524,0.813,-1.9165,1013
0.308861,-0.071828,9.727939,0.029583,-0.002194,-0.003339,7.26,9.9,-12.6,320.0524,0.813,-1.9165,1030
0.361536,-0.131685,9.581888,0.029583,-0.002194,-0.003339,7.26,9.9,-12.6,320.0524,0.813,-1.9165,1033
0.361536,-0.131685,9.581888,0.021642,-0.007692,-0.004561,6.3,10.02,-12.78,326.7254,0.8535,-1.9402,1043
0.392661,-0.186753,9.727939,0.004538,0.005747,-0.010669,6.3,10.02,-12.78,326.7254,0.8535,-1.9402,1053
0.342381,-0.141262,9.857229,-0.00768,0.000249,-0.008226,5.76,9.48,-12.9,326.7254,0.8535,-1.9402,1063
0.38069,-0.05028,9.713573,-0.00768,-0.024796,-0.012502,5.76,9.48,-12.9,326.7254,0.8535,-1.9402,1074
0.442941,0.009577,9.579494,-0.004625,-0.015022,-0.01128,5.82,9.54,-13.5,326.7636,0.8154,-1.9234,1084
0.442941,0.009577,9.579494,-0.001571,0.019186,-0.014335,5.82,9.54,-13.5,326.7636,0.8154,-1.9234,1093
0.402238,-0.01676,9.541185,-0.001571,0.019186,-0.014335,6.48,9.42,-13.26,326.7636,0.8154,-1.9234,1103
0.320833,-0.129291,9.632168,0.000261,0.018575,-0.010669,6.48,9.42,-13.26,326.7636,0.8154,-1.9234,1113
0.244216,-0.251399,9.857229,-0.002182,0.00086,-0.005172,6.9,9.3,-12.3,320.0172,0.7865,-1.9844,1123
0.179571,-0.258582,9.955395,-0.009512,0.005136,-0.00395,6.9,9.3,-12.3,320.0172,0.7865,-1.9844,1133
0.179571,-0.258582,9.955395,-0.005847,0.00819,0.000937,6.42,9.3,-12.24,320.0172,0.7865,-1.9844,1143
0.201119,-0.198725,9.761458,0.002094,-0.007081,0.003381,6.06,9.3,-12.12,320.0172,0.7865,-1.9844,1153
0.289707,-0.038308,9.553157,0.015533,-0.016244,-0.000896,6.06,9.06,-12.66,323.882,0.7618,-1.9667,1163
0.368718,-0.011971,9.581888,0.015533,0.004525,-0.00395,6.06,9.06,-12.66,323.882,0.7618,-1.9667,1173
0.368718,-0.011971,9.581888,0.008814,0.000249,-0.002728,6.48,9.3,-12.66,323.882,0.7618,-1.9667,1184
0.404632,-0.093377,9.72315,-0.004625,-0.010746,-0.005172,6.48,9.3,-12.66,323.882,0.7618,-1.9667,1193
0.392661,-0.138868,9.792584,-0.012567,-0.004638,-0.004561,6.84,9.54,-12.18,323.0805,0.7514,-1.9147,1204
0.371113,-0.162811,9.725544,-0.021119,0.002693,-0.004561,6.84,9.54,-12.18,323.0805,0.7514,-1.9147,1214
0.371113,-0.162811,9.725544,-0.013788,-0.000362,-0.00395,6.42,8.76,-12.36,323.0805,0.7514,-1.9147,1223
0.349564,-0.122108,9.684841,0.002094,-0.00647,-0.007004,6.42,8.76,-12.36,323.0805,0.7514,-1.9147,1234
0.335198,-0.095771,9.754275,0.016755,0.006969,-0.006393,5.94,8.82,-12.42,324.1288,0.7154,-1.9316,1243
0.311256,-0.095771,9.720756,0.017977,0.00819,-0.001506,5.82,9.24,-12.36,324.1288,0.7154,-1.9316,1253
0.304073,-0.143656,9.641745,0.006981,0.002082,0.000326,5.82,9.24,-12.36,324.1288,0.7154,-1.9316,1264
0.332804,-0.220273,9.656111,-0.008291,-0.001583,0.003991,6.18,9.9,-12.96,324.1288,0.7154,-1.9316,1273
0.332804,-0.220273,9.656111,-0.014399,0.006969,0.00277,6.54,10.08,-12.48,323.0729,0.7075,-1.9583,1284
0.284919,-0.174782,9.787795,-0.01501,0.005747,0.000937,6.54,10.08,-12.48,323.0729,0.7075,-1.9583,1294
0.28013,-0.117319,9.826104,0.005148,-0.010135,-0.002117,6.36,9.96,-12.3,323.0729,0.7075,-1.9583,1303
0.308861,-0.047885,9.73991,0.019809,-0.013801,-0.007004,6.36,9.96,-12.3,323.0729,0.7075,-1.9583,1313
0.33041,-0.028731,9.598648,0.023474,-0.004638,-0.006393,6.24,9,-12.66,323.9129,0.7601,-1.9352,1323
0.361536,-0.052674,9.545974,0.01309,-0.000972,-0.005172,6.24,9,-12.66,323.9129,0.7601,-1.9352,1333
0.361536,-0.052674,9.545974,-0.004015,-0.003416,-0.002728,6.9,9.24,-12.66,323.9129,0.7601,-1.9352,1344
0.385478,-0.107742,9.632168,-0.004015,-0.003416,-0.002728,6.9,9.24,-12.66,323.9129,0.7601,-1.9352,1353
0.387873,-0.131685,9.727939,-0.025395,0.002082,0.000326,6.54,9.36,-13.26,319.9394,0.7142,-1.9299,1363
0.323227,-0.193936,9.797373,-0.029671,0.005747,0.001548,6.54,9.36,-13.26,319.9394,0.7142,-1.9299,1374
0.29689,-0.205908,9.804555,-0.016232,0.005747,0.005213,6,8.82,-13.38,319.9394,0.7142,-1.9299,1384
0.29689,-0.205908,9.804555,0.004538,0.002693,0.005824,6,8.82,-13.38,319.9394,0.7142,-1.9299,1393
0.249005,-0.158022,9.768641,0.02042,0.011856,0.00277,5.88,9,-12.54,323.9263,0.7058,-1.9611,1404
0.258582,-0.134079,9.692024,0.024085,0.011245,0.006435,5.88,9,-12.54,323.9263,0.7058,-1.9611,1413
0.258582,-0.134079,9.692024,0.017977,-0.000362,0.007046,5.94,9.48,-12.42,323.9263,0.7058,-1.9611,1423
0.260976,-0.090982,9.646533,0.004538,-0.003416,0.011933,5.94,9.48,-12.42,323.9263,0.7058,-1.9611,1433
0.287313,-0.10056,9.641745,-0.011956,0.00086,0.016209,6.18,9.12,-12.84,323.941,0.724,-1.9319,1444
0.253793,-0.110137,9.663293,-0.016843,-0.001583,0.022317,6.18,9.12,-12.84,323.941,0.724,-1.9319,1453
0.26337,-0.088588,9.708784,-0.010123,-0.005859,0.019874,6.3,8.76,-12.9,323.941,0.724,-1.9319,1463
0.26337,-0.088588,9.708784,0.005148,0.003304,0.028426,6.3,8.76,-12.9,323.941,0.724,-1.9319,1473
0.256187,-0.112531,9.780613,0.012479,0.004525,0.034535,6.42,8.64,-13.14,323.9942,0.7359,-1.8667,1483
0.239427,-0.095771,9.663293,0.008203,0.005747,0.043698,6.42,8.64,-13.14,323.9942,0.7359,-1.8667,1495
0.189148,-0.141262,9.613013,-0.000349,0.006358,0.050417,6,9.06,-13.08,323.9942,0.7359,-1.8667,1503
0.119714,-0.198725,9.699207,-0.008291,0.004525,0.058969,6,9.06,-13.08,323.9942,0.7359,-1.8667,1513
0.119714,-0.198725,9.699207,-0.018675,-0.001583,0.076074,6.24,8.88,-12.42,324.2617,0.7111,-1.7824,1523
0.105348,-0.22985,9.79019,-0.00768,-0.003416,0.085236,6.24,8.88,-12.42,324.2617,0.7111,-1.7824,1533
0.102954,-0.222668,9.797373,-0.00768,-0.003416,0.085236,6.42,8.16,-12.36,324.2617,0.7111,-1.7824,1543
0.129291,-0.148445,9.732727,0.002705,-0.000972,0.091345,6.42,8.16,-12.36,324.2617,0.7111,-1.7824,1553
0.186753,-0.098165,9.711179,0.017366,-0.004638,0.101119,6.66,8.76,-12.54,320.1675,0.7593,-1.6216,1563
0.186753,-0.098165,9.711179,0.022253,-0.009525,0.108449,6.66,8.76,-12.54,320.1675,0.7593,-1.6216,1573
0.241822,-0.062251,9.684841,0.014311,-0.00647,0.11578,6.3,9.42,-12.66,320.1675,0.7593,-1.6216,1583
0.282524,-0.021548,9.58907,0.003316,-0.001583,0.118834,6.3,9.42,-12.66,320.1675,0.7593,-1.6216,1594
0.306467,-0.045491,9.586677,-0.007069,-0.005249,0.125554,5.58,9.3,-12.84,324.2933,0.7806,-1.5188,1603
0.287313,-0.102954,9.699207,-0.019897,-0.002194,0.134106,5.58,9.3,-12.84,324.2933,0.7806,-1.5188,1613
0.287313,-0.102954,9.699207,-0.019897,-0.002194,0.134106,6.12,9.18,-12.72,324.2933,0.7806,-1.5188,1624
0.220273,-0.189148,9.761458,-0.011956,0.005136,0.145101,6.42,9.06,-13.14,324.2933,0.7806,-1.5188,1633
0.122108,-0.237033,9.775824,0.000261,0.003914,0.154875,6.42,9.06,-13.14,324.2933,0.7806,-1.5188,1644
0.047885,-0.244216,9.814133,0.005148,0.005136,0.166482,6.54,9.12,-13.2,320.2154,0.817,-1.5163,1653
0.047885,-0.244216,9.814133,0.010646,0.001471,0.187862,6.54,9.12,-13.2,320.2154,0.817,-1.5163,1663
0.03352,-0.225062,9.72315,0.010035,-0.005249,0.198247,6.54,9.48,-13.86,320.2154,0.817,-1.5163,1673
0.055068,-0.160416,9.634562,0.005148,-0.007692,0.20802,6.72,9.36,-13.14,320.2154,0.817,-1.5163,1683
0.114925,-0.138868,9.636956,-0.000349,-0.011357,0.220849,6.72,9.36,-13.14,320.2154,0.817,-1.5163,1693
0.179571,-0.124502,9.732727,-0.002182,-0.007692,0.235509,6.6,9.72,-12.78,323.222,0.8137,-1.5014,1703
0.179571,-0.124502,9.732727,0.000261,-0.010135,0.241618,6.6,9.72,-12.78,323.222,0.8137,-1.5014,1714
0.234639,-0.124502,9.763853,0.003316,-0.002805,0.252614,6.24,10.2,-12.72,323.222,0.8137,-1.5014,1724
0.239427,-0.129291,9.692024,0.003927,0.000249,0.259333,6.24,10.2,-12.72,323.222,0.8137,-1.5014,1734
0.239427,-0.129291,9.692024,0.003927,-0.000972,0.266053,6.24,9.84,-12.66,327.1367,0.8221,-1.5103,1743
0.191542,-0.098165,9.680053,0.001483,-0.001583,0.274605,6.24,9.84,-12.66,327.1367,0.8221,-1.5103,1753
0.167599,-0.098165,9.63935,-0.005236,-0.004638,0.281935,6.72,9,-12.96,327.1367,0.8221,-1.5103,1763
0.143657,-0.160416,9.677659,-0.005236,-0.004638,0.281935,6.72,9,-12.96,327.1367,0.8221,-1.5103,1773
0.134079,-0.203513,9.737515,-0.010123,-0.00647,0.295374,6.84,8.7,-13.14,320.2175,0.8301,-1.5028,1783
0.134079,-0.203513,9.737515,-0.011345,-0.007081,0.304537,6.84,8.7,-13.14,320.2175,0.8301,-1.5028,1793
0.129291,-0.234639,9.780613,-0.009512,-0.007692,0.314311,6.9,8.76,-13.14,320.2175,0.8301,-1.5028,1803
0.126897,-0.241822,9.75667,0.002094,-0.000972,0.33508,6.9,8.76,-13.14,320.2175,0.8301,-1.5028,1814
0.071828,-0.227456,9.751882,0.009424,0.002082,0.349741,6.9,8.94,-12.66,320.1948,0.8603,-1.5037,1823
0.035914,-0.181965,9.725544,0.010646,-0.001583,0.366845,6.9,8.94,-12.66,320.1948,0.8603,-1.5037,1833
0.035914,-0.181965,9.725544,0.008203,-0.004638,0.385171,6.42,8.28,-12.72,320.1948,0.8603,-1.5037,1843
0.023943,-0.155628,9.641745,-0.00096,-0.007692,0.404108,6.42,8.28,-12.72,320.1948,0.8603,-1.5037,1854
0.052674,-0.162811,9.60583,-0.00096,-0.007692,0.404108,6.18,7.74,-13.44,320.9207,0.8743,-1.4935,1863
0.102954,-0.210696,9.636956,-0.008291,-0.007692,0.41266,6.18,7.74,-13.44,320.9207,0.8743,-1.4935,1874
0.193936,-0.225062,9.794978,-0.010734,-0.018688,0.432208,6.36,8.34,-12.72,320.9207,0.8743,-1.4935,1883
0.193936,-0.225062,9.794978,-0.001571,-0.012579,0.442593,6.36,8.34,-12.72,320.9207,0.8743,-1.4935,1893
0.220273,-0.272947,9.828498,0.00637,-0.005859,0.451756,6.36,9.12,-12.96,324.2413,0.8923,-1.4917,1903
0.258582,-0.198725,9.694419,0.016144,-0.008303,0.456643,6.36,9.12,-12.96,324.2413,0.8923,-1.4917,1914
0.258582,-0.126897,9.692024,0.014922,-0.005249,0.465195,6.36,9.18,-13.92,324.2413,0.8923,-1.4917,1923
0.258582,-0.126897,9.692024,0.010035,-0.001583,0.46886,6.36,9.18,-13.92,324.2413,0.8923,-1.4917,1933
0.265765,-0.105348,9.60583,0.010035,-0.001583,0.46886,6.36,8.58,-13.62,324.0534,0.9207,-1.4982,1943
0.287313,-0.117319,9.577099,-0.003404,-0.011968,0.470692,6.36,8.58,-13.62,324.0534,0.9207,-1.4982,1953
0.272947,-0.165205,9.701602,-0.01501,-0.015022,0.47619,6.36,8.46,-13.32,324.0534,0.9207,-1.4982,1964
0.268159,-0.234639,9.792584,-0.020508,-0.00647,0.48291,6.36,8.46,-13.32,324.0534,0.9207,-1.4982,1974
0.268159,-0.265764,9.778218,-0.012567,-0.007692,0.486575,6.3,8.1,-13.56,320.6992,0.9298,-1.496,1984
0.292102,-0.265764,9.778218,0.005148,-0.007081,0.490851,6.3,8.1,-13.56,320.6992,0.9298,-1.496,1993
0.225062,-0.260976,9.778218,0.011257,0.000249,0.497571,6.18,8.4,-13.8,320.6992,0.9298,-1.496,2003
0.203513,-0.241822,9.711179,0.015533,-0.004638,0.50429,6.18,8.4,-13.8,320.6992,0.9298,-1.496,2013
0.177176,-0.234639,9.684841,0.009424,-0.010135,0.513453,6.24,8.58,-12.9,324.1675,0.9869,-1.4995,2023
0.186753,-0.174782,9.63935,0.002094,-0.008914,0.517118,6.24,8.58,-12.9,324.1675,0.9869,-1.4995,2033
0.186753,-0.174782,9.63935,-0.005236,-0.010746,0.531168,6.18,8.34,-13.26,324.1675,0.9869,-1.4995,2043
0.193936,-0.177176,9.617802,-0.005236,-0.010746,0.531168,6.18,8.34,-13.26,324.1675,0.9869,-1.4995,2053
0.198725,-0.181965,9.689631,-0.00768,-0.008914,0.536666,5.88,9,-14.04,324.0057,0.9925,-1.4916,2064
0.265765,-0.208302,9.783007,-0.006458,-0.016244,0.542164,5.88,9,-14.04,324.0057,0.9925,-1.4916,2074
0.272947,-0.24661,9.725544,0.003316,-0.011357,0.54644,5.82,9.24,-13.02,324.0057,0.9925,-1.4916,2083
0.272947,-0.24661,9.725544,0.00637,-0.005859,0.553159,5.82,9.24,-13.02,324.0057,0.9925,-1.4916,2093
0.275342,-0.249005,9.656111,0.005759,-0.010135,0.557435,6,8.82,-12.78,324.1385,1.0351,-1.4944,2104
0.256187,-0.26337,9.703996,0.000261,-0.010746,0.563544,6,8.82,-12.78,324.1385,1.0351,-1.4944,2113
0.225062,-0.253793,9.780613,0.000261,-0.00647,0.567209,5.58,8.52,-13.92,324.1385,1.0351,-1.4944,2123
0.198725,-0.201119,9.725544,0.003927,-0.005859,0.581259,5.58,8.52,-13.92,324.1385,1.0351,-1.4944,2133
0.198725,-0.201119,9.725544,0.004538,-0.00647,0.587979,4.92,8.46,-13.92,325.2838,1.064,-1.4947,2143
0.155628,-0.227456,9.644139,0.003927,-0.002194,0.593476,4.92,8.46,-13.92,325.2838,1.064,-1.4947,2153
0.162811,-0.220273,9.627379,0.005759,-0.005859,0.602028,5.58,8.58,-13.26,325.2838,1.064,-1.4947,2164
0.162811,-0.232245,9.694419,0.000261,-0.015022,0.611191,5.58,8.58,-13.26,325.2838,1.064,-1.4947,2173
0.205908,-0.265764,9.732727,-0.002793,-0.013801,0.616078,6.24,8.88,-13.68,323.9345,1.0934,-1.4862,2183
0.205908,-0.265764,9.732727,-0.00768,-0.017466,0.625852,6.24,8.88,-13.68,323.9345,1.0934,-1.4862,2193
0.249005,-0.308861,9.699207,-0.004015,-0.016855,0.627685,5.7,8.16,-13.86,323.9345,1.0934,-1.4862,2203
0.249005,-0.308861,9.699207,-0.004015,-0.016855,0.627685,5.7,8.16,-13.86,323.9345,1.0934,-1.4862,2213
0.320833,-0.275342,9.792584,0.003927,-0.010135,0.634404,5.1,7.26,-13.26,321.6554,1.1297,-1.4858,2223
0.301679,-0.220273,9.694419,0.0137,-0.001583,0.641124,5.1,7.26,-13.26,321.6554,1.1297,-1.4858,2233
0.28013,-0.244216,9.593859,0.010646,-0.005249,0.641735,4.98,7.56,-12.84,321.6554,1.1297,-1.4858,2243
0.21309,-0.268159,9.653716,0.003927,-0.001583,0.648454,4.98,7.56,-12.84,321.6554,1.1297,-1.4858,2254
0.21309,-0.268159,9.653716,-0.005847,-0.003416,0.657006,5.16,8.34,-13.62,325.216,1.1649,-1.4798,2263
0.158022,-0.328016,9.699207,-0.005847,-0.009525,0.661282,5.1,8.7,-13.62,325.216,1.1649,-1.4798,2273
0.210696,-0.316044,9.775824,-0.002182,-0.024796,0.665558,5.1,8.7,-13.62,325.216,1.1649,-1.4798,2284
0.265765,-0.292102,9.771035,0.008203,-0.016244,0.668613,4.98,8.28,-13.98,325.216,1.1649,-1.4798,2293
0.344776,-0.201119,9.684841,0.016144,-0.017466,0.664948,5.22,8.22,-13.56,325.1938,1.2142,-1.4633,2303
0.344776,-0.201119,9.684841,0.021031,-0.021131,0.664948,5.22,8.22,-13.56,325.1938,1.2142,-1.4633,2313
0.450124,-0.160416,9.598648,0.009424,-0.009525,0.663726,6,8.28,-13.62,325.1938,1.2142,-1.4633,2323
0.486038,-0.169993,9.641745,0.009424,-0.009525,0.663726,6,8.28,-13.62,325.1938,1.2142,-1.4633,2333
0.464489,-0.203513,9.644139,-0.002793,0.000249,0.660672,5.76,8.34,-14.22,320.4284,1.2533,-1.4806,2343
0.385478,-0.268159,9.665688,-0.013178,-0.005859,0.663726,5.76,8.34,-14.22,320.4284,1.2533,-1.4806,2353
0.335198,-0.34717,9.725544,-0.018065,-0.008914,0.660672,5.16,7.68,-14.1,320.4284,1.2533,-1.4806,2363
0.335198,-0.34717,9.725544,-0.010123,-0.002194,0.658839,5.16,7.68,-14.1,320.4284,1.2533,-1.4806,2373
0.22985,-0.38069,9.818921,0.003927,-0.004638,0.661282,5.76,7.44,-14.34,316.2167,1.3277,-1.6479,2384
0.249005,-0.339987,9.828498,0.018587,-0.013801,0.65945,5.76,7.44,-14.34,316.2167,1.3277,-1.6479,2393
0.33041,-0.249005,9.720756,0.02714,-0.021742,0.657617,6.06,8.1,-14.7,316.2167,1.3277,-1.6479,2404
0.33041,-0.249005,9.720756,0.021031,-0.017466,0.650898,6.06,8.1,-14.7,316.2167,1.3277,-1.6479,2414
0.457306,-0.112531,9.517242,0.021031,-0.017466,0.650898,6.06,8.34,-14.1,319.9723,1.4585,-1.7384,2423
0.574626,-0.098165,9.512454,0.003316,-0.021131,0.649065,6.06,8.34,-14.1,319.9723,1.4585,-1.7384,2433
0.574626,-0.098165,9.512454,-0.011345,-0.022353,0.63868,5.46,8.16,-13.86,319.9723,1.4585,-1.7384,2443
0.605752,-0.201119,9.692024,-0.021119,-0.008303,0.626463,5.46,8.16,-13.86,319.9723,1.4585,-1.7384,2453
0.569837,-0.325621,9.802161,-0.023562,-0.001583,0.615468,4.62,8.28,-13.86,324.5218,1.4894,-1.826,2463
0.514769,-0.378295,9.866806,-0.01501,-0.008303,0.606915,4.62,8.28,-13.86,324.5218,1.4894,-1.826,2473
0.447729,-0.339987,9.859624,0.004538,-0.007692,0.595309,4.74,8.1,-13.5,324.5218,1.4894,-1.826,2484
0.447729,-0.339987,9.859624,0.023474,-0.004638,0.584313,4.74,8.1,-13.5,324.5218,1.4894,-1.826,2493
0.33041,-0.277736,9.742304,0.026529,-0.008914,0.580648,5.16,7.86,-13.5,324.4544,1.5146,-2.0958,2504
0.335198,-0.205908,9.598648,0.017977,-0.011357,0.578205,5.16,7.86,-13.5,324.4544,1.5146,-2.0958,2513
0.351958,-0.158022,9.543579,0.002094,-0.00647,0.578205,4.92,7.62,-13.08,324.4544,1.5146,-2.0958,2524
0.407027,-0.201119,9.593859,-0.009512,-0.011357,0.571485,4.92,7.62,-13.08,324.4544,1.5146,-2.0958,2534
0.407027,-0.201119,9.593859,-0.009512,-0.011357,0.571485,4.2,7.44,-13.26,325.8441,1.5581,-2.2658,2543
0.457306,-0.237033,9.751882,-0.018675,-0.024185,0.561711,4.2,7.44,-13.26,325.8441,1.5581,-2.2658,2553
0.517163,-0.234639,9.828498,-0.010123,-0.016244,0.556824,4.2,7.8,-13.5,325.8441,1.5581,-2.2658,2563
0.538712,-0.265764,9.768641,-0.000349,-0.009525,0.551327,4.2,7.8,-13.5,325.8441,1.5581,-2.2658,2573
0.538712,-0.265764,9.768641,0.010035,-0.008303,0.544607,4.62,7.44,-13.38,320.2848,1.6156,-2.278,2583
0.52674,-0.28013,9.634562,0.012479,-0.003416,0.538498,4.62,7.44,-13.38,320.2848,1.6156,-2.278,2593
0.418998,-0.301679,9.699207,0.005759,0.006969,0.528114,5.4,6.6,-13.98,320.2848,1.6156,-2.278,2604
0.339987,-0.323227,9.732727,-0.00096,0.003304,0.526281,5.4,6.6,-13.98,320.2848,1.6156,-2.278,2615
0.337593,-0.289707,9.761458,-0.004015,-0.012579,0.518951,5.34,7.02,-14.52,319.6095,1.6577,-2.2651,2623
0.337593,-0.289707,9.761458,0.002705,-0.01319,0.513453,5.34,7.02,-14.52,319.6095,1.6577,-2.2651,2633
0.349564,-0.239427,9.70639,0.007592,-0.012579,0.51101,5.1,7.74,-14.4,319.6095,1.6577,-2.2651,2644
0.387873,-0.177176,9.677659,0.014311,-0.017466,0.506123,5.22,7.56,-14.64,319.6095,1.6577,-2.2651,2654
0.462095,-0.162811,9.646533,0.014311,-0.017466,0.506123,5.22,7.56,-14.64,319.6095,1.6577,-2.2651,2663
0.459701,-0.181965,9.608225,0.011257,-0.008914,0.499403,3.96,7.44,-14.7,325.0428,1.6906,-2.2493,2674
0.459701,-0.181965,9.608225,0.000261,0.00086,0.49696,3.96,7.44,-14.7,325.0428,1.6906,-2.2493,2683
0.418998,-0.210696,9.636956,-0.010123,-0.004027,0.496349,3.9,7.56,-15.12,325.0428,1.6906,-2.2493,2693
0.332804,-0.260976,9.718362,-0.015621,-0.009525,0.489018,3.9,7.56,-15.12,325.0428,1.6906,-2.2493,2704
0.332804,-0.260976,9.718362,-0.010734,-0.005859,0.486575,4.08,7.86,-14.4,329.0717,1.6164,-2.2959,2714
0.277736,-0.28013,9.744699,-0.001571,-0.008303,0.485964,3.84,8.04,-13.8,329.0717,1.6164,-2.2959,2724
0.244216,-0.287313,9.725544,0.00637,-0.010746,0.49024,3.84,8.04,-13.8,329.0717,1.6164,-2.2959,2733
0.268159,-0.275342,9.675264,0.008203,-0.004027,0.494516,3.54,7.8,-13.62,329.0717,1.6164,-2.2959,2743
0.306467,-0.282524,9.648928,0.008203,-0.004027,0.494516,3.54,7.8,-13.62,329.0717,1.6164,-2.2959,2753
0.306467,-0.282524,9.648928,0.001483,-0.004638,0.492073,4.44,7.02,-13.62,325.4688,1.573,-2.2789,2764
0.337593,-0.320833,9.665688,-0.007069,-0.012579,0.497571,4.44,7.02,-13.62,325.4688,1.573,-2.2789,2774
0.366324,-0.356747,9.809344,-0.013788,-0.011968,0.492073,5.58,6.9,-13.74,325.4688,1.573,-2.2789,2783
0.332804,-0.349564,9.830893,-0.000349,-0.008303,0.494516,5.58,6.9,-13.74,325.4688,1.573,-2.2789,2793
0.31365,-0.251399,9.759064,0.005759,-0.010135,0.494516,5.1,6.9,-14.1,320.1222,1.5939,-2.165,2803
0.31365,-0.251399,9.759064,0.023474,-0.002194,0.499403,5.1,6.9,-14.1,320.1222,1.5939,-2.165,2814
0.306467,-0.208302,9.636956,0.017977,0.004525,0.496349,3.84,6.6,-14.1,320.1222,1.5939,-2.165,2823
0.272947,-0.196331,9.555551,0.01309,0.00086,0.502457,3.84,6.6,-14.1,320.1222,1.5939,-2.165,2833
0.249005,-0.196331,9.579494,-0.006458,-0.008914,0.503068,3.78,6.54,-14.04,325.636,1.6621,-2.0985,2843
0.22985,-0.272947,9.670476,-0.019897,-0.01319,0.503679,3.78,6.54,-14.04,325.636,1.6621,-2.0985,2854
0.22985,-0.272947,9.670476,-0.019897,-0.01319,0.503679,3.66,7.44,-13.44,325.636,1.6621,-2.0985,2863
0.256187,-0.349564,9.768641,-0.02173,-0.016855,0.502457,3.66,7.44,-13.44,325.636,1.6621,-2.0985,2874
0.282524,-0.349564,9.830893,-0.004015,-0.018077,0.509177,3.06,7.8,-13.74,335.429,1.6606,-1.94,2883
0.270553,-0.289707,9.787795,0.0137,-0.007692,0.507955,3.06,7.8,-13.74,335.429,1.6606,-1.94,2893
0.277736,-0.239427,9.672871,0.021642,-0.002194,0.517118,3,7.02,-13.62,335.429,1.6606,-1.94,2903
0.277736,-0.239427,9.672871,0.019198,-0.004027,0.520783,3,7.02,-13.62,335.429,1.6606,-1.94,2913
0.272947,-0.186753,9.596253,0.005759,-0.005859,0.522616,3.42,6.84,-13.02,332.6302,1.6793,-1.8878,2923
0.260976,-0.220273,9.593859,-0.013178,-0.010135,0.524449,3.42,6.84,-13.02,332.6302,1.6793,-1.8878,2934
0.26337,-0.292102,9.658504,-0.026006,-0.01319,0.527503,3,7.32,-13.8,332.6302,1.6793,-1.8878,2943
0.277736,-0.36393,9.787795,-0.022341,-0.014412,0.531779,3,7.32,-13.8,332.6302,1.6793,-1.8878,2953
0.277736,-0.36393,9.787795,-0.008291,-0.010135,0.536055,3.36,7.26,-14.64,332.1598,1.6597,-1.7916,2963
0.24661,-0.416604,9.888355,0.010646,-0.00647,0.542164,3.36,7.26,-14.64,332.1598,1.6597,-1.7916,2974
0.208302,-0.423787,9.826104,0.010646,-0.00647,0.542164,4.32,6.84,-15.18,332.1598,1.6597,-1.7916,2983
0.208302,-0.423787,9.826104,0.022863,-0.000362,0.54644,4.32,6.84,-15.18,332.1598,1.6597,-1.7916,2994
0.179571,-0.328016,9.648928,0.024696,-0.001583,0.559268,4.2,6.84,-15.06,325.794,1.7302,-1.7294,3004
0.167599,-0.241822,9.60583,0.011868,-0.005859,0.565377,4.2,6.84,-15.06,325.794,1.7302,-1.7294,3013
0.21309,-0.268159,9.641745,0.002094,-0.010746,0.567209,3.96,7.14,-14.88,325.794,1.7302,-1.7294,3023
0.21309,-0.268159,9.641745,-0.008902,-0.018077,0.573929,3.96,7.14,-14.88,325.794,1.7302,-1.7294,3034
0.21309,-0.268159,9.641745,-0.008902,-0.018077,0.573929,3.96,7.14,-14.88,325.794,1.7302,-1.7294,3043
0.21309,-0.268159,9.641745,-0.008902,-0.018077,0.573929,3.96,7.14,-14.88,325.794,1.7302,-1.7294,3053
0.217879,-0.289707,9.699207,-0.011345,-0.018077,0.57454,3.36,6.78,-14.46,332.6738,1.7889,-1.6047,3063
0.272947,-0.328016,9.737515,0.01309,-0.003416,0.592865,3.36,6.78,-14.46,332.6738,1.7889,-1.6047,3073
0.244216,-0.318439,9.684841,0.008203,-0.002805,0.592865,3.18,6.6,-14.58,332.6738,1.7889,-1.6047,3083
0.244216,-0.318439,9.684841,0.004538,-0.007692,0.595309,3.18,6.6,-14.58,332.6738,1.7889,-1.6047,3093
0.256187,-0.366324,9.680053,-0.000349,-0.012579,0.596531,2.94,6.18,-14.1,328.8352,1.827,-1.4713,3103
0.277736,-0.371113,9.763853,-0.005847,-0.014412,0.602639,2.94,6.18,-14.1,328.8352,1.827,-1.4713,3113
0.311256,-0.349564,9.778218,0.000261,-0.011357,0.605083,2.88,6.84,-15.42,328.8352,1.827,-1.4713,3124
0.311256,-0.349564,9.778218,0.007592,-0.013801,0.600807,2.88,6.84,-15.42,328.8352,1.827,-1.4713,3133
0.339987,-0.335198,9.735122,0.007592,-0.013801,0.600807,2.7,7.02,-15.42,332.5953,1.8655,-1.4379,3143
0.342381,-0.289707,9.668081,0.015533,-0.007081,0.598974,2.7,7.02,-15.42,332.5953,1.8655,-1.4379,3153
0.342381,-0.289707,9.668081,0.016144,-0.004027,0.60325,2.22,6.36,-14.04,332.5953,1.8655,-1.4379,3163
0.325621,-0.287313,9.63935,0.011257,-0.002805,0.60325,2.22,6.36,-14.04,332.5953,1.8655,-1.4379,3173
0.268159,-0.294496,9.718362,0.000261,-0.004638,0.602028,2.28,6.3,-14.28,336.9013,1.9072,-1.475,3183
0.253793,-0.289707,9.684841,-0.005236,-0.010135,0.597752,2.28,6.3,-14.28,336.9013,1.9072,-1.475,3193
0.26337,-0.292102,9.641745,-0.005847,-0.011968,0.599585,3.12,6.96,-14.82,336.9013,1.9072,-1.475,3203
0.26337,-0.292102,9.641745,-0.00096,-0.019298,0.600196,3.12,6.96,-14.82,336.9013,1.9072,-1.475,3213
0.28013,-0.311256,9.689631,-0.000349,-0.010746,0.601418,2.46,7.68,-15.48,342.2451,1.8994,-1.537,3224
0.299284,-0.344776,9.780613,0.003316,-0.011357,0.604472,2.46,7.68,-15.48,342.2451,1.8994,-1.537,3233
0.33041,-0.373507,9.763853,0.003316,-0.011357,0.604472,2.22,8.16,-15.6,342.2451,1.8994,-1.537,3243
0.33041,-0.373507,9.763853,0.002094,-0.014412,0.606915,2.22,8.16,-15.6,342.2451,1.8994,-1.537,3253
0.294496,-0.38069,9.713573,0.000872,0.002082,0.616078,2.52,7.56,-15.18,335.5151,1.9012,-1.5935,3263
0.225062,-0.342381,9.682447,0.002705,-0.004638,0.617911,2.52,7.56,-15.18,335.5151,1.9012,-1.5935,3274
0.181965,-0.325621,9.725544,0.006981,-0.009525,0.619744,2.4,6.84,-14.76,335.5151,1.9012,-1.5935,3284
0.186753,-0.325621,9.725544,0.006981,-0.009525,0.619744,2.4,6.84,-14.76,335.5151,1.9012,-1.5935,3293
0.186753,-0.325621,9.725544,0.009424,-0.010135,0.626463,2.46,6.42,-14.64,336.2459,1.9317,-1.5978,3303
0.155628,-0.368718,9.677659,0.007592,-0.00647,0.635626,2.46,6.42,-14.64,336.2459,1.9317,-1.5978,3313
0.174782,-0.371113,9.72315,0.002094,-0.015633,0.636848,3.18,7.08,-14.22,336.2459,1.9317,-1.5978,3323
0.239427,-0.34717,9.742304,-0.000349,-0.011968,0.640513,3.18,7.08,-14.22,336.2459,1.9317,-1.5978,3333
0.239427,-0.34717,9.742304,0.001483,-0.008303,0.641124,2.94,8.1,-14.1,335.8395,1.9619,-1.5308,3343
0.299284,-0.29689,9.641745,0.004538,-0.010746,0.642956,2.94,8.1,-14.1,335.8395,1.9619,-1.5308,3353
0.359141,-0.260976,9.653716,0.005759,-0.02052,0.635626,2.1,7.8,-14.22,335.8395,1.9619,-1.5308,3363
0.426181,-0.29689,9.735122,0.001483,-0.018077,0.632572,2.1,7.8,-14.22,335.8395,1.9619,-1.5308,3373
0.426181,-0.29689,9.735122,0.001483,-0.018077,0.632572,1.98,7.2,-14.4,340.1208,2.0036,-1.4485,3383
0.450124,-0.337593,9.696813,-0.007069,-0.011968,0.630739,1.98,7.2,-14.4,340.1208,2.0036,-1.4485,3393
0.476461,-0.387873,9.713573,-0.008902,-0.008914,0.623409,1.74,6.78,-15.12,340.1208,2.0036,-1.4485,3403
0.416604,-0.466884,9.823709,-0.005236,-0.002194,0.618522,1.74,6.78,-15.12,340.1208,2.0036,-1.4485,3413
0.308861,-0.421392,9.893144,0.005148,0.004525,0.618522,1.68,6.18,-14.64,336.3011,1.9949,-1.5453,3423
0.201119,-0.34717,9.79019,0.019809,0.001471,0.619133,1.68,6.18,-14.64,336.3011,1.9949,-1.5453,3434
0.201119,-0.34717,9.79019,0.02775,-0.002805,0.616078,2.64,6.9,-14.58,336.3011,1.9949,-1.5453,3443
0.136474,-0.244216,9.586677,0.025307,-0.00647,0.619744,2.64,6.9,-14.58,336.3011,1.9949,-1.5453,3453
0.160416,-0.251399,9.471751,0.006981,-0.017466,0.619744,3.72,7.8,-15.12,329.236,2.0516,-1.6957,3463
0.265765,-0.253793,9.584282,-0.010123,-0.023575,0.621576,3.72,7.8,-15.12,329.236,2.0516,-1.6957,3473
0.265765,-0.253793,9.584282,-0.010123,-0.023575,0.621576,3.36,7.44,-14.76,329.236,2.0516,-1.6957,3483
0.344776,-0.328016,9.737515,-0.023562,-0.021742,0.615468,3.36,7.44,-14.76,329.236,2.0516,-1.6957,3493
0.464489,-0.39745,9.840469,-0.018675,-0.019298,0.607526,2.88,7.8,-14.82,335.2944,2.0323,-1.6667,3503
0.464489,-0.39745,9.840469,0.00637,-0.007081,0.601418,2.88,7.8,-14.82,335.2944,2.0323,-1.6667,3513
0.486038,-0.407027,9.804555,0.00637,-0.007081,0.601418,2.7,7.74,-15.3,335.2944,2.0323,-1.6667,3524
0.486038,-0.407027,9.804555,0.021642,0.006969,0.597752,2.7,7.74,-15.3,335.2944,2.0323,-1.6667,3533
0.375901,-0.373507,9.70639,0.026529,0.010634,0.594698,2.34,7.56,-14.94,341.8361,2.0579,-1.7113,3543
0.253793,-0.323227,9.672871,0.015533,-0.000972,0.592255,2.34,7.56,-14.94,341.8361,2.0579,-1.7113,3553
0.24661,-0.332804,9.684841,-0.002793,-0.002805,0.584924,2.4,7.62,-14.34,341.8361,2.0579,-1.7113,3564
0.205908,-0.342381,9.672871,-0.007069,-0.008303,0.583092,2.4,7.62,-14.34,341.8361,2.0579,-1.7113,3573
0.205908,-0.342381,9.672871,-0.009512,-0.021131,0.583092,2.52,7.32,-14.76,331.7308,2.0654,-1.8131,3583
0.258582,-0.335198,9.684841,0.001483,-0.022964,0.580648,2.52,7.32,-14.76,331.7308,2.0654,-1.8131,3593
0.339987,-0.318439,9.799767,0.011257,-0.013801,0.578816,2.1,7.44,-15.36,331.7308,2.0654,-1.8131,3603
0.373507,-0.272947,9.742304,0.016755,-0.00647,0.578816,2.1,7.44,-15.36,331.7308,2.0654,-1.8131,3613
0.392661,-0.275342,9.579494,0.012479,-0.004027,0.576983,2.34,7.32,-15.18,339.0325,2.1015,-1.8028,3624
0.392661,-0.275342,9.579494,-0.005236,-0.000362,0.573318,2.34,7.32,-15.18,339.0325,2.1015,-1.8028,3633
0.34717,-0.301679,9.569917,-0.01501,0.002693,0.572096,2.28,7.08,-15,339.0325,2.1015,-1.8028,3643
0.311256,-0.356747,9.72315,-0.018065,-0.005249,0.568431,2.28,7.08,-15,339.0325,2.1015,-1.8028,3653
0.277736,-0.409421,9.826104,-0.018065,-0.005249,0.568431,1.56,7.14,-14.7,339.0664,2.0536,-1.8046,3663
0.292102,-0.411815,9.818921,0.004538,-0.014412,0.556214,1.56,7.14,-14.7,339.0664,2.0536,-1.8046,3673
0.292102,-0.411815,9.818921,0.004538,-0.014412,0.556214,1.44,7.38,-14.46,339.0664,2.0536,-1.8046,3683
0.366324,-0.351958,9.737515,0.014311,-0.012579,0.547051,1.44,7.38,-14.46,339.0664,2.0536,-1.8046,3693
0.435758,-0.282524,9.701602,0.022253,-0.012579,0.542775,1.5,6.96,-14.94,339.0241,2.0753,-1.8172,3703
0.445335,-0.253793,9.632168,0.018587,-0.004638,0.536055,1.5,6.96,-14.94,339.0241,2.0753,-1.8172,3714
0.407027,-0.253793,9.581888,0.005759,0.001471,0.53239,1.02,6.72,-14.88,339.0241,2.0753,-1.8172,3723
0.407027,-0.253793,9.581888,-0.016843,-0.004638,0.522005,1.02,6.72,-14.88,339.0241,2.0753,-1.8172,3733
0.29689,-0.265764,9.627379,-0.021119,-0.005249,0.519562,1.08,7.56,-14.46,349.0282,2.0527,-1.8565,3743
0.265765,-0.354353,9.747093,-0.015621,-0.005859,0.514064,1.08,7.56,-14.46,349.0282,2.0527,-1.8565,3754
0.215485,-0.404632,9.826104,-0.003404,-0.008303,0.51101,1.02,7.44,-14.22,349.0282,2.0527,-1.8565,3763
0.210696,-0.450124,9.771035,0.010035,-0.010746,0.51101,1.02,7.44,-14.22,349.0282,2.0527,-1.8565,3774
0.210696,-0.450124,9.771035,0.010035,-0.010746,0.51101,0.6,7.08,-14.28,347.274,2.0181,-1.9215,3783
0.287313,-0.418998,9.747093,0.01309,-0.015633,0.50429,0.6,7.08,-14.28,347.274,2.0181,-1.9215,3793
0.34717,-0.349564,9.816526,0.014922,-0.015633,0.501236,1.08,7.08,-14.52,347.274,2.0181,-1.9215,3803
0.426181,-0.256187,9.668081,0.01309,-0.011968,0.500014,1.08,7.08,-14.52,347.274,2.0181,-1.9215,3813
0.426181,-0.256187,9.668081,0.006981,-0.016244,0.492684,1.5,7.14,-14.64,338.9307,2.0536,-1.8722,3823
0.395055,-0.239427,9.548368,-0.000349,-0.002805,0.487186,1.5,7.14,-14.64,338.9307,2.0536,-1.8722,3833
0.339987,-0.256187,9.586677,-0.006458,0.003914,0.49024,1.08,7.5,-15,338.9307,2.0536,-1.8722,3843
0.24661,-0.299284,9.732727,-0.00768,0.002082,0.487186,1.08,7.5,-15,338.9307,2.0536,-1.8722,3853
0.203513,-0.387873,9.775824,-0.008902,-0.001583,0.481688,0.84,7.2,-15.48,346.9948,2.0435,-1.8837,3863
0.203513,-0.387873,9.775824,-0.005847,-0.005249,0.483521,0.84,7.2,-15.48,346.9948,2.0435,-1.8837,3873
0.174782,-0.404632,9.737515,-0.004015,-0.013801,0.481077,1.02,7.44,-14.88,346.9948,2.0435,-1.8837,3883
0.21309,-0.404632,9.761458,0.000872,-0.016244,0.479855,1.02,7.44,-14.88,346.9948,2.0435,-1.8837,3894
0.260976,-0.38069,9.759064,0.007592,-0.011968,0.480466,1.5,7.44,-14.88,339.0875,2.0348,-1.8014,3903
0.260976,-0.38069,9.759064,0.010035,-0.00647,0.482299,1.5,7.44,-14.88,339.0875,2.0348,-1.8014,3913
0.301679,-0.328016,9.648928,0.007592,-0.002805,0.483521,1.56,7.56,-15.9,339.0875,2.0348,-1.8014,3923
0.292102,-0.292102,9.680053,0.007592,-0.002805,0.483521,1.56,7.56,-15.9,339.0875,2.0348,-1.8014,3934
0.292102,-0.292102,9.680053,0.004538,-0.000362,0.482299,1.26,7.56,-15.84,348.6646,2.0551,-1.7492,3943
0.28013,-0.320833,9.689631,-0.003404,-0.002194,0.481688,1.26,7.56,-15.84,348.6646,2.0551,-1.7492,3953
0.272947,-0.36393,9.656111,-0.004015,-0.003416,0.478634,0.84,7.08,-14.76,348.6646,2.0551,-1.7492,3963
0.294496,-0.368718,9.684841,-0.006458,-0.005859,0.474969,0.72,7.02,-14.28,348.6646,2.0551,-1.7492,3974
0.371113,-0.368718,9.830893,-0.003404,-0.009525,0.469471,0.72,7.02,-14.28,348.6646,2.0551,-1.7492,3984
0.371113,-0.368718,9.830893,0.008814,-0.010746,0.459697,0.36,7.32,-15.48,356.1522,2.0668,-1.6585,3993
0.371113,-0.342381,9.804555,0.0137,-0.005249,0.456643,0.36,7.32,-15.48,356.1522,2.0668,-1.6585,4003
0.36393,-0.332804,9.634562,0.0137,-0.005249,0.456643,0.54,7.38,-15.3,356.1522,2.0668,-1.6585,4013
0.29689,-0.311256,9.617802,0.011257,0.005136,0.451145,0.54,7.38,-15.3,356.1522,2.0668,-1.6585,4023
0.29689,-0.311256,9.617802,0.005148,0.00819,0.451756,0.9,7.26,-14.64,347.4386,2.0839,-1.6728,4034
0.203513,-0.29689,9.711179,0.000261,0.010634,0.452366,0.78,7.56,-14.88,347.4386,2.0839,-1.6728,4043
0.136474,-0.301679,9.708784,-0.003404,-0.000362,0.452977,0.78,7.56,-14.88,347.4386,2.0839,-1.6728,4053
0.047885,-0.308861,9.727939,-0.001571,-0.004638,0.452977,0.6,7.8,-15.6,347.4386,2.0839,-1.6728,4063
0.045491,-0.332804,9.677659,-0.00096,-0.008914,0.45481,0.6,7.8,-15.6,347.4386,2.0839,-1.6728,4073
0.045491,-0.332804,9.677659,0.004538,-0.011968,0.461529,0.6,7.38,-14.88,347.4813,2.0512,-1.6609,4083
0.110137,-0.342381,9.675264,0.002705,-0.018688,0.467638,0.6,7.38,-14.88,347.4813,2.0512,-1.6609,4093
0.158022,-0.344776,9.725544,-0.001571,-0.010135,0.470692,0.36,7.2,-14.7,347.4813,2.0512,-1.6609,4104
0.210696,-0.344776,9.696813,-0.004015,-0.008303,0.474358,0.36,7.2,-14.7,347.4813,2.0512,-1.6609,4114
0.284919,-0.354353,9.684841,-0.005847,-0.017466,0.476801,0.9,7.38,-15.72,347.6348,2.0198,-1.4704,4124
0.284919,-0.354353,9.684841,-0.006458,-0.01319,0.474358,0.9,7.38,-15.72,347.6348,2.0198,-1.4704,4133
0.304073,-0.342381,9.725544,-0.003404,-0.004027,0.470082,0.96,6.84,-15.54,347.6348,2.0198,-1.4704,4143
0.328016,-0.375901,9.701602,0.000872,-0.010746,0.465806,0.96,6.84,-15.54,347.6348,2.0198,-1.4704,4154
0.328016,-0.375901,9.701602,0.000872,-0.010746,0.465806,0.42,6.36,-15.24,356.3513,2.0232,-1.3317,4163
0.284919,-0.387873,9.79019,0.003316,-0.011357,0.463973,0.42,6.36,-15.24,356.3513,2.0232,-1.3317,4173
0.284919,-0.39745,9.771035,0.005759,-0.000972,0.463362,0.12,6.9,-15.3,356.3513,2.0232,-1.3317,4183
0.26337,-0.354353,9.699207,0.003927,0.001471,0.462751,0.12,6.9,-15.3,356.3513,2.0232,-1.3317,4193
0.26337,-0.354353,9.699207,0.005148,-0.00647,0.459697,-0.18,7.5,-15.48,357.3053,2.0442,-1.3413,4203
0.222668,-0.318439,9.692024,0.005148,-0.002194,0.462751,-0.18,7.5,-15.48,357.3053,2.0442,-1.3413,4214
0.201119,-0.311256,9.677659,0.002094,-0.000972,0.459086,0,8.04,-15.42,357.3053,2.0442,-1.3413,4223
0.146051,-0.294496,9.682447,0.004538,-0.007081,0.462751,0,8.04,-15.42,357.3053,2.0442,-1.3413,4233
0.174782,-0.31365,9.694419,0.002094,-0.010135,0.466416,0,7.8,-15.3,357.2388,2.0745,-1.373,4243
0.174782,-0.31365,9.694419,-0.002182,-0.010746,0.468249,0,7.8,-15.3,357.2388,2.0745,-1.373,4253
0.165205,-0.335198,9.689631,-0.004015,-0.007692,0.468249,-0.6,6.9,-14.88,357.2388,2.0745,-1.373,4263
0.146051,-0.371113,9.699207,-0.00096,-0.005249,0.475579,-0.6,6.9,-14.88,357.2388,2.0745,-1.373,4273
0.090982,-0.404632,9.72315,-0.004015,0.005136,0.489018,-0.36,7.08,-14.88,356.8862,2.0587,-1.3418,4283
0.090982,-0.404632,9.72315,-0.001571,0.003914,0.498792,-0.36,7.08,-14.88,356.8862,2.0587,-1.3418,4293
0.06704,-0.464489,9.701602,-0.000349,-0.001583,0.503068,0,8.52,-14.82,356.8862,2.0587,-1.3418,4303
0.021548,-0.445335,9.80695,0.003927,-0.000362,0.506123,0,8.52,-14.82,356.8862,2.0587,-1.3418,4313
-0.007183,-0.471672,9.783007,0.010646,-0.004638,0.517118,0.18,8.88,-14.52,357.8096,2.0702,-1.235,4323
0.014366,-0.402238,9.651321,0.01309,-0.015633,0.515286,0.18,8.88,-14.52,357.8096,2.0702,-1.235,4333
0.122108,-0.33041,9.58907,0.0137,-0.024796,0.51834,0.18,7.56,-15.12,357.8096,2.0702,-1.235,4344
0.122108,-0.33041,9.58907,0.010035,-0.021742,0.51834,0.18,7.56,-15.12,357.8096,2.0702,-1.235,4353
0.174782,-0.26337,9.732727,0.005759,-0.018077,0.522005,0,7.5,-15.42,357.9272,2.1546,-1.0273,4363
0.33041,-0.29689,9.636956,0.005759,-0.018077,0.522005,0,7.5,-15.42,357.9272,2.1546,-1.0273,4373
0.371113,-0.29689,9.615408,-0.006458,-0.010135,0.523838,0.42,6.84,-15.06,357.9272,2.1546,-1.0273,4383
0.371113,-0.29689,9.615408,-0.006458,-0.010135,0.523838,0.42,6.84,-15.06,357.9272,2.1546,-1.0273,4393
0.323227,-0.368718,9.684841,-0.010123,0.011245,0.522616,0.48,6.6,-14.58,357.9126,2.1578,-0.8953,4403
0.275342,-0.385478,9.814133,-0.007069,0.00819,0.523838,0.48,6.6,-14.58,357.9126,2.1578,-0.8953,4413
0.21309,-0.402238,9.818921,0.003927,-0.005249,0.522616,-0.12,7.26,-14.4,357.9126,2.1578,-0.8953,4423
0.21309,-0.402238,9.818921,0.006981,0.005136,0.523838,-0.12,7.26,-14.4,357.9126,2.1578,-0.8953,4433
0.134079,-0.387873,9.677659,0.005759,0.003304,0.520783,-0.48,7.38,-14.1,357.9127,2.1409,-0.9654,4443
0.112531,-0.383084,9.651321,0.005148,-0.007692,0.523227,-0.48,7.38,-14.1,357.9127,2.1409,-0.9654,4453
0.071828,-0.371113,9.737515,0.002705,-0.008914,0.528725,-0.84,7.56,-14.22,357.9127,2.1409,-0.9654,4463
0.090982,-0.373507,9.732727,0.001483,0.002693,0.537277,-0.84,7.56,-14.22,357.9127,2.1409,-0.9654,4473
0.090982,-0.373507,9.732727,0.000261,0.003304,0.545218,-0.84,7.26,-14.88,6.5149,2.1554,-1.0142,4483
0.047885,-0.335198,9.63935,0.002094,-0.004638,0.550716,-0.84,7.26,-14.88,6.5149,2.1554,-1.0142,4493
0.06704,-0.301679,9.653716,0.003927,-0.010135,0.558657,-0.48,7.08,-15.42,6.5149,2.1554,-1.0142,4504
0.079011,-0.356747,9.715967,0.001483,-0.005249,0.56049,-0.48,7.08,-15.42,6.5149,2.1554,-1.0142,4513
0.079011,-0.356747,9.715967,0.000872,-0.005249,0.561101,-0.24,7.38,-15.24,357.9685,2.1745,-0.8707,4523
0.119714,-0.359141,9.703996,-0.004015,-0.015633,0.56782,-0.24,7.38,-15.24,357.9685,2.1745,-0.8707,4533
0.205908,-0.404632,9.680053,-0.009512,-0.013801,0.56782,-0.36,7.98,-14.52,357.9685,2.1745,-0.8707,4543
0.217879,-0.440547,9.771035,-0.005236,-0.003416,0.569653,-0.36,7.98,-14.52,357.9685,2.1745,-0.8707,4553
0.237033,-0.438152,9.833286,-0.005236,-0.003416,0.569653,-0.72,7.98,-14.4,6.1212,2.1682,-0.8162,4563
0.237033,-0.438152,9.833286,0.006981,-0.005859,0.565377,-0.72,7.98,-14.4,6.1212,2.1682,-0.8162,4573
0.215485,-0.361535,9.73991,0.011868,-0.004027,0.561101,-0.54,7.38,-14.52,6.1212,2.1682,-0.8162,4583
0.198725,-0.325621,9.615408,0.014922,-0.000362,0.556214,-0.54,7.38,-14.52,6.1212,2.1682,-0.8162,4593
0.189148,-0.304073,9.656111,0.010646,-0.005249,0.556214,-0.72,7.86,-14.7,6.0566,2.2026,-0.8133,4603
0.189148,-0.304073,9.656111,0.002705,-0.015633,0.551327,-0.72,7.86,-14.7,6.0566,2.2026,-0.8133,4613
0.232245,-0.289707,9.711179,-0.005236,-0.016855,0.545829,-1.26,8.82,-14.58,6.0566,2.2026,-0.8133,4623
0.308861,-0.323227,9.672871,-0.008902,-0.013801,0.541553,-1.26,8.82,-14.58,6.0566,2.2026,-0.8133,4633
0.316044,-0.344776,9.653716,-0.008902,-0.009525,0.539109,-1.08,8.34,-14.34,6.0214,2.1892,-0.8722,4643
0.320833,-0.404632,9.761458,-0.006458,-0.007081,0.534833,-1.08,8.34,-14.34,6.0214,2.1892,-0.8722,4653
0.320833,-0.404632,9.761458,-0.000349,-0.000362,0.531779,-1.02,7.98,-13.98,6.0214,2.1892,-0.8722,4663
0.304073,-0.404632,9.802161,-0.000349,-0.000362,0.531779,-1.02,7.98,-13.98,6.0214,2.1892,-0.8722,4673
0.258582,-0.39745,9.80695,0.007592,0.003914,0.525059,-0.96,7.86,-13.98,5.7725,2.1699,-1.0041,4683
0.208302,-0.36393,9.715967,0.008814,0.00086,0.515286,-0.96,7.86,-13.98,5.7725,2.1699,-1.0041,4693
0.189148,-0.339987,9.696813,0.003316,-0.004027,0.510399,-1.5,7.62,-14.64,5.7725,2.1699,-1.0041,4703
0.134079,-0.301679,9.636956,0.002705,-0.002805,0.515897,-1.5,7.62,-14.64,5.7725,2.1699,-1.0041,4713
0.134079,-0.301679,9.636956,-0.00096,-0.000972,0.513453,-1.26,7.68,-15.12,5.3769,2.1721,-1.1496,4723
0.122108,-0.292102,9.63935,-0.001571,-0.004638,0.515286,-1.26,7.68,-15.12,5.3769,2.1721,-1.1496,4733
0.10056,-0.354353,9.692024,-0.005847,-0.005249,0.516507,-1.32,7.56,-15.12,5.3769,2.1721,-1.1496,4743
0.110137,-0.373507,9.720756,-0.009512,-0.002194,0.517118,-1.32,7.56,-15.12,5.3769,2.1721,-1.1496,4753
0.110137,-0.445335,9.787795,-0.006458,-0.008914,0.520173,-1.32,7.68,-14.64,5.3182,2.1638,-1.1781,4763
0.110137,-0.445335,9.787795,-0.00096,-0.004638,0.51834,-1.32,7.68,-14.64,5.3182,2.1638,-1.1781,4774
0.112531,-0.474066,9.754275,0.00637,-0.010135,0.520173,-0.42,7.8,-14.76,5.3182,2.1638,-1.1781,4783
0.146051,-0.41421,9.727939,0.009424,-0.005859,0.519562,-0.42,7.8,-14.76,5.3182,2.1638,-1.1781,4793
0.158022,-0.366324,9.715967,0.01309,-0.005249,0.520783,-0.18,8.16,-14.64,357.7975,2.1771,-1.0908,4803
0.122108,-0.366324,9.672871,0.010646,-0.004027,0.52567,-0.18,8.16,-14.64,357.7975,2.1771,-1.0908,4813
0.122108,-0.366324,9.672871,0.00637,-0.005859,0.52567,-0.36,8.64,-14.04,357.7975,2.1771,-1.0908,4823
0.126897,-0.36393,9.651321,-0.000349,-0.007692,0.524449,-0.36,8.64,-14.04,357.7975,2.1771,-1.0908,4833
0.153234,-0.33041,9.711179,-0.002182,-0.005249,0.522616,-1.5,8.16,-13.92,5.8025,2.2159,-0.9928,4843
0.129291,-0.318439,9.744699,-0.002182,-0.005249,0.522616,-1.5,8.16,-13.92,5.8025,2.2159,-0.9928,4853
0.193936,-0.294496,9.656111,0.002094,-0.007692,0.522616,-1.56,7.92,-14.58,5.8025,2.2159,-0.9928,4863
0.193936,-0.294496,9.656111,0.003927,-0.011968,0.523227,-1.56,7.92,-14.58,5.8025,2.2159,-0.9928,4873
0.196331,-0.289707,9.60583,-0.002793,-0.001583,0.518951,-0.9,7.92,-14.88,5.8475,2.2158,-0.9192,4883
0.186753,-0.332804,9.684841,-0.005847,0.00086,0.518951,-0.9,7.92,-14.88,5.8475,2.2158,-0.9192,4893
0.177176,-0.433364,9.80695,-0.008902,-0.00647,0.516507,-0.84,8.4,-13.98,5.8475,2.2158,-0.9192,4903
0.179571,-0.469278,9.759064,-0.00768,-0.008303,0.512231,-0.84,8.4,-13.98,5.8475,2.2158,-0.9192,4913
0.179571,-0.469278,9.759064,-0.002793,-0.003416,0.513453,-1.26,8.76,-13.86,5.2511,2.1617,-0.9081,4923
0.146051,-0.435758,9.768641,0.003927,-0.000972,0.507955,-1.26,8.76,-13.86,5.2511,2.1617,-0.9081,4934
0.122108,-0.409421,9.797373,0.016144,-0.003416,0.510399,-1.32,8.88,-13.74,5.2511,2.1617,-0.9081,4943
0.126897,-0.325621,9.742304,0.016144,-0.003416,0.510399,-1.32,8.88,-13.74,5.2511,2.1617,-0.9081,4953
0.143657,-0.268159,9.557945,0.023474,-0.005249,0.508566,-0.78,9.42,-13.86,5.2347,2.2015,-0.9218,4963
0.143657,-0.268159,9.557945,0.012479,0.003304,0.509177,-0.78,9.42,-13.86,5.2347,2.2015,-0.9218,4973
0.114925,-0.277736,9.567522,-0.002182,0.001471,0.510399,-0.72,8.82,-14.04,5.2347,2.2015,-0.9218,4983
0.079011,-0.316044,9.70639,-0.006458,-0.004027,0.514064,-0.72,8.82,-14.04,5.2347,2.2015,-0.9218,4993
0.079011,-0.316044,9.70639,-0.014399,-0.007692,0.515897,-1.26,8.22,-13.8,5.9906,2.1903,-0.8889,5003
0.095771,-0.351958,9.785401,-0.008291,-0.000972,0.517729,-1.26,8.22,-13.8,5.9906,2.1903,-0.8889,5013
0.06704,-0.366324,9.751882,-0.000349,-0.002194,0.515286,-1.74,8.34,-13.44,5.9906,2.1903,-0.8889,5023
0.088588,-0.373507,9.720756,0.010646,-0.007081,0.519562,-1.8,8.46,-13.5,5.9906,2.1903,-0.8889,5033
0.119714,-0.387873,9.682447,0.010646,-0.007081,0.519562,-1.8,8.46,-13.5,5.9906,2.1903,-0.8889,5043
0.119714,-0.387873,9.682447,0.005759,-0.00647,0.515286,-0.84,8.34,-13.92,6.1619,2.1575,-0.793,5053
0.131685,-0.395055,9.675264,-0.000349,-0.000972,0.51834,-0.6,8.46,-14.28,6.1619,2.1575,-0.793,5063
0.141262,-0.404632,9.783007,-0.004015,-0.007081,0.520173,-0.6,8.46,-14.28,6.1619,2.1575,-0.793,5073
0.136474,-0.390267,9.780613,-0.004625,-0.004638,0.526892,-0.96,8.58,-14.4,6.1619,2.1575,-0.793,5083
0.136474,-0.351958,9.70639,0.004538,0.003304,0.527503,-0.96,8.58,-14.4,6.1619,2.1575,-0.793,5093
0.136474,-0.351958,9.70639,0.010646,0.010023,0.526892,-1.38,8.82,-14.04,5.5562,2.1592,-0.7219,5104
0.105348,-0.308861,9.653716,0.010035,0.010634,0.531779,-1.38,8.82,-14.04,5.5562,2.1592,-0.7219,5113
0.059857,-0.349564,9.665688,0.006981,0.005747,0.536055,-1.26,8.58,-14.1,5.5562,2.1592,-0.7219,5123
0.040703,-0.36393,9.703996,-0.00096,0.006358,0.540331,-1.26,8.58,-14.1,5.5562,2.1592,-0.7219,5134
0.040703,-0.36393,9.703996,-0.010734,0.002693,0.541553,-2.16,8.4,-13.98,13.8104,2.1685,-0.676,5143
-0.002394,-0.39745,9.77343,-0.005236,-0.001583,0.551327,-2.16,8.4,-13.98,13.8104,2.1685,-0.676,5153
-0.004789,-0.423787,9.735122,-0.004015,-0.002805,0.55377,-2.58,8.94,-13.86,13.8104,2.1685,-0.676,5163
-0.004789,-0.404632,9.720756,0.008203,0.003914,0.561711,-2.58,8.94,-13.86,13.8104,2.1685,-0.676,5173
-0.038308,-0.373507,9.749487,0.011868,0.009412,0.565987,-2.34,8.82,-13.92,12.3809,2.1695,-0.5819,5183
-0.038308,-0.373507,9.749487,0.0137,0.002082,0.570264,-2.34,8.82,-13.92,12.3809,2.1695,-0.5819,5194
-0.03352,-0.349564,9.713573,0.008203,-0.002805,0.576983,-2.04,8.94,-13.74,12.3809,2.1695,-0.5819,5203
-0.052674,-0.361535,9.60583,-0.002182,-0.002805,0.586146,-2.04,8.94,-13.74,12.3809,2.1695,-0.5819,5213
-0.059857,-0.383084,9.663293,-0.008902,-0.005249,0.587979,-1.92,9.06,-14.04,12.6318,2.1891,-0.4273,5223
-0.064645,-0.404632,9.775824,-0.008902,-0.008914,0.596531,-1.92,9.06,-14.04,12.6318,2.1891,-0.4273,5233
-0.064645,-0.404632,9.775824,-0.002182,-0.016244,0.597752,-1.92,8.82,-14.22,12.6318,2.1891,-0.4273,5243
0.011971,-0.373507,9.809344,0.006981,-0.012579,0.604472,-1.92,8.82,-14.22,12.6318,2.1891,-0.4273,5253
0.019154,-0.409421,9.708784,0.006981,-0.012579,0.604472,-2.04,9.24,-14.28,12.914,2.2009,-0.2507,5263
0.055068,-0.371113,9.672871,0.010035,-0.002805,0.607526,-2.04,9.24,-14.28,12.914,2.2009,-0.2507,5273
0.055068,-0.371113,9.672871,0.011257,-0.007081,0.60997,-1.92,8.88,-13.92,12.914,2.2009,-0.2507,5283
0.090982,-0.368718,9.696813,0.000872,-0.013801,0.611802,-1.92,8.88,-13.92,12.914,2.2009,-0.2507,5293
0.10056,-0.356747,9.73991,-0.001571,-0.008914,0.611191,-1.26,9.24,-14.46,6.5478,2.2163,-0.1224,5304
0.112531,-0.354353,9.696813,-0.001571,-0.002805,0.612413,-1.26,9.24,-14.46,6.5478,2.2163,-0.1224,5313
0.112531,-0.354353,9.696813,-0.001571,-0.002805,0.612413,-1.38,9.84,-13.86,6.5478,2.2163,-0.1224,5323
0.10056,-0.342381,9.696813,0.000872,-0.008914,0.614246,-1.38,9.84,-13.86,6.5478,2.2163,-0.1224,5333
0.076617,-0.383084,9.720756,0.003927,-0.000362,0.614857,-1.92,9.18,-12.72,13.099,2.2224,-0.1089,5343
0.076617,-0.383084,9.720756,0.005148,0.003914,0.619133,-1.86,8.76,-12.48,13.099,2.2224,-0.1089,5353
0.009577,-0.404632,9.699207,-0.000349,-0.002805,0.619744,-2.04,8.94,-13.74,13.099,2.2224,-0.1089,5363
0.009577,-0.404632,9.699207,-0.000349,-0.003416,0.622187,-2.04,8.94,-13.74,13.099,2.2224,-0.1089,5373
-0.057463,-0.399844,9.775824,0.000261,-0.010746,0.624631,-1.74,9.6,-14.34,11.7253,2.2091,-0.1558,5383
-0.019154,-0.399844,9.73991,0.005148,-0.016244,0.625241,-1.74,9.6,-14.34,11.7253,2.2091,-0.1558,5393
0.002394,-0.385478,9.713573,0.00637,-0.015022,0.630739,-2.16,9.96,-14.34,11.7253,2.2091,-0.1558,5403
0.055068,-0.351958,9.682447,0.009424,-0.010746,0.630128,-2.16,9.96,-14.34,11.7253,2.2091,-0.1558,5413
0.105348,-0.351958,9.699207,0.008814,-0.009525,0.635015,-2.88,9.84,-13.86,17.4378,2.2305,-0.1332,5423
0.105348,-0.351958,9.699207,0.008814,-0.009525,0.635015,-2.88,9.84,-13.86,17.4378,2.2305,-0.1332,5433
0.122108,-0.354353,9.718362,0.000261,-0.002805,0.636848,-3,9.54,-13.44,17.4378,2.2305,-0.1332,5443
0.10056,-0.354353,9.713573,-0.00096,-0.002805,0.633794,-3,9.54,-13.44,17.4378,2.2305,-0.1332,5453
0.090982,-0.38069,9.711179,-0.00096,-0.002805,0.633794,-3,9.3,-14.22,19.366,2.2261,-0.1236,5463
0.090982,-0.38069,9.711179,-0.000349,-0.002194,0.635015,-3,9.3,-14.22,19.366,2.2261,-0.1236,5474
0.038308,-0.390267,9.744699,0.001483,0.00086,0.636237,-2.76,9.9,-14.46,19.366,2.2261,-0.1236,5483
0.019154,-0.390267,9.744699,0.003927,-0.000362,0.636237,-2.76,9.9,-14.46,19.366,2.2261,-0.1236,5493
0.01676,-0.342381,9.742304,0.008814,-0.002805,0.635626,-2.16,9.72,-13.92,11.6978,2.2172,-0.1769,5503
0.014366,-0.325621,9.692024,0.010035,-0.004638,0.63807,-2.16,9.72,-13.92,11.6978,2.2172,-0.1769,5513
0.023943,-0.33041,9.644139,0.005148,-0.004638,0.63807,-1.8,9.66,-13.86,11.6978,2.2172,-0.1769,5523
0.023943,-0.33041,9.644139,-0.002793,-0.00647,0.641124,-1.8,9.66,-13.86,11.6978,2.2172,-0.1769,5533
-0.007183,-0.36393,9.711179,-0.005236,-0.000362,0.647233,-1.92,10.62,-13.98,10.5939,2.2017,-0.1832,5543
-0.009577,-0.39745,9.785401,-0.002793,-0.000362,0.647843,-1.92,10.62,-13.98,10.5939,2.2017,-0.1832,5553
-0.014366,-0.385478,9.761458,-0.00096,-0.002194,0.647233,-1.74,10.02,-13.92,10.5939,2.2017,-0.1832,5563
-0.014366,-0.373507,9.730332,0.005759,-0.005859,0.648454,-1.74,10.02,-13.92,10.5939,2.2017,-0.1832,5574
-0.045491,-0.373507,9.730332,0.010646,-0.010746,0.646622,-1.86,9.54,-14.28,11.7324,2.1838,-0.1454,5583
-0.01676,-0.332804,9.715967,0.010646,-0.010746,0.646622,-1.86,9.54,-14.28,11.7324,2.1838,-0.1454,5593
0.019154,-0.301679,9.696813,0.00637,-0.013801,0.647843,-2.46,9.9,-14.82,11.7324,2.1838,-0.1454,5603
0.081405,-0.306467,9.663293,-0.000349,-0.013801,0.649676,-2.46,9.9,-14.82,11.7324,2.1838,-0.1454,5613
0.122108,-0.351958,9.670476,-0.008291,-0.011968,0.649065,-2.76,10.08,-14.52,17.5496,2.1695,-0.0741,5623
0.122108,-0.351958,9.670476,-0.009512,-0.008914,0.646011,-2.76,10.08,-14.52,17.5496,2.1695,-0.0741,5634
0.119714,-0.409421,9.73991,-0.009512,-0.003416,0.646011,-2.46,10.38,-14.22,17.5496,2.1695,-0.0741,5643
0.098165,-0.440547,9.830893,-0.005847,0.00086,0.642956,-2.46,10.38,-14.22,17.5496,2.1695,-0.0741,5653
0.035914,-0.440547,9.828498,0.005759,-0.005249,0.639902,-2.04,10.56,-14.58,10.7556,2.1362,-0.0694,5663
0.035914,-0.440547,9.828498,0.0137,-0.005249,0.641124,-2.04,10.56,-14.58,10.7556,2.1362,-0.0694,5673
-0.007183,-0.373507,9.759064,0.016144,-0.005859,0.634404,-2.34,10.74,-14.28,10.7556,2.1362,-0.0694,5683
0,-0.308861,9.63935,0.01309,-0.010746,0.632572,-2.34,10.74,-14.28,10.7556,2.1362,-0.0694,5693
0.043097,-0.265764,9.644139,0.005759,-0.017466,0.634404,-2.16,10.5,-13.74,10.6702,2.1633,-0.1167,5703
0.043097,-0.265764,9.644139,0.005759,-0.017466,0.634404,-2.16,10.5,-13.74,10.6702,2.1633,-0.1167,5713
0.105348,-0.234639,9.72315,-0.002182,-0.013801,0.625852,-2.4,10.26,-13.26,10.6702,2.1633,-0.1167,5723
0.155628,-0.301679,9.675264,-0.002182,-0.013801,0.625852,-2.4,10.26,-13.26,10.6702,2.1633,-0.1167,5733
0.198725,-0.270553,9.648928,-0.006458,-0.014412,0.621576,-3.12,10.56,-13.26,15.7882,2.1423,-0.1296,5743
0.198725,-0.270553,9.648928,-0.006458,-0.008303,0.614857,-3.12,10.56,-13.26,15.7882,2.1423,-0.1296,5753
0.205908,-0.311256,9.735122,-0.007069,-0.003416,0.602028,-2.46,10.68,-13.92,15.7882,2.1423,-0.1296,5763
0.193936,-0.351958,9.792584,-0.006458,-0.008914,0.594698,-2.46,10.68,-13.92,15.7882,2.1423,-0.1296,5773
0.172388,-0.390267,9.787795,-0.001571,-0.008914,0.589811,-2.46,10.68,-14.22,10.4995,2.0645,-0.23,5783
0.124502,-0.351958,9.742304,-0.00096,-0.007692,0.580037,-2.46,10.68,-14.22,10.4995,2.0645,-0.23,5793
0.064645,-0.34717,9.72315,0.002094,-0.00647,0.573318,-2.82,11.04,-13.8,10.4995,2.0645,-0.23,5803
0.064645,-0.34717,9.72315,0.002705,-0.008914,0.572096,-2.82,11.04,-13.8,10.4995,2.0645,-0.23,5813
0.06704,-0.36393,9.696813,0.002705,-0.009525,0.565987,-3.24,10.92,-14.52,15.4824,2.0256,-0.3894,5823
0.028731,-0.325621,9.747093,0.003316,-0.004638,0.567209,-3.24,10.92,-14.52,15.4824,2.0256,-0.3894,5833
0.004789,-0.332804,9.747093,0.003316,-0.005249,0.567209,-3,11.04,-14.34,15.4824,2.0256,-0.3894,5843
0.004789,-0.332804,9.747093,0.005759,-0.007692,0.570264,-3,11.04,-14.34,15.4824,2.0256,-0.3894,5853
0.014366,-0.270553,9.718362,0.005759,-0.008914,0.570264,-2.22,12,-13.08,9.3293,2.0219,-0.4638,5863
0.040703,-0.26337,9.641745,0.003927,-0.008914,0.565377,-2.22,12,-13.08,9.3293,2.0219,-0.4638,5873
0.105348,-0.260976,9.613013,-0.000349,-0.014412,0.557435,-1.92,11.64,-13.86,9.3293,2.0219,-0.4638,5883
0.155628,-0.275342,9.694419,-0.003404,-0.018077,0.549494,-1.92,11.64,-13.86,9.3293,2.0219,-0.4638,5893
0.155628,-0.275342,9.694419,-0.011345,-0.013801,0.542775,-2.1,10.92,-14.7,10.2243,1.9833,-0.4234,5903
0.186753,-0.311256,9.804555,-0.00768,-0.004027,0.538498,-2.1,10.92,-14.7,10.2243,1.9833,-0.4234,5913
0.148445,-0.344776,9.759064,-0.00768,-0.004027,0.538498,-2.7,10.98,-13.98,10.2243,1.9833,-0.4234,5923
0.098165,-0.325621,9.727939,-0.005236,-0.000972,0.534833,-2.7,10.98,-13.98,10.2243,1.9833,-0.4234,5933
0.047885,-0.304073,9.747093,0.002705,0.002693,0.531168,-2.28,10.98,-13.86,10.2081,1.9168,-0.4283,5943
0.047885,-0.304073,9.747093,0.003927,0.003914,0.526892,-2.28,10.98,-13.86,10.2081,1.9168,-0.4283,5953
-0.026337,-0.311256,9.751882,0.006981,-0.004027,0.520173,-2.4,11.28,-14.58,10.2081,1.9168,-0.4283,5963
-0.019154,-0.301679,9.715967,0.005759,-0.01319,0.517118,-2.4,11.28,-14.58,10.2081,1.9168,-0.4283,5973
0.011971,-0.31365,9.656111,-0.00096,-0.014412,0.515897,-2.88,10.98,-13.92,15.3341,1.8975,-0.4608,5983
0.011971,-0.31365,9.656111,-0.005847,-0.009525,0.515897,-2.88,10.98,-13.92,15.3341,1.8975,-0.4608,5993
0.031126,-0.306467,9.720756,-0.004625,-0.005859,0.51834,-2.88,11.04,-13.62,15.3341,1.8975,-0.4608,6003
0.038308,-0.306467,9.775824,-0.004625,-0.005859,0.51834,-2.88,11.04,-13.62,15.3341,1.8975,-0.4608,6013
0.002394,-0.289707,9.735122,-0.001571,-0.001583,0.516507,-2.76,11.58,-13.92,14.1166,1.8705,-0.4041,6023
0.002394,-0.287313,9.70639,0.00637,-0.000972,0.517118,-2.76,11.58,-13.92,14.1166,1.8705,-0.4041,6033
-0.028731,-0.287313,9.70639,0.008814,-0.00647,0.517118,-2.76,11.7,-13.32,14.1166,1.8705,-0.4041,6043
-0.055068,-0.287313,9.737515,0.00637,-0.008303,0.516507,-2.76,11.7,-13.32,14.1166,1.8705,-0.4041,6053
-0.028731,-0.277736,9.735122,0.002705,-0.008914,0.520173,-2.88,12.24,-13.2,14.1903,1.8522,-0.3244,6063
-0.002394,-0.275342,9.665688,-0.003404,-0.007692,0.522005,-2.88,12.24,-13.2,14.1903,1.8522,-0.3244,6073
0.007183,-0.282524,9.675264,-0.002793,-0.007081,0.522616,-3.12,12,-13.44,14.1903,1.8522,-0.3244,6083
0.007183,-0.282524,9.675264,-0.008291,-0.008303,0.520173,-3.12,12,-13.44,14.1903,1.8522,-0.3244,6094
-0.021548,-0.31365,9.749487,-0.008291,-0.008303,0.520173,-3.36,11.4,-12.9,15.5902,1.8169,-0.2089,6103
-0.021548,-0.31365,9.749487,-0.002182,-0.007692,0.520783,-3.36,11.4,-12.9,15.5902,1.8169,-0.2089,6114
-0.021548,-0.31365,9.749487,-0.002182,-0.007692,0.520783,-3.36,11.4,-12.9,15.5902,1.8169,-0.2089,6123
-0.035914,-0.368718,9.771035,-0.002182,-0.005859,0.524449,-3.36,11.22,-12.54,15.5902,1.8169,-0.2089,6133
-0.138868,-0.33041,9.823709,0.010035,-0.005859,0.540331,-3.36,11.22,-12.54,15.5902,1.8169,-0.2089,6143
-0.110137,-0.294496,9.718362,0.014311,-0.009525,0.543385,-3.18,12.18,-13.14,14.3723,1.8046,-0.1392,6154
-0.110137,-0.294496,9.718362,0.016755,-0.012579,0.547051,-3.18,12.18,-13.14,14.3723,1.8046,-0.1392,6163
-0.074223,-0.203513,9.569917,0.009424,-0.011968,0.551938,-3.3,12.42,-13.32,14.3723,1.8046,-0.1392,6174
-0.057463,-0.217879,9.668081,0.000261,-0.008303,0.55377,-3.3,12.42,-13.32,14.3723,1.8046,-0.1392,6183
-0.045491,-0.253793,9.70639,-0.006458,-0.012579,0.558657,-2.28,12.36,-13.62,9.9015,1.8437,0.0613,6193
-0.045491,-0.253793,9.70639,-0.011345,-0.021131,0.559268,-2.28,12.36,-13.62,9.9015,1.8437,0.0613,6203
0.011971,-0.289707,9.720756,-0.012567,-0.010135,0.564766,-3.12,11.94,-13.62,9.9015,1.8437,0.0613,6213
-0.009577,-0.318439,9.759064,-0.004625,0.001471,0.565987,-3.12,11.94,-13.62,9.9015,1.8437,0.0613,6223
-0.019154,-0.323227,9.794978,0.002705,-0.011968,0.562322,-3.6,11.88,-13.56,19.2892,1.7848,0.1855,6233
-0.019154,-0.323227,9.794978,0.002705,-0.011968,0.562322,-3.6,11.88,-13.56,19.2892,1.7848,0.1855,6243
-0.021548,-0.301679,9.768641,0.010646,-0.007692,0.567209,-2.64,12.6,-13.5,19.2892,1.7848,0.1855,6253
-0.059857,-0.320833,9.668081,0.006981,0.001471,0.567209,-2.94,12.36,-13.26,19.2892,1.7848,0.1855,6264
-0.062251,-0.272947,9.653716,-0.001571,-0.01319,0.576372,-2.94,12.36,-13.26,19.2892,1.7848,0.1855,6273
-0.090982,-0.272947,9.766247,-0.004015,-0.013801,0.579426,-3.24,12.54,-13.26,13.6245,1.7525,0.2344,6283
-0.090982,-0.272947,9.766247,-0.005236,-0.004027,0.582481,-3.24,12.54,-13.26,13.6245,1.7525,0.2344,6293
-0.102954,-0.26337,9.768641,-0.003404,-0.000362,0.587979,-4.14,13.2,-13.86,13.6245,1.7525,0.2344,6303
-0.138868,-0.356747,9.646533,-0.00096,-0.009525,0.597142,-4.14,13.2,-13.86,13.6245,1.7525,0.2344,6313
-0.126897,-0.373507,9.737515,-0.00096,-0.011968,0.600196,-3.3,13.2,-13.74,13.7555,1.7356,0.3164,6323
-0.126897,-0.373507,9.737515,0.000261,-0.008303,0.603861,-3.3,13.2,-13.74,13.7555,1.7356,0.3164,6333
-0.110137,-0.375901,9.873989,0.00637,-0.009525,0.605083,-2.34,12.72,-13.26,13.7555,1.7356,0.3164,6343
-0.035914,-0.344776,9.821315,0.01309,-0.022353,0.602028,-2.34,12.72,-13.26,13.7555,1.7356,0.3164,6353
0.059857,-0.217879,9.624985,0.015533,-0.021131,0.601418,-2.16,12.78,-13.32,9.3864,1.7519,0.3631,6363
0.0838,-0.177176,9.581888,0.0137,-0.009525,0.597142,-2.16,12.78,-13.32,9.3864,1.7519,0.3631,6373
0.0838,-0.177176,9.581888,0.007592,-0.011357,0.595309,-2.28,12.54,-12.72,9.3864,1.7519,0.3631,6383
0.098165,-0.136474,9.665688,0.000261,-0.011357,0.594087,-2.28,12.54,-12.72,9.3864,1.7519,0.3631,6394
0.119714,-0.198725,9.708784,0.000261,-0.011357,0.594087,-2.7,12.66,-12.54,13.7796,1.7659,0.3907,6403
0.06704,-0.253793,9.708784,-0.010734,-0.000972,0.591644,-2.7,12.66,-12.54,13.7796,1.7659,0.3907,6413
-0.059857,-0.342381,9.742304,-0.016232,0.006969,0.592255,-2.52,12.6,-13.62,13.7796,1.7659,0.3907,6423
-0.059857,-0.342381,9.742304,-0.014399,0.003914,0.59592,-2.52,12.6,-13.62,13.7796,1.7659,0.3907,6433
-0.090982,-0.349564,9.821315,0.000872,-0.011968,0.598363,-1.92,12.6,-13.56,9.3123,1.6703,0.2617,6443
-0.186753,-0.316044,9.811738,0.011257,-0.004638,0.597142,-1.92,12.6,-13.56,9.3123,1.6703,0.2617,6453
-0.186753,-0.328016,9.682447,0.016144,-0.002194,0.601418,-1.98,12.96,-12.48,9.3123,1.6703,0.2617,6463
-0.105348,-0.282524,9.629773,0.01309,-0.017466,0.611191,-1.98,12.96,-12.48,9.3123,1.6703,0.2617,6473
-0.105348,-0.282524,9.629773,0.007592,-0.024185,0.612413,-2.22,13.08,-12.12,9.1806,1.6567,0.2107,6483
-0.045491,-0.277736,9.715967,-0.005236,-0.008303,0.611191,-2.22,13.08,-12.12,9.1806,1.6567,0.2107,6493
-0.002394,-0.265764,9.763853,-0.007069,-0.008914,0.611191,-2.88,12.96,-12.42,9.1806,1.6567,0.2107,6503
0.052674,-0.320833,9.708784,-0.002793,-0.019909,0.613635,-2.88,12.96,-12.42,9.1806,1.6567,0.2107,6514
0.064645,-0.299284,9.771035,0.003927,-0.005859,0.609359,-3.12,13.02,-12.84,13.663,1.6603,0.2972,6523
0.064645,-0.299284,9.771035,0.010646,0.003304,0.606915,-3.12,13.02,-12.84,13.663,1.6603,0.2972,6534
0.026337,-0.320833,9.802161,0.02042,-0.010135,0.600807,-3.12,13.26,-12.54,13.663,1.6603,0.2972,6543
0.052674,-0.234639,9.715967,0.018587,-0.015022,0.595309,-3.12,13.26,-12.54,13.663,1.6603,0.2972,6553
0.023943,-0.167599,9.675264,0.010035,0.000249,0.592255,-2.4,12.78,-12.36,9.2445,1.6751,0.2768,6564
0.023943,-0.167599,9.675264,0.004538,-0.007692,0.586146,-2.4,12.78,-12.36,9.2445,1.6751,0.2768,6573
0.007183,-0.158022,9.601042,-0.002182,-0.026018,0.583703,-2.16,12.66,-12.36,9.2445,1.6751,0.2768,6583
0.069434,-0.124502,9.60583,-0.002182,-0.026018,0.583703,-2.16,12.66,-12.36,9.2445,1.6751,0.2768,6593
0.057463,-0.181965,9.658504,-0.004625,-0.026629,0.583092,-3.54,13.02,-12.78,17.7625,1.6389,0.193,6603
0.01676,-0.244216,9.75667,-0.014399,0.003914,0.581259,-3.54,13.02,-12.78,17.7625,1.6389,0.193,6613
0.01676,-0.244216,9.75667,-0.013788,-0.003416,0.577594,-3.54,12.9,-13.38,17.7625,1.6389,0.193,6623
0.043097,-0.320833,9.809344,-0.006458,-0.016244,0.576983,-3.54,12.9,-13.38,17.7625,1.6389,0.193,6633
0.026337,-0.325621,9.771035,-0.004625,-0.003416,0.570874,-2.22,13.26,-12.72,9.0863,1.5343,0.1,6643
0.023943,-0.318439,9.749487,0.002094,-0.00647,0.568431,-2.22,13.26,-12.72,9.0863,1.5343,0.1,6653
0.052674,-0.284919,9.778218,0.011257,-0.021131,0.563544,-2.58,13.62,-12.24,9.0863,1.5343,0.1,6663
0.052674,-0.284919,9.778218,0.01309,-0.013801,0.563544,-2.58,13.62,-12.24,9.0863,1.5343,0.1,6673
0.026337,-0.239427,9.711179,0.008814,-0.000972,0.559268,-3.42,13.86,-12.66,12.3884,1.5197,-0.0074,6683
0.026337,-0.239427,9.711179,0.005148,-0.001583,0.559879,-3.42,13.86,-12.66,12.3884,1.5197,-0.0074,6693
0.014366,-0.210696,9.620196,0.000261,-0.000362,0.558046,-3.06,13.98,-12.42,12.3884,1.5197,-0.0074,6703
-0.011971,-0.220273,9.677659,-0.003404,-0.004638,0.561101,-3.06,13.98,-12.42,12.3884,1.5197,-0.0074,6713
-0.064645,-0.21309,9.694419,-0.005847,-0.002194,0.561101,-3.3,13.2,-12.6,13.3149,1.5185,-0.0264,6723
-0.10056,-0.258582,9.672871,-0.005847,-0.002194,0.561101,-3.3,13.2,-12.6,13.3149,1.5185,-0.0264,6733
-0.10056,-0.258582,9.672871,-0.00096,-0.008303,0.564155,-3.66,12.96,-12.48,13.3149,1.5185,-0.0264,6743
-0.10056,-0.270553,9.694419,-0.000349,-0.010746,0.559879,-3.66,12.96,-12.48,13.3149,1.5185,-0.0264,6753
-0.047885,-0.28013,9.768641,0.001483,-0.010746,0.564766,-3.06,13.32,-11.82,13.2913,1.4972,-0.0198,6763
0.014366,-0.234639,9.692024,0.002094,-0.011968,0.561711,-3.06,13.32,-11.82,13.2913,1.4972,-0.0198,6773
0.014366,-0.234639,9.692024,0.004538,-0.015633,0.56049,-2.4,13.32,-11.7,13.2913,1.4972,-0.0198,6783
0.021548,-0.193936,9.703996,0.005759,-0.005249,0.559879,-2.4,13.32,-11.7,13.2913,1.4972,-0.0198,6794
-0.002394,-0.227456,9.747093,0.003927,-0.004027,0.555603,-2.58,13.14,-11.88,13.3567,1.4878,0.0557,6803
0.004789,-0.215485,9.692024,0.006981,-0.014412,0.556214,-2.58,13.14,-11.88,13.3567,1.4878,0.0557,6813
0,-0.186753,9.627379,0.000261,-0.000972,0.548272,-3.36,13.02,-11.58,13.3567,1.4878,0.0557,6823
0,-0.186753,9.627379,-0.00096,-0.003416,0.545829,-3.36,13.02,-11.58,13.3567,1.4878,0.0557,6833
0.002394,-0.201119,9.682447,-0.00096,-0.003416,0.545829,-3.42,13.68,-11.22,12.3977,1.4512,0.0798,6843
0.064645,-0.201119,9.768641,-0.003404,-0.018077,0.538498,-3.42,13.68,-11.22,12.3977,1.4512,0.0798,6853
0.093377,-0.189148,9.747093,-0.000349,-0.015633,0.534222,-2.64,13.92,-10.86,12.3977,1.4512,0.0798,6863
0.093377,-0.189148,9.747093,0.000261,-0.000972,0.53239,-2.64,13.92,-10.86,12.3977,1.4512,0.0798,6873
0.093377,-0.189148,9.747093,0.000261,-0.000972,0.53239,-2.64,13.92,-10.86,12.3977,1.4512,0.0798,6883
0.093377,-0.189148,9.747093,0.000261,-0.000972,0.53239,-2.64,13.92,-10.86,12.3977,1.4512,0.0798,6904
0.093377,-0.189148,9.747093,0.000261,-0.000972,0.53239,-2.64,13.92,-10.86,12.3977,1.4512,0.0798,6905
0.069434,-0.189148,9.692024,-0.00096,0.003304,0.528114,-2.58,14.04,-10.92,12.3473,1.3754,0.0309,6913
-0.009577,-0.215485,9.70639,-0.000349,-0.003416,0.512231,-2.76,14.22,-11.34,12.3473,1.3754,0.0309,6924
0.009577,-0.22985,9.737515,0.000872,-0.015633,0.505512,-2.76,14.22,-11.34,12.3473,1.3754,0.0309,6933
0.062251,-0.21309,9.754275,0.003316,-0.011968,0.503679,-2.76,13.74,-12.06,12.3473,1.3754,0.0309,6943
0.014366,-0.198725,9.665688,0.00637,-0.001583,0.498181,-2.76,13.74,-12.06,12.3473,1.3754,0.0309,6953
0.014366,-0.198725,9.665688,0.00637,-0.000972,0.501236,-2.16,13.74,-11.76,8.2406,1.3014,-0.0594,6963
-0.043097,-0.186753,9.665688,0.004538,-0.010135,0.500625,-2.16,13.74,-11.76,8.2406,1.3014,-0.0594,6974
-0.059857,-0.184359,9.742304,0.001483,-0.008914,0.497571,-2.52,13.74,-11.4,8.2406,1.3014,-0.0594,6983
-0.059857,-0.184359,9.742304,0.000261,0.002082,0.500625,-2.52,13.74,-11.4,8.2406,1.3014,-0.0594,6993
-0.114925,-0.169993,9.72315,-0.002793,-0.002194,0.500014,-2.7,14.1,-11.46,12.2426,1.265,-0.0815,7004
-0.158022,-0.184359,9.627379,-0.002182,-0.009525,0.504901,-2.7,14.1,-11.46,12.2426,1.265,-0.0815,7014
-0.131685,-0.205908,9.684841,-0.002793,-0.01319,0.508566,-1.86,14.82,-11.16,12.2426,1.265,-0.0815,7024
-0.107742,-0.24661,9.785401,-0.002793,-0.011357,0.507955,-2.1,14.82,-11.34,12.2426,1.265,-0.0815,7033
-0.107742,-0.24661,9.785401,-0.000349,-0.010135,0.512231,-2.1,14.82,-11.34,12.2426,1.265,-0.0815,7043
-0.081405,-0.249005,9.771035,0.006981,-0.014412,0.519562,-2.94,14.46,-10.56,12.3279,1.219,0.0406,7053
-0.095771,-0.196331,9.696813,0.005759,-0.007692,0.520783,-2.94,14.46,-10.56,12.3279,1.219,0.0406,7063
-0.043097,-0.162811,9.670476,0.002705,-0.004027,0.522005,-2.94,14.4,-10.74,12.3279,1.219,0.0406,7073
-0.086194,-0.167599,9.694419,0.004538,-0.005859,0.528114,-2.58,14.34,-10.5,12.3279,1.219,0.0406,7083
-0.086194,-0.167599,9.694419,0.001483,-0.009525,0.529946,-2.58,14.34,-10.5,12.3279,1.219,0.0406,7093
-0.10056,-0.160416,9.670476,-0.003404,-0.011357,0.536666,-2.58,14.28,-10.68,12.4582,1.2152,0.2127,7103
-0.090982,-0.189148,9.680053,-0.005236,-0.010135,0.536666,-2.58,14.28,-10.68,12.4582,1.2152,0.2127,7113
-0.081405,-0.227456,9.742304,-0.004015,-0.007692,0.53972,-2.34,14.46,-10.86,12.4582,1.2152,0.2127,7124
-0.081405,-0.225062,9.718362,-0.002182,-0.004638,0.540942,-2.04,15,-11.28,12.4582,1.2152,0.2127,7133
-0.081405,-0.225062,9.718362,-0.002182,-0.004638,0.540942,-2.04,15,-11.28,12.4582,1.2152,0.2127,7143
-0.076617,-0.210696,9.708784,0.003927,-0.01319,0.550716,-2.58,15.48,-10.8,11.7092,1.1761,0.3205,7154
-0.098165,-0.21309,9.787795,0.003927,-0.01319,0.550716,-2.58,15.48,-10.8,11.7092,1.1761,0.3205,7163
-0.119714,-0.181965,9.725544,0.008814,-0.005249,0.557435,-2.7,15.6,-10.5,11.7092,1.1761,0.3205,7173
-0.146051,-0.174782,9.641745,0.005759,-0.008914,0.56049,-2.58,15.3,-10.32,11.7092,1.1761,0.3205,7183
-0.146051,-0.174782,9.641745,0.001483,-0.011968,0.562322,-2.58,15.3,-10.32,11.7092,1.1761,0.3205,7193
-0.136474,-0.162811,9.665688,-0.004015,-0.007692,0.570264,-2.34,15.24,-10.8,8.0003,1.1713,0.3971,7203
-0.112531,-0.220273,9.680053,-0.004625,-0.011968,0.57515,-2.34,15.24,-10.8,8.0003,1.1713,0.3971,7213
-0.107742,-0.237033,9.737515,-0.005236,-0.016244,0.579426,-2.76,15.78,-11.1,8.0003,1.1713,0.3971,7223
-0.117319,-0.256187,9.818921,0.000872,-0.005859,0.584313,-2.76,15.78,-11.1,8.0003,1.1713,0.3971,7233
-0.117319,-0.256187,9.818921,0.008814,-0.008914,0.588589,-2.88,15.3,-11.46,11.815,1.1523,0.4743,7243
-0.06704,-0.222668,9.787795,0.010646,-0.015022,0.591033,-2.88,15.3,-11.46,11.815,1.1523,0.4743,7253
-0.122108,-0.179571,9.680053,0.012479,-0.004638,0.601418,-2.64,15.24,-11.46,11.815,1.1523,0.4743,7264
-0.146051,-0.126897,9.608225,0.005148,0.001471,0.609359,-2.64,15.24,-11.46,11.815,1.1523,0.4743,7274
-0.146051,-0.126897,9.608225,0.005148,0.001471,0.609359,-2.94,15.42,-10.86,11.8608,1.1694,0.535,7283
-0.189148,-0.153234,9.672871,-0.005847,-0.011357,0.62402,-2.94,15.42,-10.86,11.8608,1.1694,0.535,7293
-0.215485,-0.189148,9.732727,-0.005847,-0.011357,0.62402,-3.48,14.82,-11.28,11.8608,1.1694,0.535,7303
-0.169993,-0.232245,9.730332,-0.008291,-0.010746,0.633794,-3.48,14.82,-11.28,11.8608,1.1694,0.535,7313
-0.186753,-0.244216,9.744699,-0.001571,-0.011357,0.642956,-2.94,15.12,-11.04,11.9008,1.1428,0.5972,7323
-0.196331,-0.232245,9.75667,0.003927,-0.010135,0.65273,-2.94,15.12,-11.04,11.9008,1.1428,0.5972,7333
-0.196331,-0.232245,9.75667,0.009424,-0.005249,0.660672,-2.58,15.42,-10.2,11.9008,1.1428,0.5972,7343
-0.234639,-0.232245,9.701602,0.008814,-0.005249,0.6735,-2.58,15.42,-10.2,11.9008,1.1428,0.5972,7354
-0.234639,-0.205908,9.670476,0.005148,-0.005249,0.685717,-2.82,15.12,-10.68,11.9593,1.1375,0.6808,7364
-0.189148,-0.239427,9.644139,-0.002793,-0.01319,0.694269,-2.82,15.12,-10.68,11.9593,1.1375,0.6808,7373
-0.167599,-0.220273,9.711179,-0.008902,-0.015022,0.695491,-2.28,15.36,-10.8,11.9593,1.1375,0.6808,7383
-0.167599,-0.220273,9.711179,-0.005236,-0.016244,0.707097,-2.28,15.36,-10.8,11.9593,1.1375,0.6808,7394
-0.138868,-0.272947,9.830893,0.002094,-0.013801,0.712595,-2.04,15.9,-10.74,7.6935,1.1047,0.6906,7403
-0.062251,-0.222668,9.797373,0.014922,-0.011968,0.721758,-2.04,15.9,-10.74,7.6935,1.1047,0.6906,7413
-0.062251,-0.222668,9.797373,0.016755,-0.009525,0.718093,-3.12,15.9,-10.44,7.6935,1.1047,0.6906,7423
-0.01676,-0.146051,9.663293,0.017366,-0.00647,0.719925,-3.12,15.9,-10.44,7.6935,1.1047,0.6906,7433
0.007183,-0.076617,9.601042,0.008814,-0.01319,0.721147,-3.36,15.54,-10.38,11.1677,1.0922,0.6926,7444
0.047885,-0.074223,9.613013,-0.003404,-0.013801,0.720536,-3.36,15.54,-10.38,11.1677,1.0922,0.6926,7453
0.047885,-0.074223,9.613013,-0.003404,-0.013801,0.720536,-2.04,15.6,-11.34,11.1677,1.0922,0.6926,7463
0.009577,-0.119714,9.651321,-0.016232,-0.008914,0.716871,-2.04,15.6,-11.34,11.1677,1.0922,0.6926,7473
-0.014366,-0.217879,9.747093,-0.013788,-0.00647,0.717482,-1.8,16.2,-10.56,7.6928,1.0401,0.6986,7483
-0.014366,-0.272947,9.818921,-0.013788,-0.00647,0.717482,-1.8,16.2,-10.56,7.6928,1.0401,0.6986,7493
-0.057463,-0.284919,9.842864,0.000872,-0.005859,0.717482,-2.1,16.56,-10.26,7.6928,1.0401,0.6986,7503
-0.031126,-0.253793,9.775824,0.012479,-0.010135,0.718093,-2.1,16.56,-10.26,7.6928,1.0401,0.6986,7513
-0.031126,-0.253793,9.775824,0.019809,-0.019909,0.70893,-1.56,16.74,-10.86,7.2439,1.0488,0.7036,7523
0.055068,-0.172388,9.744699,0.019809,-0.02052,0.705265,-1.56,16.74,-10.86,7.2439,1.0488,0.7036,7533
0.098165,-0.098165,9.653716,0.011257,-0.011968,0.699156,-1.92,16.62,-10.62,7.2439,1.0488,0.7036,7543
0.122108,-0.064645,9.60583,0.002094,-0.010135,0.697934,-1.92,16.62,-10.62,7.2439,1.0488,0.7036,7553
0.114925,-0.095771,9.641745,-0.004625,-0.00647,0.693658,-2.1,16.32,-10.62,7.5838,1.0704,0.5347,7565
0.114925,-0.095771,9.641745,-0.00768,-0.000972,0.691215,-2.1,16.32,-10.62,7.5838,1.0704,0.5347,7573
0.06704,-0.165205,9.75667,-0.006458,-0.002194,0.685106,-1.68,16.62,-10.56,7.5838,1.0704,0.5347,7583
0.009577,-0.186753,9.809344,0.002705,-0.015022,0.674721,-1.68,16.62,-10.56,7.5838,1.0704,0.5347,7593
0.009577,-0.186753,9.809344,0.008203,-0.015022,0.66678,-1.8,16.98,-10.8,6.9958,1.0231,0.3213,7603
0.047885,-0.179571,9.713573,0.008203,-0.015022,0.658839,-1.8,16.98,-10.8,6.9958,1.0231,0.3213,7613
0.076617,-0.158022,9.677659,0.004538,-0.015022,0.65273,-1.8,16.74,-11.22,6.9958,1.0231,0.3213,7623
0.114925,-0.138868,9.725544,0.002705,-0.012579,0.649065,-1.8,16.74,-11.22,6.9958,1.0231,0.3213,7633
0.107742,-0.107742,9.771035,0.002094,-0.008303,0.641735,-1.8,16.86,-11.28,6.871,0.976,0.1335,7643
0.107742,-0.107742,9.771035,0.005148,-0.003416,0.63868,-1.8,16.86,-11.28,6.871,0.976,0.1335,7653
0.062251,-0.105348,9.70639,0.005759,-0.001583,0.639291,-1.92,16.8,-11.1,6.871,0.976,0.1335,7663
-0.002394,-0.107742,9.620196,0.001483,-0.007692,0.634404,-1.92,16.8,-11.1,6.871,0.976,0.1335,7673
-0.045491,-0.126897,9.648928,-0.001571,-0.010746,0.633183,-1.74,17.04,-10.8,6.7618,0.942,-0.0318,7683
-0.038308,-0.131685,9.780613,-0.003404,-0.009525,0.631961,-1.74,17.04,-10.8,6.7618,0.942,-0.0318,7693
-0.038308,-0.131685,9.780613,-0.003404,-0.009525,0.631961,-1.08,16.92,-10.62,6.7618,0.942,-0.0318,7703
0.019154,-0.169993,9.804555,0.000261,-0.019298,0.622798,-1.08,16.92,-10.62,6.7618,0.942,-0.0318,7713
0.126897,-0.153234,9.759064,0.006981,-0.011968,0.616689,-1.32,16.38,-10.92,3.5394,0.888,-0.1095,7723
0.150839,-0.110137,9.694419,0.008203,-0.004638,0.612413,-1.32,16.38,-10.92,3.5394,0.888,-0.1095,7733
0.129291,-0.057463,9.699207,0.009424,-0.002805,0.608748,-1.86,16.98,-11.46,3.5394,0.888,-0.1095,7743
0.129291,-0.057463,9.699207,0.007592,-0.007081,0.602639,-1.86,16.98,-11.46,3.5394,0.888,-0.1095,7753
0.071828,-0.0838,9.708784,0.007592,-0.007081,0.602639,-1.92,17.58,-11.7,6.2717,0.8395,-0.1972,7763
0.038308,-0.107742,9.699207,0.001483,-0.003416,0.600196,-1.92,17.58,-11.7,6.2717,0.8395,-0.1972,7773
0.004789,-0.129291,9.692024,-0.004015,-0.004638,0.587368,-1.62,17.34,-11.1,6.2717,0.8395,-0.1972,7783
0.004789,-0.129291,9.692024,-0.002182,-0.01319,0.586757,-1.62,17.34,-11.1,6.2717,0.8395,-0.1972,7793
0.03352,-0.119714,9.763853,-0.001571,-0.019298,0.580037,-0.9,17.28,-10.92,3.2436,0.8055,-0.2367,7803
0.10056,-0.081405,9.77343,0.004538,-0.010746,0.57515,-0.9,17.28,-10.92,3.2436,0.8055,-0.2367,7813
0.114925,-0.071828,9.715967,0.008814,-0.008303,0.56782,-1.2,17.34,-10.74,3.2436,0.8055,-0.2367,7823
0.105348,-0.074223,9.687236,0.003927,-0.00647,0.563544,-1.2,17.34,-10.74,3.2436,0.8055,-0.2367,7833
0.105348,-0.074223,9.687236,-0.003404,-0.002194,0.559879,-1.8,16.56,-9.72,6.605,0.7596,-0.2695,7843
0.079011,-0.098165,9.694419,-0.006458,-0.000362,0.557435,-1.8,16.56,-9.72,6.605,0.7596,-0.2695,7853
0.004789,-0.158022,9.744699,-0.006458,-0.000362,0.557435,-1.32,16.44,-8.94,6.605,0.7596,-0.2695,7863
-0.019154,-0.169993,9.802161,-0.00768,-0.007692,0.552548,-1.32,16.44,-8.94,6.605,0.7596,-0.2695,7873
-0.01676,-0.143656,9.811738,0.000261,-0.011357,0.54644,-0.42,16.5,-9.84,359.812,0.6982,-0.3174,7883
-0.01676,-0.143656,9.811738,0.008814,-0.011968,0.547661,-0.42,16.5,-9.84,359.812,0.6982,-0.3174,7893
0.01676,-0.074223,9.766247,0.0137,-0.011357,0.545218,-0.6,16.08,-11.1,359.812,0.6982,-0.3174,7903
0.047885,-0.023943,9.646533,0.012479,-0.005859,0.545829,-0.6,16.08,-11.1,359.812,0.6982,-0.3174,7913
0.062251,-0.01676,9.608225,0.005759,-0.003416,0.541553,-1.32,16.2,-10.62,3.3969,0.6964,-0.3036,7923
0.062251,-0.01676,9.608225,-0.005847,-0.007692,0.536055,-1.32,16.2,-10.62,3.3969,0.6964,-0.3036,7933
0.112531,-0.055068,9.665688,-0.013788,-0.007692,0.529336,-1.5,17.04,-10.56,3.3969,0.6964,-0.3036,7943
0.090982,-0.105348,9.771035,-0.013788,-0.011357,0.524449,-1.26,17.22,-10.38,3.3969,0.6964,-0.3036,7953
0.069434,-0.162811,9.828498,-0.005847,-0.011357,0.522005,-1.26,17.22,-10.38,3.3969,0.6964,-0.3036,7964
0.045491,-0.122108,9.854836,0.004538,-0.009525,0.51101,-0.9,17.4,-11.22,3.204,0.603,-0.2858,7974
0.045491,-0.122108,9.854836,0.015533,-0.00647,0.510399,-0.9,17.4,-11.22,3.204,0.603,-0.2858,7984
0.03352,-0.0838,9.768641,0.019809,-0.001583,0.51101,-0.9,17.46,-10.26,3.204,0.603,-0.2858,7993
-0.009577,-0.038308,9.658504,0.016755,0.000249,0.51162,-0.9,17.46,-10.26,3.204,0.603,-0.2858,8003
-0.064645,-0.019154,9.596253,0.005148,-0.004027,0.509788,-1.62,17.52,-10.32,6.2087,0.5905,-0.3044,8013
-0.105348,-0.052674,9.672871,-0.008291,-0.005859,0.513453,-1.62,17.52,-10.32,6.2087,0.5905,-0.3044,8023
-0.105348,-0.052674,9.672871,-0.01501,-0.011968,0.517729,-1.26,17.22,-10.62,6.2087,0.5905,-0.3044,8034
-0.110137,-0.095771,9.775824,-0.010123,-0.017466,0.520173,-1.26,17.22,-10.62,6.2087,0.5905,-0.3044,8043
-0.112531,-0.098165,9.80695,-0.002793,-0.008914,0.523227,-0.18,17.46,-10.44,359.8591,0.5417,-0.2382,8054
-0.0838,-0.079011,9.768641,0.00637,-0.008914,0.526892,-0.06,17.88,-10.56,359.8591,0.5417,-0.2382,8064
-0.081405,-0.011971,9.694419,0.0137,-0.007081,0.530557,-0.06,17.88,-10.56,359.8591,0.5417,-0.2382,8073
-0.081405,-0.011971,9.694419,0.011257,-0.010135,0.534833,-0.3,17.88,-10.38,359.8591,0.5417,-0.2382,8083
-0.064645,-0.03352,9.632168,-0.001571,-0.008914,0.536055,-0.3,17.88,-10.38,359.8591,0.5417,-0.2382,8093
-0.040703,-0.064645,9.648928,-0.014399,-0.007081,0.540942,-0.84,17.94,-10.56,3.143,0.5228,-0.0894,8103
-0.05028,-0.134079,9.732727,-0.020508,-0.010746,0.545218,-0.84,17.94,-10.56,3.143,0.5228,-0.0894,8113
-0.05028,-0.134079,9.732727,-0.018065,-0.009525,0.550105,-1.5,17.76,-9.72,3.143,0.5228,-0.0894,8123
-0.076617,-0.150839,9.835681,-0.008291,-0.010135,0.552548,-1.5,17.76,-9.72,3.143,0.5228,-0.0894,8133
-0.081405,-0.174782,9.857229,0.010646,-0.005249,0.562933,-0.66,17.76,-9.78,3.2195,0.4863,0.0441,8144
-0.122108,-0.169993,9.826104,0.0137,-0.005859,0.564766,-0.12,17.76,-9.84,3.2195,0.4863,0.0441,8153
-0.122108,-0.169993,9.826104,0.019809,-0.007081,0.57454,-0.12,17.76,-9.84,3.2195,0.4863,0.0441,8164
-0.126897,-0.117319,9.677659,0.0137,-0.011968,0.578205,0.18,17.88,-9.72,3.2195,0.4863,0.0441,8173
-0.134079,-0.093377,9.675264,0.001483,-0.010746,0.584924,0.18,17.88,-9.72,3.2195,0.4863,0.0441,8183
-0.105348,-0.055068,9.70639,-0.005236,-0.011357,0.589811,-0.18,17.76,-9.36,0.0954,0.5379,0.1899,8194
-0.052674,-0.05028,9.711179,-0.005236,-0.013801,0.592865,-0.36,17.76,-9.18,0.0954,0.5379,0.1899,8203
-0.052674,-0.05028,9.711179,-0.005236,-0.013801,0.592865,-0.36,17.76,-9.18,0.0954,0.5379,0.1899,8213
0.011971,-0.035914,9.682447,-0.000349,-0.011968,0.594698,-0.48,17.64,-9.42,0.0954,0.5379,0.1899,8223
0.069434,-0.055068,9.747093,0.000261,-0.008303,0.584313,-0.48,17.64,-9.42,0.0954,0.5379,0.1899,8233
0.107742,-0.107742,9.787795,0.002094,-0.014412,0.578205,-0.66,17.64,-10.5,3.3814,0.5639,0.3305,8243
0.107742,-0.107742,9.787795,0.002705,-0.01319,0.578816,-0.66,17.64,-10.5,3.3814,0.5639,0.3305,8253
0.10056,-0.114925,9.787795,-0.001571,-0.012579,0.57515,-0.84,17.82,-10.56,3.3814,0.5639,0.3305,8263
0.026337,-0.134079,9.727939,-0.000349,-0.00647,0.57515,-0.84,17.82,-10.56,3.3814,0.5639,0.3305,8273
-0.074223,-0.090982,9.742304,0.004538,-0.002805,0.581259,-0.18,17.64,-10.5,0.1505,0.5203,0.2695,8283
-0.162811,-0.023943,9.72315,0.010035,0.00086,0.588589,-0.18,17.64,-10.5,0.1505,0.5203,0.2695,8293
-0.162811,-0.023943,9.72315,0.010035,0.00086,0.588589,0.36,18,-10.56,0.1505,0.5203,0.2695,8303
-0.205908,-0.021548,9.687236,0.012479,0.003304,0.599585,0.36,18,-10.56,0.1505,0.5203,0.2695,8313
-0.203513,-0.03352,9.61062,0.003927,-0.010135,0.60325,0.24,18.3,-10.62,0.0911,0.5113,0.1482,8323
-0.076617,-0.088588,9.660899,-0.007069,-0.019298,0.607526,0.24,18.3,-10.62,0.0911,0.5113,0.1482,8333
-0.076617,-0.088588,9.660899,-0.012567,-0.026018,0.610581,0.24,17.82,-10.86,0.0911,0.5113,0.1482,8343
0.028731,-0.098165,9.835681,-0.013178,-0.024796,0.609359,0.24,17.82,-10.86,0.0911,0.5113,0.1482,8353
0.102954,-0.110137,9.842864,-0.002182,-0.015022,0.608137,0.24,17.04,-10.38,0.1372,0.4627,0.2322,8363
0.169994,-0.074223,9.742304,0.005759,-0.009525,0.608137,0.24,17.04,-10.38,0.1372,0.4627,0.2322,8373
0.114925,-0.071828,9.699207,0.0137,0.002082,0.602028,0.3,17.76,-9.9,0.1372,0.4627,0.2322,8383
0.114925,-0.071828,9.699207,0.011257,0.001471,0.59592,0.3,17.76,-9.9,0.1372,0.4627,0.2322,8393
0.069434,-0.052674,9.730332,0.003316,-0.008914,0.5892,0.36,18.3,-10.14,0.1204,0.46,0.2157,8403
0.064645,-0.05028,9.711179,-0.005236,-0.015022,0.583092,0.36,18.3,-10.14,0.1204,0.46,0.2157,8413
0.129291,-0.055068,9.677659,-0.008902,-0.016855,0.57515,0.54,18.36,-10.2,0.1204,0.46,0.2157,8423
0.129291,-0.055068,9.677659,-0.008902,-0.016855,0.57515,0.54,18.36,-10.2,0.1204,0.46,0.2157,8433
0.196331,-0.064645,9.70639,-0.006458,-0.021742,0.564155,0.66,18.42,-9.66,356.8457,0.4419,0.0705,8443
0.253793,-0.052674,9.787795,-0.00096,-0.016855,0.556214,0.66,18.42,-9.66,356.8457,0.4419,0.0705,8453
0.258582,-0.047885,9.799767,0.006981,-0.008303,0.54644,0.36,17.64,-10.02,356.8457,0.4419,0.0705,8463
0.234639,-0.03352,9.75667,0.011868,-0.003416,0.540331,0.36,17.64,-10.02,356.8457,0.4419,0.0705,8473
0.169994,-0.01676,9.699207,0.011868,-0.002805,0.531168,0,17.58,-9.96,359.9165,0.4326,-0.1497,8484
0.169994,-0.01676,9.699207,0.007592,-0.000972,0.523227,0,17.58,-9.96,359.9165,0.4326,-0.1497,8493
0.10056,0.047885,9.670476,0.005148,0.002693,0.520783,0.42,17.76,-9.54,359.9165,0.4326,-0.1497,8503
0.043097,0.062251,9.641745,-0.002793,-0.005859,0.512842,0.42,17.76,-9.54,359.9165,0.4326,-0.1497,8513
0.052674,0.023943,9.624985,-0.003404,-0.005249,0.509177,0.3,18,-9.78,359.7666,0.3759,-0.4185,8523
0.059857,-0.01676,9.687236,-0.011345,-0.010746,0.500625,0.3,18,-9.78,359.7666,0.3759,-0.4185,8534
0.059857,-0.01676,9.687236,-0.012567,-0.014412,0.502457,0.78,17.7,-10.2,359.7666,0.3759,-0.4185,8543
0.071828,-0.129291,9.835681,-0.008291,-0.015633,0.495127,0.78,17.7,-10.2,359.7666,0.3759,-0.4185,8553
0.119714,-0.119714,9.876384,0.003927,-0.015633,0.492684,0.96,17.52,-10.5,356.548,0.3692,-0.4694,8563
0.124502,-0.059857,9.794978,0.016144,-0.008914,0.487797,0.96,17.52,-10.5,356.548,0.3692,-0.4694,8573
0.124502,-0.059857,9.794978,0.019198,-0.002805,0.49024,0.24,18,-10.62,356.548,0.3692,-0.4694,8583
0.126897,0.009577,9.658504,0.016755,-0.000362,0.486575,0.24,18,-10.62,356.548,0.3692,-0.4694,8593
0.095771,0.062251,9.615408,0.016755,-0.000362,0.486575,0.48,18.3,-10.5,359.7236,0.3909,-0.4956,8603
0.055068,0.045491,9.629773,-0.004015,-0.004638,0.478634,0.48,18.3,-10.5,359.7236,0.3909,-0.4956,8614
0.055068,0.045491,9.629773,-0.004015,-0.004638,0.478634,1.08,18.72,-9.66,359.7236,0.3909,-0.4956,8623
0.031126,-0.035914,9.701602,-0.017454,-0.00647,0.478023,1.08,18.72,-9.66,359.7236,0.3909,-0.4956,8633
0.038308,-0.112531,9.811738,-0.015621,-0.01319,0.477412,1.08,18.66,-9.18,356.7377,0.3373,-0.5094,8643
0.052674,-0.119714,9.883567,-0.006458,-0.01319,0.476801,1.08,18.66,-9.18,356.7377,0.3373,-0.5094,8653
0.052674,-0.119714,9.883567,0.008203,-0.004638,0.47619,0.72,18.36,-9.72,356.7377,0.3373,-0.5094,8663
-0.023943,-0.047885,9.778218,0.017366,-0.000362,0.481077,0.72,18.36,-9.72,356.7377,0.3373,-0.5094,8674
-0.079011,0.014366,9.586677,0.021642,0.005747,0.49024,0.9,18,-10.26,356.5274,0.2893,-0.5114,8683
-0.06704,0.045491,9.601042,0.008814,-0.000362,0.490851,0.9,18,-10.26,356.5274,0.2893,-0.5114,8693
-0.062251,-0.01676,9.684841,-0.007069,-0.008914,0.496349,0.72,18.06,-10.2,356.5274,0.2893,-0.5114,8703
-0.062251,-0.01676,9.684841,-0.017454,-0.015633,0.498792,0.72,18.06,-10.2,356.5274,0.2893,-0.5114,8713
-0.007183,-0.069434,9.785401,-0.01501,-0.021742,0.499403,0.48,18.66,-9.42,359.806,0.2506,-0.4087,8723
0.076617,-0.102954,9.80695,-0.005847,-0.015633,0.500625,0.48,18.66,-9.42,359.806,0.2506,-0.4087,8733
0.122108,-0.06704,9.850046,0.014311,-0.002805,0.499403,0.54,19.08,-8.76,359.806,0.2506,-0.4087,8743
0.122108,-0.06704,9.850046,0.023474,0.000249,0.498181,0.54,19.08,-8.76,359.806,0.2506,-0.4087,8753
0.107742,0.01676,9.730332,0.022863,0.004525,0.50429,1.32,19.14,-9,356.8485,0.2452,-0.2802,8763
0.05028,0.06704,9.624985,0.011257,0.006969,0.501847,1.32,19.14,-9,356.8485,0.2452,-0.2802,8773
-0.03352,0.031126,9.577099,-0.005847,0.002082,0.502457,1.38,18.24,-9,356.8485,0.2452,-0.2802,8783
-0.03352,0.031126,9.577099,-0.019286,-0.011357,0.509177,1.38,18.24,-9,356.8485,0.2452,-0.2802,8793
-0.126897,-0.05028,9.73991,-0.018675,-0.011968,0.514675,0.78,17.88,-9.24,356.6871,0.2105,-0.2548,8803
-0.117319,-0.112531,9.835681,-0.014399,-0.009525,0.520173,0.78,17.88,-9.24,356.6871,0.2105,-0.2548,8814
-0.090982,-0.105348,9.830893,0.003927,-0.009525,0.528114,0.78,18.66,-9.18,356.6871,0.2105,-0.2548,8823
-0.069434,-0.081405,9.763853,0.015533,-0.011357,0.53239,0.78,18.66,-9.18,356.6871,0.2105,-0.2548,8834
-0.069434,-0.081405,9.763853,0.022863,-0.00647,0.537888,1.02,17.88,-9,356.72,0.1909,-0.1901,8843
0.004789,-0.071828,9.747093,0.016755,-0.007692,0.539109,1.02,17.88,-9,356.72,0.1909,-0.1901,8853
0.03352,-0.021548,9.715967,0.016755,-0.007692,0.539109,1.2,17.82,-9.36,356.72,0.1909,-0.1901,8863
0.047885,0.021548,9.715967,0.005148,-0.011357,0.543996,1.2,17.82,-9.36,356.72,0.1909,-0.1901,8873
0.047885,0.021548,9.715967,-0.001571,-0.01319,0.54644,0.6,18.24,-9.6,356.7792,0.2126,-0.0619,8883
0.090982,0.045491,9.692024,-0.005847,-0.01319,0.543996,0.6,18.24,-9.6,356.7792,0.2126,-0.0619,8893
0.069434,0.028731,9.70639,-0.00768,-0.005249,0.543385,0.66,18.12,-9.54,356.7792,0.2126,-0.0619,8903
0.052674,0.03352,9.727939,-0.002182,-0.004027,0.54644,0.66,18.12,-9.54,356.7792,0.2126,-0.0619,8913
0.052674,0.03352,9.727939,-0.000349,-0.002805,0.550716,0.9,18.3,-9.84,356.7858,0.204,-0.0506,8923
0.031126,-0.052674,9.768641,-0.002793,0.00086,0.549494,0.9,18.3,-9.84,356.7858,0.204,-0.0506,8934
0.002394,-0.102954,9.778218,-0.007069,-0.005859,0.55377,1.14,18.3,-10.08,356.7858,0.204,-0.0506,8943
-0.031126,-0.138868,9.814133,-0.009512,-0.010135,0.551327,1.14,18.3,-10.08,356.7858,0.204,-0.0506,8953
-0.038308,-0.126897,9.857229,-0.00096,-0.011357,0.559879,1.56,19.02,-9.78,353.9352,0.1539,-0.0908,8963
-0.038308,-0.126897,9.857229,0.010035,-0.011968,0.566598,1.56,19.02,-9.78,353.9352,0.1539,-0.0908,8973
-0.031126,-0.062251,9.826104,0.019809,-0.008303,0.57454,1.68,19.02,-10.32,353.9352,0.1539,-0.0908,8983
-0.043097,0.028731,9.675264,0.021642,-0.002805,0.580648,1.68,19.02,-10.32,353.9352,0.1539,-0.0908,8993
-0.055068,0.047885,9.581888,0.014922,0.000249,0.586146,1.92,18.36,-9.9,353.5905,0.2056,-0.1033,9003
-0.081405,0.007183,9.617802,-0.002793,-0.005249,0.592255,1.92,18.36,-9.9,353.5905,0.2056,-0.1033,9013
-0.081405,0.007183,9.617802,-0.01501,-0.014412,0.602028,2.34,18.72,-9.12,353.5905,0.2056,-0.1033,9023
-0.062251,-0.086194,9.778218,-0.01501,-0.014412,0.602028,2.34,18.72,-9.12,353.5905,0.2056,-0.1033,9033
-0.047885,-0.114925,9.862018,-0.020508,-0.012579,0.607526,2.4,18.48,-9.48,353.6267,0.203,-0.0444,9043
0.03352,-0.124502,9.869201,-0.008291,-0.018688,0.610581,2.4,18.48,-9.48,353.6267,0.203,-0.0444,9053
0.102954,-0.055068,9.797373,0.007592,-0.014412,0.614857,1.68,18.24,-9.9,353.6267,0.203,-0.0444,9063
0.102954,-0.055068,9.797373,0.022253,-0.008303,0.615468,1.68,18.24,-9.9,353.6267,0.203,-0.0444,9073
0.112531,-0.01676,9.718362,0.02775,-0.002194,0.615468,2.04,18.48,-10.02,353.6549,0.2493,0.0188,9084
0.110137,0.064645,9.656111,0.021642,0.000249,0.616078,2.04,18.48,-10.02,353.6549,0.2493,0.0188,9093
0.110137,0.064645,9.656111,0.002705,-0.00647,0.617911,2.28,17.94,-10.02,353.6549,0.2493,0.0188,9104
0.093377,0.047885,9.617802,-0.016232,-0.011357,0.610581,2.28,17.94,-10.02,353.6549,0.2493,0.0188,9113
0.057463,-0.004789,9.656111,-0.016232,-0.011357,0.610581,1.8,17.94,-9.42,353.6361,0.2369,-0.0216,9123
0.040703,-0.076617,9.838076,-0.015621,-0.017466,0.611191,1.8,17.94,-9.42,353.6361,0.2369,-0.0216,9133
0.05028,-0.114925,9.917087,-0.004625,-0.016855,0.610581,1.56,18,-9.78,353.6361,0.2369,-0.0216,9143
0.05028,-0.114925,9.917087,0.005148,-0.014412,0.612413,1.56,18,-9.78,353.6361,0.2369,-0.0216,9153
0.052674,-0.088588,9.794978,0.017366,-0.005249,0.619744,2.34,18.24,-9.9,353.575,0.1955,-0.1325,9163
0.05028,-0.064645,9.653716,0.017366,-0.002194,0.622187,2.4,18.36,-9.66,353.575,0.1955,-0.1325,9173
0.081405,-0.026337,9.636956,0.009424,-0.004027,0.623409,2.4,18.36,-9.66,353.575,0.1955,-0.1325,9183
0.081405,-0.026337,9.636956,0.001483,-0.007081,0.622187,2.52,18.78,-9.36,353.575,0.1955,-0.1325,9193
0.057463,0.014366,9.761458,-0.004015,-0.018077,0.624631,2.52,18.78,-9.36,353.575,0.1955,-0.1325,9203
0.090982,0.009577,9.797373,-0.001571,-0.019909,0.624631,2.04,18.72,-9.24,353.8786,0.2004,-0.2186,9213
0.148445,-0.021548,9.727939,0.002705,-0.011968,0.627685,2.04,18.72,-9.24,353.8786,0.2004,-0.2186,9223
0.117319,-0.01676,9.725544,0.002705,-0.011968,0.627685,1.68,18.12,-9.96,353.8786,0.2004,-0.2186,9233
0.079011,-0.035914,9.742304,0.007592,0.001471,0.632572,1.68,18.12,-9.96,353.8786,0.2004,-0.2186,9243
0.079011,-0.035914,9.742304,0.006981,0.002082,0.632572,2.04,18.3,-9.6,353.4817,0.1974,-0.3022,9253
-0.009577,-0.05028,9.780613,0.004538,0.003304,0.63807,2.04,18.3,-9.6,353.4817,0.1974,-0.3022,9263
-0.057463,-0.023943,9.754275,0.002705,-0.001583,0.642346,1.74,18.42,-8.82,353.4817,0.1974,-0.3022,9273
-0.052674,-0.019154,9.72315,0.000872,-0.011968,0.642346,1.74,18.42,-8.82,353.4817,0.1974,-0.3022,9283
0.040703,-0.019154,9.725544,-0.000349,-0.025407,0.640513,1.86,18.72,-9.06,353.8174,0.1811,-0.3512,9293
0.040703,-0.019154,9.725544,0.003316,-0.026629,0.642346,1.86,18.72,-9.06,353.8174,0.1811,-0.3512,9303
0.146051,0.038308,9.780613,0.006981,-0.01319,0.639902,3.06,19.02,-9.48,353.8174,0.1811,-0.3512,9313
0.239427,0.06704,9.759064,0.006981,-0.010746,0.642346,3,18.72,-9.48,353.8174,0.1811,-0.3512,9323
0.239427,0.06704,9.759064,0.006981,-0.010746,0.642346,3,18.72,-9.48,353.8174,0.1811,-0.3512,9333
0.28013,0.055068,9.663293,0.001483,-0.002805,0.635015,2.64,18.12,-9.42,350.3677,0.1708,-0.3208,9343
0.225062,-0.01676,9.641745,-0.010734,0.003914,0.63135,2.64,18.12,-9.42,350.3677,0.1708,-0.3208,9353
0.196331,-0.069434,9.689631,-0.01501,0.003304,0.63135,2.46,18.54,-9.72,350.3677,0.1708,-0.3208,9363
0.079011,-0.138868,9.953,-0.008902,-0.010135,0.618522,2.46,18.54,-9.72,350.3677,0.1708,-0.3208,9374
0.079011,-0.122108,9.921875,0.003927,-0.018688,0.613024,2.76,18.9,-9.78,350.7409,0.1198,-0.5396,9383
0.057463,-0.122108,9.921875,0.023474,-0.015022,0.612413,2.76,18.9,-9.78,350.7409,0.1198,-0.5396,9393
0.06704,-0.011971,9.775824,0.024696,-0.019298,0.611802,2.52,17.88,-9.78,350.7409,0.1198,-0.5396,9403
0.057463,0.057463,9.615408,0.017977,-0.014412,0.611802,2.52,17.88,-9.78,350.7409,0.1198,-0.5396,9413
0.227456,0.119714,9.577099,0.005759,-0.008914,0.611802,3.24,17.64,-9.66,350.2062,0.1497,-0.5889,9423
0.215485,0.055068,9.694419,-0.012567,-0.008303,0.611802,3.24,17.64,-9.66,350.2062,0.1497,-0.5889,9433
0.215485,0.055068,9.694419,-0.018675,-0.003416,0.613024,3.9,17.82,-9.78,350.2062,0.1497,-0.5889,9444
0.220273,-0.06704,9.821315,-0.016843,-0.011968,0.607526,3.9,17.82,-9.78,350.2062,0.1497,-0.5889,9453
0.143657,-0.052674,9.890749,-0.000349,-0.008914,0.606915,3.36,18.06,-9.3,350.211,0.1226,-0.6523,9463
0.193936,-0.023943,9.833286,0.011868,-0.004027,0.597752,3.36,18.06,-9.3,350.211,0.1226,-0.6523,9473
0.177176,0.040703,9.708784,0.011868,-0.004027,0.597752,3.42,18.48,-9.48,350.211,0.1226,-0.6523,9483
0.177176,0.040703,9.708784,0.021031,-0.005859,0.591644,3.42,18.48,-9.48,350.211,0.1226,-0.6523,9493
0.201119,0.004789,9.62259,0.0137,-0.002805,0.583092,3.6,18.54,-9.84,347.7207,0.1314,-0.7498,9503
0.222668,-0.043097,9.75667,-0.002182,-0.007692,0.579426,3.6,18.54,-9.84,347.7207,0.1314,-0.7498,9513
0.24661,-0.052674,9.845258,-0.011956,-0.008914,0.57515,3,18,-9.48,347.7207,0.1314,-0.7498,9523
0.24661,-0.052674,9.845258,-0.013788,-0.009525,0.572096,3,18,-9.48,347.7207,0.1314,-0.7498,9533
0.244216,-0.076617,9.838076,0.000872,-0.007692,0.567209,3.12,17.7,-9.36,350.1152,0.09,-0.856,9543
0.198725,0.011971,9.802161,0.0137,0.00086,0.563544,3.12,17.7,-9.36,350.1152,0.09,-0.856,9554
0.22985,0.074223,9.720756,0.025918,0.001471,0.56049,3.18,17.76,-9.6,350.1152,0.09,-0.856,9563
0.22985,0.074223,9.720756,0.022863,-0.000362,0.553159,3.18,17.76,-9.6,350.1152,0.09,-0.856,9573
0.220273,0.098165,9.632168,0.005148,-0.004638,0.549494,3.54,18.24,-10.02,346.9409,0.1283,-0.9776,9584
0.191542,0.05028,9.627379,-0.010734,-0.010746,0.548272,3.54,18.24,-10.02,346.9409,0.1283,-0.9776,9593
0.148445,0.019154,9.730332,-0.026006,-0.008914,0.543996,3.6,18.24,-9.54,346.9409,0.1283,-0.9776,9603
0.222668,0,9.830893,-0.021119,-0.015022,0.538498,3.6,18.24,-9.54,346.9409,0.1283,-0.9776,9613
0.222668,0,9.830893,-0.005236,-0.008914,0.53239,3.54,17.76,-9.36,346.97,0.0526,-1.0461,9623
0.225062,-0.052674,9.888355,0.010646,-0.000972,0.531779,3.54,17.76,-9.36,346.97,0.0526,-1.0461,9633
0.189148,-0.055068,9.785401,0.010646,-0.000972,0.531779,3.72,17.76,-9.84,346.97,0.0526,-1.0461,9643
0.201119,0.021548,9.72315,0.022863,-0.000362,0.52567,3.72,17.76,-9.84,346.97,0.0526,-1.0461,9653
0.237033,0.0838,9.675264,0.021031,-0.001583,0.520783,3.84,17.88,-10.08,346.8848,0.0603,-1.1006,9663
0.237033,0.0838,9.675264,0.003316,-0.008914,0.515897,3.84,17.88,-10.08,346.8848,0.0603,-1.1006,9673
0.234639,0.057463,9.689631,-0.010734,-0.010135,0.507344,4.14,18,-9.78,346.8848,0.0603,-1.1006,9683
0.270553,0.071828,9.751882,-0.01501,-0.01319,0.501847,4.14,18,-9.78,346.8848,0.0603,-1.1006,9693
0.241822,0.047885,9.778218,-0.007069,-0.00647,0.499403,4.2,17.4,-8.88,346.1865,0.0256,-1.1439,9703
0.241822,0.047885,9.778218,0.002094,0.004525,0.49696,4.56,17.28,-9.42,346.1865,0.0256,-1.1439,9713
0.256187,-0.014366,9.780613,0.008814,0.005747,0.490851,4.56,17.28,-9.42,346.1865,0.0256,-1.1439,9723
0.172388,-0.074223,9.809344,0.008814,0.005747,0.490851,4.5,17.4,-9.48,346.1865,0.0256,-1.1439,9733
0.129291,-0.05028,9.830893,0.00637,0.003914,0.491462,4.62,17.52,-9.84,343.8396,-0.0206,-1.2504,9743
0.095771,-0.028731,9.787795,0.005759,0.00086,0.495738,4.62,17.52,-9.84,343.8396,-0.0206,-1.2504,9753
0.095771,-0.028731,9.787795,0.003927,-0.001583,0.500625,4.32,17.22,-9.78,343.8396,-0.0206,-1.2504,9763
0.023943,-0.023943,9.735122,0.002705,-0.002805,0.503068,4.32,17.22,-9.78,343.8396,-0.0206,-1.2504,9773
0.004789,-0.009577,9.720756,0.006981,-0.004638,0.50429,4.14,17.22,-10.68,346.0074,-0.0086,-1.2376,9783
0.023943,0.052674,9.744699,0.0137,-0.005859,0.509788,4.32,17.28,-10.92,346.0074,-0.0086,-1.2376,9793
0.071828,0.031126,9.749487,0.011257,-0.007081,0.507344,4.32,17.28,-10.92,346.0074,-0.0086,-1.2376,9804
0.071828,0.031126,9.749487,0.005148,-0.012579,0.510399,4.2,18.18,-10.62,346.0074,-0.0086,-1.2376,9813
0.114925,0.052674,9.694419,-0.002182,-0.012579,0.509788,4.2,18.18,-10.62,346.0074,-0.0086,-1.2376,9823
0.165205,0.05028,9.684841,-0.002182,-0.012579,0.509788,3.72,18.24,-9.96,346.9115,0.0222,-1.0585,9833
0.208302,0.043097,9.72315,-0.00768,-0.011968,0.514675,3.72,18.24,-9.96,346.9115,0.0222,-1.0585,9843
0.205908,0.009577,9.785401,-0.00768,-0.00647,0.513453,3.9,17.7,-9.72,346.9115,0.0222,-1.0585,9853
0.205908,0.009577,9.785401,-0.005236,-0.004638,0.512842,4.56,17.22,-9.54,346.9115,0.0222,-1.0585,9863
0.205908,-0.011971,9.785401,0.000261,-0.000972,0.514064,4.56,17.22,-9.54,346.9115,0.0222,-1.0585,9873
0.172388,0,9.809344,0.004538,0.001471,0.516507,4.74,17.16,-10.08,343.1085,-0.01,-0.9365,9884
0.124502,-0.021548,9.797373,0.00637,0.002082,0.520783,4.74,17.16,-10.08,343.1085,-0.01,-0.9365,9893
0.124502,-0.021548,9.797373,0.003927,-0.001583,0.523838,4.56,17.7,-10.44,343.1085,-0.01,-0.9365,9903
0.0838,0.019154,9.708784,0.000261,-0.002805,0.530557,4.56,17.7,-10.44,343.1085,-0.01,-0.9365,9913
0.019154,0.028731,9.708784,0.000261,0.003914,0.536055,4.56,17.88,-10.02,343.9976,-0.0209,-0.9395,9924
-0.028731,-0.021548,9.703996,0.000261,0.003914,0.536055,4.56,17.88,-10.02,343.9976,-0.0209,-0.9395,9933
-0.028731,-0.021548,9.703996,-0.00096,0.000249,0.54644,4.26,17.4,-10.2,343.9976,-0.0209,-0.9395,9943
-0.038308,-0.031126,9.763853,-0.00096,-0.003416,0.551938,4.26,17.4,-10.2,343.9976,-0.0209,-0.9395,9953
-0.01676,0,9.80695,-0.000349,-0.008303,0.556824,4.38,17.58,-9.9,347.0143,-0.0232,-0.8726,9963
0.040703,0.007183,9.737515,0.003316,-0.011357,0.565377,4.38,17.58,-9.9,347.0143,-0.0232,-0.8726,9973
0.105348,0.004789,9.701602,0.003927,-0.015633,0.567209,4.8,17.76,-9.84,347.0143,-0.0232,-0.8726,9983
0.105348,0.004789,9.701602,0.003927,-0.015022,0.570874,4.8,17.76,-9.84,347.0143,-0.0232,-0.8726,9993
0.138868,-0.014366,9.711179,-0.000349,-0.007692,0.576983,4.86,17.52,-10.2,344.1167,-0.004,-0.7009,10003
0.141262,0.007183,9.794978,-0.003404,-0.004638,0.580037,4.86,17.52,-10.2,344.1167,-0.004,-0.7009,10013
0.143657,-0.038308,9.77343,-0.001571,-0.009525,0.581259,4.44,18.24,-10.02,344.1167,-0.004,-0.7009,10024
0.143657,-0.038308,9.77343,0.002705,-0.000362,0.584313,4.44,18.24,-10.02,344.1167,-0.004,-0.7009,10033
0.146051,-0.035914,9.701602,0.000872,-0.002194,0.586146,3.9,17.94,-9.6,347.1405,0.0104,-0.6244,10043
0.146051,-0.035914,9.701602,0.000872,-0.002194,0.586146,3.9,17.94,-9.6,347.1405,0.0104,-0.6244,10053
0.153234,0.023943,9.775824,0.002705,-0.005859,0.584313,4.14,17.04,-9.6,347.1405,0.0104,-0.6244,10063
0.162811,0.01676,9.735122,0.003316,-0.001583,0.586146,4.14,17.04,-9.6,347.1405,0.0104,-0.6244,10074
0.119714,0.040703,9.708784,0.000261,-0.00647,0.592255,4.26,17.7,-9.96,347.12,0.0393,-0.6568,10083
0.143657,-0.007183,9.715967,-0.002182,-0.000972,0.594698,4.26,17.7,-9.96,347.12,0.0393,-0.6568,10093
0.143657,-0.007183,9.715967,-0.005847,0.00086,0.592865,4.14,17.94,-9.84,347.12,0.0393,-0.6568,10103
0.093377,-0.004789,9.742304,-0.001571,0.006358,0.595309,4.14,17.94,-9.84,347.12,0.0393,-0.6568,10113
0.102954,-0.055068,9.751882,-0.00096,0.004525,0.59592,4.2,17.58,-9.72,347.0887,0.0424,-0.7158,10123
0.102954,-0.055068,9.751882,0.002094,-0.00647,0.591644,4.2,17.58,-9.72,347.0887,0.0424,-0.7158,10133
0.141262,-0.098165,9.792584,0.002705,-0.012579,0.588589,4.26,17.34,-9.18,347.0887,0.0424,-0.7158,10143
0.203513,-0.074223,9.811738,0.003316,-0.017466,0.584313,4.26,17.34,-9.18,347.0887,0.0424,-0.7158,10153
0.203513,-0.074223,9.811738,0.008814,-0.021131,0.586146,4.5,16.98,-9.48,343.2452,0.0594,-0.736,10163
0.256187,-0.043097,9.797373,0.012479,-0.009525,0.586146,4.5,16.98,-9.48,343.2452,0.0594,-0.736,10173
0.272947,0.026337,9.725544,0.014311,0.002693,0.587368,4.92,17.34,-10.8,343.2452,0.0594,-0.736,10183
0.225062,0.119714,9.668081,0.015533,0.006358,0.591644,4.92,17.34,-10.8,343.2452,0.0594,-0.736,10193
0.225062,0.119714,9.668081,0.011257,0.008801,0.592865,4.86,17.1,-10.68,343.1028,0.1235,-0.8202,10203
0.165205,0.148445,9.63935,0.002705,0.003914,0.593476,4.86,17.1,-10.68,343.1028,0.1235,-0.8202,10213
0.079011,0.088588,9.603436,-0.008291,-0.000972,0.592255,4.62,17.22,-9.66,343.1028,0.1235,-0.8202,10223
0.114925,-0.011971,9.668081,-0.02173,-0.013801,0.591644,4.62,17.22,-9.66,343.1028,0.1235,-0.8202,10233
0.114925,-0.011971,9.668081,-0.024173,-0.016244,0.584924,5.04,17.7,-9.3,344.0425,0.0729,-0.9191,10243
0.169994,-0.069434,9.778218,-0.024173,-0.016244,0.584924,5.04,17.7,-9.3,344.0425,0.0729,-0.9191,10253
0.256187,-0.05028,9.878778,-0.016843,-0.016244,0.579426,5.34,16.86,-10.26,344.0425,0.0729,-0.9191,10264
0.366324,-0.143656,9.850046,-0.00096,-0.019298,0.573929,5.34,16.86,-10.26,344.0425,0.0729,-0.9191,10273
0.442941,-0.052674,9.802161,0.008814,-0.011357,0.564155,5.16,16.56,-10.5,343.0629,0.0505,-1.0035,10283
0.442941,-0.052674,9.802161,0.017977,-0.007081,0.554381,5.16,16.56,-10.5,343.0629,0.0505,-1.0035,10294
0.426181,-0.014366,9.703996,0.012479,-0.005249,0.539109,5.52,16.56,-9.54,343.0629,0.0505,-1.0035,10303
0.450124,0.081405,9.694419,0.007592,-0.005859,0.528114,5.52,16.56,-9.54,343.0629,0.0505,-1.0035,10313
0.450124,0.081405,9.694419,0.004538,0.002082,0.516507,5.16,16.98,-9,343.0669,0.0683,-1.1042,10323
0.402238,0.045491,9.749487,0.001483,0.000249,0.504901,5.16,16.98,-9,343.0669,0.0683,-1.1042,10333
0.354353,0.081405,9.715967,0.003927,-0.008303,0.495738,4.26,17.52,-9.18,343.0669,0.0683,-1.1042,10343
0.359141,0.0838,9.692024,0.005759,-0.010746,0.488408,4.26,17.52,-9.18,343.0669,0.0683,-1.1042,10353
0.282524,0.079011,9.636956,0.003927,0.003304,0.481688,4.74,17.34,-9.6,342.851,0.0758,-1.3939,10363
0.282524,0.079011,9.636956,-0.002182,0.006969,0.47619,4.74,17.34,-9.6,342.851,0.0758,-1.3939,10373
0.258582,0.062251,9.684841,-0.009512,-0.004638,0.471303,4.98,16.98,-10.08,342.851,0.0758,-1.3939,10383
0.256187,0.035914,9.737515,-0.011345,-0.007081,0.470692,4.98,16.98,-10.08,342.851,0.0758,-1.3939,10393
0.184359,-0.026337,9.771035,-0.012567,0.006969,0.465806,4.98,16.92,-10.56,342.7337,0.0785,-1.4636,10403
0.126897,-0.069434,9.737515,-0.008902,0.001471,0.468249,4.98,16.92,-10.56,342.7337,0.0785,-1.4636,10413
0.126897,-0.069434,9.737515,0.000261,-0.011357,0.46214,5.4,17.16,-9.96,342.7337,0.0785,-1.4636,10423
0.143657,-0.093377,9.873989,0.008814,-0.008914,0.462751,5.4,17.16,-9.96,342.7337,0.0785,-1.4636,10433
0.134079,-0.086194,9.854836,0.018587,-0.002194,0.460308,5.58,17.46,-9.24,339.8591,0.1303,-1.4609,10443
0.131685,0.026337,9.677659,0.02042,-0.011357,0.457864,5.58,17.46,-9.24,339.8591,0.1303,-1.4609,10453
0.215485,0.059857,9.61062,0.014311,-0.022964,0.460308,5.52,17.04,-9.9,339.8591,0.1303,-1.4609,10463
0.215485,0.059857,9.61062,0.001483,-0.016855,0.455421,5.52,17.04,-9.9,339.8591,0.1303,-1.4609,10473
0.225062,0.088588,9.692024,-0.004625,-0.009525,0.454199,5.58,16.38,-10.26,338.6185,0.1358,-1.4738,10483
0.33041,0.0838,9.715967,-0.005236,-0.02052,0.454199,5.58,16.38,-10.26,338.6185,0.1358,-1.4738,10493
0.395055,0.0838,9.75667,-0.005236,-0.02052,0.454199,5.58,16.02,-9.6,338.6185,0.1358,-1.4738,10503
0.426181,0.014366,9.72315,-0.004625,-0.016244,0.44809,5.16,16.38,-9.66,338.6185,0.1358,-1.4738,10513
0.426181,0.014366,9.72315,-0.00096,0.001471,0.443203,5.16,16.38,-9.66,338.6185,0.1358,-1.4738,10523
0.423787,0.023943,9.725544,0.000261,0.00086,0.436484,5.16,16.5,-10.68,342.7173,0.087,-1.489,10533
0.354353,0.023943,9.794978,-0.000349,0.003304,0.435262,5.16,16.5,-10.68,342.7173,0.087,-1.489,10543
0.222668,-0.057463,9.771035,-0.001571,0.012467,0.430986,5.52,16.38,-10.26,342.7173,0.087,-1.489,10553
0.222668,-0.057463,9.771035,-0.00096,0.013077,0.430986,5.82,17.04,-10.02,342.7173,0.087,-1.489,10565
0.141262,-0.026337,9.711179,-0.00096,0.00086,0.435262,5.82,17.04,-10.02,342.7173,0.087,-1.489,10573
0.045491,-0.014366,9.732727,0.002094,0.00758,0.443814,5.64,16.68,-10.02,339.7257,0.0049,-1.6154,10583
-0.01676,-0.03352,9.759064,0.002094,0.00758,0.443814,5.64,16.68,-10.02,339.7257,0.0049,-1.6154,10594
-0.01676,-0.03352,9.759064,0.006981,-0.000362,0.449312,5.64,15.96,-10.14,339.7257,0.0049,-1.6154,10603
-0.028731,-0.043097,9.751882,0.008203,-0.008303,0.456643,5.64,15.96,-10.14,339.7257,0.0049,-1.6154,10613
0.057463,0.023943,9.675264,0.00637,-0.005859,0.463362,5.04,15.54,-9.66,341.7678,0.0152,-1.5557,10623
0.057463,0.023943,9.675264,-0.000349,-0.010135,0.467638,5.04,15.54,-9.66,341.7678,0.0152,-1.5557,10633
0.162811,0.052674,9.658504,0.000261,-0.015633,0.466416,5.22,16.08,-9.6,341.7678,0.0152,-1.5557,10643
0.272947,0.002394,9.768641,-0.005236,-0.018688,0.46886,5.22,16.08,-9.6,341.7678,0.0152,-1.5557,10653
0.272947,0.002394,9.768641,-0.004015,-0.009525,0.470692,5.52,16.68,-9.72,339.8795,0.0307,-1.3044,10663
0.29689,0,9.749487,0.000261,-0.005249,0.473747,5.52,16.68,-9.72,339.8795,0.0307,-1.3044,10673
0.299284,-0.002394,9.727939,0.003316,-0.000362,0.470692,5.76,16.62,-10.14,339.8795,0.0307,-1.3044,10683
0.28013,-0.009577,9.75667,0.001483,0.003304,0.470692,5.76,16.62,-10.14,339.8795,0.0307,-1.3044,10693
0.241822,-0.011971,9.737515,0.005148,0.002693,0.471303,5.34,16.38,-10.44,341.9714,0.0147,-1.1908,10703
0.241822,-0.011971,9.737515,0.004538,0.00086,0.471914,5.34,16.38,-10.44,341.9714,0.0147,-1.1908,10713
0.155628,-0.031126,9.749487,0.004538,0.00086,0.471914,5.7,16.32,-9.9,341.9714,0.0147,-1.1908,10723
0.114925,0.009577,9.715967,0.003316,-0.001583,0.475579,5.7,16.32,-9.9,341.9714,0.0147,-1.1908,10733
0.095771,0.002394,9.708784,0.002705,-0.008303,0.477412,6.72,16.08,-9.66,335.736,0.0125,-1.2193,10743
0.079011,0.002394,9.694419,0.003316,-0.008303,0.484131,6.72,16.08,-9.66,335.736,0.0125,-1.2193,10753
0.079011,0.002394,9.694419,-0.001571,-0.004027,0.492073,6.72,15.9,-9.84,335.736,0.0125,-1.2193,10763
0.059857,-0.009577,9.696813,0.004538,-0.000972,0.509788,6.72,15.9,-9.84,335.736,0.0125,-1.2193,10773
0.055068,-0.038308,9.701602,-0.000349,-0.004027,0.514675,6.54,15.96,-10.02,335.7511,0.0211,-1.1859,10783
0.035914,-0.040703,9.783007,0.000872,-0.000362,0.52567,6.54,15.96,-10.02,335.7511,0.0211,-1.1859,10793
0.035914,-0.040703,9.783007,-0.00096,0.000249,0.538498,6.18,15.54,-10.14,335.7511,0.0211,-1.1859,10803
0,-0.05028,9.742304,0.000872,-0.003416,0.545218,6.18,15.54,-10.14,335.7511,0.0211,-1.1859,10813
-0.004789,-0.019154,9.694419,0.000872,-0.003416,0.545218,5.94,15.84,-10.44,338.9222,0.0557,-0.9388,10823
0.035914,-0.011971,9.727939,0.003927,-0.012579,0.556824,5.94,15.84,-10.44,338.9222,0.0557,-0.9388,10833
0.035914,-0.011971,9.727939,0.003927,-0.011968,0.567209,6.18,16.26,-10.62,338.9222,0.0557,-0.9388,10843
0.131685,-0.031126,9.708784,0.003316,-0.015633,0.573929,6.18,16.26,-10.62,338.9222,0.0557,-0.9388,10853
0.191542,-0.052674,9.72315,0.000872,-0.014412,0.582481,6.66,16.32,-11.04,335.8721,0.0747,-0.8381,10863
0.215485,-0.026337,9.754275,-0.002182,-0.007081,0.583092,6.66,16.32,-11.04,335.8721,0.0747,-0.8381,10873
0.24661,-0.047885,9.735122,0.000872,-0.000972,0.589811,6.48,15.96,-10.38,335.8721,0.0747,-0.8381,10883
0.24661,-0.047885,9.735122,0.003316,-0.002805,0.593476,6.48,15.96,-10.38,335.8721,0.0747,-0.8381,10893
0.21309,-0.035914,9.744699,0.00637,0.000249,0.594698,5.7,15.48,-9.6,337.6849,0.0903,-0.8642,10903
0.172388,-0.011971,9.735122,0.005148,0.004525,0.598363,5.7,15.48,-9.6,337.6849,0.0903,-0.8642,10913
0.172388,-0.011971,9.735122,0.005148,0.004525,0.598363,5.88,15.12,-9.96,337.6849,0.0903,-0.8642,10923
0.148445,-0.004789,9.711179,0.005759,-0.008303,0.603861,5.88,15.12,-9.96,337.6849,0.0903,-0.8642,10933
0.136474,-0.014366,9.677659,-0.000349,-0.003416,0.606915,6.42,15.12,-9.9,337.6842,0.1007,-0.8613,10943
0.126897,-0.047885,9.699207,-0.004625,0.000249,0.611191,6.42,15.12,-9.9,337.6842,0.1007,-0.8613,10953
0.10056,-0.076617,9.75667,-0.006458,-0.002194,0.617911,6.36,15.06,-10.38,337.6842,0.1007,-0.8613,10965
0.10056,-0.076617,9.75667,-0.00096,-0.008303,0.625241,6.36,15.06,-10.38,337.6842,0.1007,-0.8613,10974
0.112531,-0.095771,9.823709,0.003927,-0.007692,0.631961,6.6,15,-10.32,334.4816,0.12,-0.8677,10983
0.134079,-0.071828,9.737515,0.012479,-0.005249,0.633183,6.6,15,-10.32,334.4816,0.12,-0.8677,10993
0.196331,-0.031126,9.694419,0.011257,-0.014412,0.637459,6.42,14.88,-9.72,334.4816,0.12,-0.8677,11004
0.268159,-0.035914,9.670476,0.006981,-0.011968,0.639902,6.72,15.24,-10.32,334.4729,0.1763,-0.8568,11013
0.268159,-0.035914,9.670476,0.006981,-0.011968,0.639902,6.72,15.24,-10.32,334.4729,0.1763,-0.8568,11023
0.33041,-0.03352,9.692024,0.000872,-0.012579,0.639902,6.48,15.48,-10.44,334.4729,0.1763,-0.8568,11033
0.359141,-0.0838,9.735122,-0.004625,-0.009525,0.641735,6.48,15.48,-10.44,334.4729,0.1763,-0.8568,11043
0.359141,-0.0838,9.735122,0.000261,-0.002805,0.639902,6.78,15.3,-10.8,334.4729,0.1763,-0.8568,11053
0.316044,-0.0838,9.833286,0.003927,0.000249,0.636848,6.72,15.12,-10.32,334.4075,0.2289,-0.9534,11063
0.320833,0.011971,9.828498,0.003927,0.000249,0.636848,6.72,15.12,-10.32,334.4075,0.2289,-0.9534,11073
0.258582,0.10056,9.641745,0.019809,0.005136,0.63807,7.14,14.76,-9.96,334.4075,0.2289,-0.9534,11083
0.270553,0.112531,9.483723,0.011868,0.001471,0.625852,7.14,14.76,-9.96,334.4075,0.2289,-0.9534,11093
0.270553,0.112531,9.483723,-0.004015,-0.008914,0.618522,7.14,14.64,-10.02,334.4075,0.2289,-0.9534,11103
0.328016,-0.009577,9.574705,-0.017454,-0.011357,0.613635,7.14,14.64,-10.02,334.4075,0.2289,-0.9534,11113
0.287313,-0.138868,9.912297,-0.027227,-0.010135,0.60997,6.96,14.7,-9.6,334.2962,0.2179,-1.1665,11123
0.299284,-0.172388,9.991309,-0.016843,-0.009525,0.611191,6.96,14.7,-9.6,334.2962,0.2179,-1.1665,11133
0.325621,-0.124502,9.840469,0.000261,-0.011357,0.611802,6.72,14.94,-9.42,334.2962,0.2179,-1.1665,11143
0.325621,-0.124502,9.840469,0.02714,-0.000362,0.60325,6.72,14.94,-9.42,334.2962,0.2179,-1.1665,11153
0.301679,0,9.680053,0.03447,0.009412,0.604472,6.84,15,-9.18,334.2828,0.2141,-1.3404,11164
0.249005,0.090982,9.577099,0.030194,0.002693,0.598974,6.84,15,-9.18,334.2828,0.2141,-1.3404,11174
0.332804,0.095771,9.601042,0.010646,-0.018077,0.586146,6.36,14.82,-8.82,334.2828,0.2141,-1.3404,11183
0.351958,0.064645,9.632168,-0.012567,-0.016855,0.579426,6.36,14.82,-8.82,334.2828,0.2141,-1.3404,11194
0.351958,0.064645,9.632168,-0.032114,-0.01319,0.572707,6.66,14.88,-9.78,334.1392,0.2252,-1.4579,11203
0.390267,-0.03352,9.72315,-0.027227,-0.02724,0.567209,6.66,14.88,-9.78,334.1392,0.2252,-1.4579,11213
0.459701,-0.079011,9.811738,-0.011345,-0.023575,0.56049,7.32,14.82,-10.74,334.1392,0.2252,-1.4579,11223
0.466884,-0.038308,9.888355,0.009424,0.003304,0.553159,7.32,14.82,-10.74,334.1392,0.2252,-1.4579,11234
0.466884,-0.038308,9.888355,0.009424,0.003304,0.553159,7.02,14.64,-9.96,334.0742,0.1881,-1.5988,11243
0.399844,-0.014366,9.725544,0.025307,0.021019,0.548272,7.02,14.64,-9.96,334.0742,0.1881,-1.5988,11253
0.351958,0.007183,9.60583,0.021642,0.00819,0.544607,7.02,14.58,-9.78,334.0742,0.1881,-1.5988,11263
0.299284,-0.038308,9.668081,-0.002182,-0.000972,0.533001,7.02,14.58,-9.78,334.0742,0.1881,-1.5988,11273
0.268159,-0.076617,9.763853,-0.021119,-0.005249,0.526281,7.02,15.12,-10.5,333.9723,0.1867,-1.7925,11283
0.268159,-0.076617,9.763853,-0.022951,-0.021131,0.517118,7.02,15.12,-10.5,333.9723,0.1867,-1.7925,11293
0.318439,-0.062251,9.864412,-0.003404,-0.030905,0.51101,6.24,15.18,-9.42,333.9723,0.1867,-1.7925,11304
0.387873,-0.009577,9.842864,0.01309,-0.01319,0.507344,6.24,15.18,-9.42,333.9723,0.1867,-1.7925,11314
0.428575,0.064645,9.63935,0.024085,0.000249,0.504901,6.06,14.28,-9.06,335.7336,0.2094,-1.9114,11325
0.428575,0.064645,9.63935,0.026529,0.002693,0.503068,6.06,14.28,-9.06,335.7336,0.2094,-1.9114,11333
0.402238,0.10056,9.548368,0.007592,0.003914,0.495738,6.06,14.22,-10.08,335.7336,0.2094,-1.9114,11343
0.342381,0.045491,9.648928,-0.016232,0.008801,0.495127,6.66,14.28,-10.5,335.7336,0.2094,-1.9114,11353
0.277736,-0.040703,9.70639,-0.030282,-0.005859,0.489629,6.66,14.28,-10.5,335.7336,0.2094,-1.9114,11363
0.239427,-0.107742,9.833286,-0.026617,-0.011968,0.485353,7.26,14.58,-10.14,333.8883,0.2253,-1.9332,11373
0.239427,-0.107742,9.833286,-0.026617,-0.011968,0.485353,7.26,14.58,-10.14,333.8883,0.2253,-1.9332,11383
0.227456,-0.105348,9.869201,-0.006458,-0.007081,0.481688,7.2,14.16,-10.02,333.8883,0.2253,-1.9332,11393
0.251399,-0.03352,9.797373,0.018587,-0.005249,0.482299,7.2,14.16,-10.02,333.8883,0.2253,-1.9332,11403
0.256187,0.026337,9.711179,0.033248,-0.007692,0.483521,6.9,14.16,-10.08,332.2723,0.2864,-1.9316,11413
0.256187,0.026337,9.711179,0.030194,0.00086,0.480466,6.9,14.46,-10.14,332.2723,0.2864,-1.9316,11423
0.256187,0.055068,9.567522,0.008203,0.00086,0.484742,6.9,14.46,-10.14,332.2723,0.2864,-1.9316,11433
0.275342,0.021548,9.569917,-0.016843,-0.009525,0.483521,7.26,14.4,-10.38,332.2723,0.2864,-1.9316,11443
0.294496,-0.062251,9.797373,-0.031504,-0.012579,0.479245,7.26,14.4,-10.38,332.2723,0.2864,-1.9316,11453
0.294496,-0.062251,9.797373,-0.024784,-0.007692,0.481688,7.92,14.34,-10.14,329.2149,0.2229,-1.8468,11463
0.29689,-0.105348,9.878778,-0.000349,-0.007081,0.480466,7.92,14.34,-10.14,329.2149,0.2229,-1.8468,11474
0.311256,-0.112531,9.842864,0.019198,-0.00647,0.476801,7.98,13.98,-9.36,329.2149,0.2229,-1.8468,11484
0.33041,-0.064645,9.763853,0.02775,0.004525,0.475579,7.98,13.98,-9.36,329.2149,0.2229,-1.8468,11493
0.33041,-0.064645,9.763853,0.02775,0.004525,0.475579,7.86,13.92,-9.18,329.3341,0.2456,-1.8018,11503
0.328016,-0.038308,9.677659,0.023474,0.003914,0.471914,7.86,13.92,-9.18,329.3341,0.2456,-1.8018,11513
0.320833,-0.002394,9.646533,0.007592,-0.002805,0.471303,8.4,14.16,-9.96,329.3341,0.2456,-1.8018,11523
0.287313,0.004789,9.668081,-0.00768,-0.000972,0.470082,8.4,14.16,-9.96,329.3341,0.2456,-1.8018,11533
0.268159,-0.021548,9.754275,-0.01501,-0.000972,0.468249,8.28,14.4,-9.84,329.2356,0.2533,-1.7882,11543
0.268159,-0.021548,9.754275,-0.006458,-0.002805,0.470082,8.28,14.4,-9.84,329.2356,0.2533,-1.7882,11553
0.234639,-0.035914,9.751882,0.003927,-0.002194,0.471914,7.74,14.82,-9.6,329.2356,0.2533,-1.7882,11563
0.177176,-0.052674,9.725544,0.014311,0.005136,0.474969,7.74,14.82,-9.6,329.2356,0.2533,-1.7882,11574
0.143657,-0.031126,9.711179,0.014922,0.003304,0.476801,7.74,14.4,-9.96,329.2283,0.2762,-1.7887,11583
0.143657,-0.031126,9.711179,0.008814,-0.00647,0.481688,7.74,14.4,-9.96,329.2283,0.2762,-1.7887,11593
0.131685,-0.03352,9.70639,-0.000349,-0.008303,0.485353,7.68,13.74,-10.38,329.2283,0.2762,-1.7887,11603
0.155628,-0.03352,9.692024,-0.004015,-0.011968,0.492684,7.68,13.74,-10.38,329.2283,0.2762,-1.7887,11613
0.184359,-0.021548,9.692024,-0.005847,-0.008914,0.498792,7.5,13.98,-10.62,329.1851,0.2513,-1.6978,11624
0.184359,-0.021548,9.692024,-0.003404,-0.014412,0.498792,7.5,13.98,-10.62,329.1851,0.2513,-1.6978,11633
0.22985,-0.028731,9.751882,0.002705,-0.004638,0.502457,7.32,13.56,-9.9,329.1851,0.2513,-1.6978,11643
0.28013,-0.057463,9.778218,0.00637,-0.002805,0.506123,7.32,13.56,-9.9,329.1851,0.2513,-1.6978,11653
0.282524,-0.038308,9.747093,0.003927,-0.00647,0.507955,7.2,13.2,-9.6,330.7057,0.2664,-1.5497,11663
0.275342,-0.055068,9.684841,0.003927,-0.00647,0.507955,7.2,13.2,-9.6,330.7057,0.2664,-1.5497,11673
0.275342,-0.055068,9.684841,0.000872,-0.003416,0.507344,6.78,13.5,-10.38,330.7057,0.2664,-1.5497,11684
0.282524,-0.019154,9.696813,-0.005236,-0.007692,0.506733,6.78,13.5,-10.38,330.7057,0.2664,-1.5497,11693
0.227456,-0.03352,9.73991,-0.002793,-0.005249,0.50429,6.84,13.02,-10.62,330.6627,0.2546,-1.4669,11703
0.217879,-0.064645,9.737515,-0.001571,-0.008914,0.50429,6.84,13.02,-10.62,330.6627,0.2546,-1.4669,11713
0.217879,-0.064645,9.737515,0.003927,-0.013801,0.508566,7.26,12.9,-9.48,330.6627,0.2546,-1.4669,11723
0.181965,-0.119714,9.703996,0.003927,-0.012579,0.508566,7.26,12.9,-9.48,330.6627,0.2546,-1.4669,11733
0.184359,-0.150839,9.759064,-0.000349,-0.012579,0.510399,7.86,13.44,-9.06,327.5907,0.261,-1.4651,11743
0.328016,-0.126897,9.809344,0.007592,-0.016244,0.515897,7.86,13.44,-9.06,327.5907,0.261,-1.4651,11753
0.328016,-0.126897,9.809344,0.009424,-0.013801,0.514064,7.74,12.96,-9.36,327.5907,0.261,-1.4651,11763
0.445335,-0.011971,9.763853,0.016144,-0.01319,0.502457,7.74,12.96,-9.36,327.5907,0.261,-1.4651,11773
0.507586,0.06704,9.668081,0.017977,-0.011968,0.497571,7.08,12.66,-9.06,330.8477,0.3173,-1.4397,11783
0.507586,0.06704,9.668081,0.017977,-0.011968,0.497571,7.08,12.66,-9.06,330.8477,0.3173,-1.4397,11793
0.512375,0.129291,9.538791,0.010035,-0.003416,0.485964,7.38,12.9,-9.18,330.8477,0.3173,-1.4397,11803
0.426181,0.05028,9.58907,-0.009512,0.00086,0.48291,7.38,12.9,-9.18,330.8477,0.3173,-1.4397,11813
0.287313,-0.069434,9.780613,-0.018675,0.010023,0.482299,7.62,13.02,-9.54,327.4227,0.3181,-1.5747,11823
0.253793,-0.131685,9.876384,-0.019286,0.001471,0.482299,7.62,13.02,-9.54,327.4227,0.3181,-1.5747,11833
0.148445,-0.146051,9.864412,-0.010734,-0.002805,0.481077,7.44,13.14,-9.18,327.4227,0.3181,-1.5747,11843
0.148445,-0.146051,9.864412,0.007592,-0.009525,0.481077,7.44,13.14,-9.18,327.4227,0.3181,-1.5747,11853
0.126897,-0.122108,9.687236,0.02042,-0.015022,0.486575,7.74,13.2,-9.3,327.439,0.266,-1.7779,11863
0.153234,-0.107742,9.648928,0.019198,-0.015022,0.488408,7.74,13.2,-9.3,327.439,0.266,-1.7779,11873
0.22985,-0.069434,9.708784,0.007592,-0.015022,0.493294,7.74,12.96,-10.02,327.439,0.266,-1.7779,11883
0.22985,-0.069434,9.708784,-0.002182,-0.016244,0.498181,7.74,12.96,-10.02,327.439,0.266,-1.7779,11893
