ACCELEROMETER X (m/s²),ACCELEROMETER Y (m/s²),ACCELEROMETER Z (m/s²),GYROSCOPE X (rad/s),GYROSCOPE Y (rad/s),GYROSCOPE Z (rad/s),MAGNETIC FIELD X (μT),MAGNETIC FIELD Y (μT),MAGNETIC FIELD Z (μT),ORIENTATION Z (azimuth °),ORIENTATION X (pitch °),ORIENTATION Y (roll °),Time since start in ms 
0.021548,-0.019154,9.826104,-0.158788,0.069481,0.2753,8.16,1.98,-44.34,278.9923,0.7548,0.0338,23
0.021548,-0.019154,9.826104,-0.102589,0.079866,0.267359,8.16,1.98,-44.34,278.9923,0.7548,0.0338,33
0.337593,0.055068,9.663293,-0.072656,0.076201,0.208105,8.1,2.04,-44.22,277.2297,1.3024,0.1635,42
0.318439,-0.062251,9.282603,-0.072656,0.04749,0.096928,8.1,2.04,-44.22,277.2297,1.3024,0.1635,53
0.110137,-0.588992,9.253872,-0.105032,-0.005045,0.001633,8.28,1.74,-44.16,277.2297,1.3024,0.1635,63
0.146051,-0.885882,9.387952,-0.154512,-0.033144,-0.062508,8.28,1.74,-44.16,277.2297,1.3024,0.1635,73
0.146051,-0.885882,9.387952,-0.208268,-0.044751,-0.115653,8.28,1.74,-44.16,277.2297,1.3024,0.1635,83
0.272947,-0.797293,9.490906,-0.238201,-0.05147,-0.171242,8.28,1.62,-44.1,276.2118,1.5016,0.3055,93
0.019154,-0.390267,9.747093,-0.246142,-0.041696,-0.246989,7.68,2.28,-44.52,276.2118,1.5016,0.3055,102
-0.373507,-0.014366,9.627379,-0.226594,-0.025203,-0.250655,7.68,2.28,-44.52,276.2118,1.5016,0.3055,113
-0.682368,-0.028731,9.526819,-0.20949,-0.024592,-0.193844,7.92,2.88,-44.88,280.4408,1.9766,0.2005,122
-0.682368,-0.028731,9.526819,-0.210712,-0.00199,-0.064341,7.92,2.88,-44.88,280.4408,1.9766,0.2005,133
-0.725465,-0.299284,9.330489,-0.242477,0.005951,0.051724,8.76,3.54,-44.88,280.4408,1.9766,0.2005,143
-0.356747,-0.588992,9.105427,-0.30112,-0.000158,0.129915,8.76,3.54,-44.88,280.4408,1.9766,0.2005,153
-0.090982,-1.242629,9.067119,-0.377478,-0.028257,0.14763,8.28,3.72,-43.92,284.853,2.4808,0.1513,163
0.052674,-1.352765,9.328094,-0.455669,-0.053914,0.137856,8.28,3.72,-43.92,284.853,2.4808,0.1513,173
0.052674,-1.352765,9.328094,-0.522253,-0.082624,0.083489,8.28,3.72,-43.92,284.853,2.4808,0.1513,184
0.179571,-0.914613,9.591465,-0.53447,-0.096063,0.023624,7.68,3.9,-43.08,284.853,2.4808,0.1513,192
0.208302,-0.562655,9.98652,-0.513701,-0.08629,-0.036241,8.7,4.02,-43.38,279.4981,3.3338,0.1124,203
0.208302,-0.562655,9.98652,-0.47094,-0.050249,-0.09916,8.7,4.02,-43.38,279.4981,3.3338,0.1124,212
0.174782,-0.536318,10.08708,-0.415963,-0.038642,-0.133979,8.76,3.96,-43.86,279.4981,3.3338,0.1124,223
-0.038308,-0.854756,9.917087,-0.415963,-0.038642,-0.133979,8.76,3.96,-43.86,279.4981,3.3338,0.1124,232
-0.237033,-1.28812,9.917087,-0.353043,-0.056968,-0.122984,8.22,4.08,-44.34,279.4981,3.3338,0.1124,243
-0.126897,-1.328822,9.917087,-0.282794,-0.062466,-0.017915,7.08,4.74,-44.16,280.8388,4.7316,-0.0969,253
0.134079,-1.300091,9.847652,-0.244309,-0.062466,0.039506,7.08,4.74,-44.16,280.8388,4.7316,-0.0969,262
0.134079,-1.300091,9.847652,-0.197884,-0.055135,0.088987,7.2,5.58,-44.16,280.8388,4.7316,-0.0969,273
0.452518,-1.048692,10.008069,-0.182612,-0.038031,0.084711,7.2,5.58,-44.16,280.8388,4.7316,-0.0969,282
1.079818,-0.72786,8.839663,-0.353043,-0.075294,-0.043571,7.8,5.76,-44.64,281.5149,5.4884,-0.2643,293
0.854756,-0.847573,8.736709,-0.590059,-0.059412,-0.165744,7.8,5.76,-44.64,281.5149,5.4884,-0.2643,303
0.854756,-0.847573,8.736709,-0.590059,-0.059412,-0.165744,7.68,5.94,-44.28,281.5149,5.4884,-0.2643,313
0.478855,-0.87391,8.693612,-0.998117,-0.066131,-0.3038,7.68,5.94,-44.28,281.5149,5.4884,-0.2643,323
0.105348,-0.979258,8.980925,-0.998117,-0.066131,-0.3038,7.8,6.3,-44.52,275.4311,6.6034,-0.4249,332
-0.0838,-1.503604,9.653716,-1.068367,-0.080792,-0.299524,7.8,6.3,-44.52,275.4311,6.6034,-0.4249,343
-0.150839,-1.802889,10.122993,-1.003004,-0.06552,-0.253098,7.98,7.26,-44.94,275.4311,6.6034,-0.4249,353
-0.150839,-1.802889,10.122993,-0.865559,-0.045362,-0.200564,7.98,7.26,-44.94,275.4311,6.6034,-0.4249,362
-0.26337,-1.953728,10.206794,-0.715897,-0.042307,-0.12054,7.32,8.28,-44.1,278.4053,8.8992,-0.669,373
-0.284919,-2.102173,10.005674,-0.573566,-0.039864,-0.020969,7.32,8.28,-44.1,278.4053,8.8992,-0.669,382
-0.134079,-2.085413,9.75667,-0.483158,-0.02337,0.04195,7.32,8.4,-44.04,278.4053,8.8992,-0.669,393
0.052674,-1.946545,9.325701,-0.452615,-0.038642,0.079213,7.32,8.4,-44.04,278.4053,8.8992,-0.669,403
0.052674,-1.946545,9.325701,-0.492321,-0.034366,0.093873,7.74,9,-43.92,276.9138,10.2568,-0.7656,413
-0.06704,-1.951334,9.29218,-0.555851,-0.028257,0.095706,7.74,9,-43.92,276.9138,10.2568,-0.7656,423
-0.181965,-1.93218,9.306546,-0.59739,-0.025203,0.092652,8.52,9.18,-43.26,276.9138,10.2568,-0.7656,433
-0.153234,-2.123722,9.490906,-0.593724,-0.04414,0.102426,8.52,9.18,-43.26,276.9138,10.2568,-0.7656,443
-0.153234,-2.123722,9.490906,-0.593724,-0.04414,0.102426,8.52,9.18,-43.26,276.9138,10.2568,-0.7656,452
0.136474,-2.494834,9.771035,-0.522253,-0.038031,0.096317,8.46,9.42,-43.26,273.5691,11.1513,-0.7923,463
0.598569,-2.863552,9.684841,-0.420239,-0.028257,0.068828,7.74,10.5,-43.32,273.5691,11.1513,-0.7923,473
0.596174,-2.760599,9.512454,-0.346324,-0.033755,0.018126,7.74,10.5,-43.32,273.5691,11.1513,-0.7923,482
0.359141,-2.528354,9.198804,-0.320057,-0.042307,-0.047847,7.98,11.4,-43.08,280.1988,12.3801,-0.8285,493
0.359141,-2.528354,9.198804,-0.366482,-0.053914,-0.104658,7.98,11.4,-43.08,280.1988,12.3801,-0.8285,503
-0.045491,-2.413429,9.091062,-0.43551,-0.06552,-0.094884,7.14,11.16,-43.38,280.1988,12.3801,-0.8285,513
-0.234639,-2.384698,8.935433,-0.524697,-0.071018,-0.066784,7.14,11.16,-43.38,280.1988,12.3801,-0.8285,523
-0.268159,-2.554691,8.997684,-0.637707,-0.078959,-0.023413,7.14,11.4,-43.44,276.8651,13.1856,-0.9627,533
-0.134079,-2.801301,9.141341,-0.712232,-0.067353,-0.000811,7.14,11.4,-43.44,276.8651,13.1856,-0.9627,543
-0.134079,-2.801301,9.141341,-0.730558,-0.055135,0.024235,7.8,11.88,-43.68,276.8651,13.1856,-0.9627,553
0.191542,-3.227482,9.474146,-0.687798,-0.044751,0.038896,7.8,11.88,-43.68,276.8651,13.1856,-0.9627,563
0.203513,-3.165231,9.737515,-0.596779,-0.033755,0.052335,7.5,11.58,-43.56,273.8702,14.5537,-1.1523,572
0.043097,-2.858764,9.794978,-0.472162,-0.019094,0.087765,7.5,11.58,-43.56,273.8702,14.5537,-1.1523,583
0.043097,-2.858764,9.794978,-0.472162,-0.019094,0.087765,7.5,11.58,-43.56,273.8702,14.5537,-1.1523,592
-0.028731,-2.729473,9.356826,-0.426347,0.024277,0.169621,7.08,12.48,-42.6,273.8702,14.5537,-1.1523,603
0.21309,-2.786936,9.107821,-0.503927,0.034662,0.152517,7.26,13.56,-42.48,284.0549,15.9368,-1.2014,613
0.158022,-2.784541,9.26345,-0.503927,0.034662,0.152517,7.26,13.56,-42.48,284.0549,15.9368,-1.2014,622
0.0838,-2.794119,9.249084,-0.550353,0.059707,0.12686,7.02,13.5,-42.72,284.0549,15.9368,-1.2014,633
-0.136474,-3.48367,9.069513,-0.541801,0.041381,0.106702,6.84,13.5,-42.66,284.0549,15.9368,-1.2014,643
-0.136474,-3.48367,9.069513,-0.541801,0.041381,0.106702,6.84,13.5,-42.66,284.0549,15.9368,-1.2014,653
-0.059857,-3.826051,8.918674,-0.513701,0.011449,0.158014,6.84,13.5,-42.66,284.0549,15.9368,-1.2014,662
0.232245,-3.493247,9.033599,-0.494153,0.007173,0.206884,6.48,14.34,-42.54,272.9489,17.6367,-0.9468,674
0.335198,-3.093403,8.858817,-0.49171,-0.000768,0.195888,6.66,15.12,-42.6,272.9489,17.6367,-0.9468,683
0.335198,-3.093403,8.858817,-0.521031,-0.00871,0.16168,6.66,15.12,-42.6,272.9489,17.6367,-0.9468,692
0.395055,-3.03594,8.808537,-0.569901,-0.018484,0.107313,7.26,15.48,-42.66,272.8519,18.7957,-0.8023,702
0.395055,-3.074249,8.990502,-0.601666,-0.011153,0.045004,7.26,15.48,-42.66,272.8519,18.7957,-0.8023,713
0.251399,-3.134106,8.976136,-0.615105,-0.025203,0.013239,7.68,15.6,-42.24,272.8519,18.7957,-0.8023,723
-0.026337,-3.380716,8.973742,-0.615105,-0.025203,0.013239,7.68,15.6,-42.24,272.8519,18.7957,-0.8023,732
-0.026337,-3.380716,8.973742,-0.6261,-0.029479,-0.012417,7.32,15.42,-42,269.5148,19.779,-0.7749,743
-0.05028,-3.759011,8.865999,-0.63282,-0.035588,0.017515,7.32,15.42,-42,269.5148,19.779,-0.7749,752
-0.035914,-4.216318,8.767835,-0.656033,-0.047194,0.056,7.08,15.96,-41.88,269.5148,19.779,-0.7749,763
-0.098165,-4.300117,8.897125,-0.689019,-0.019094,0.101204,7.08,15.96,-41.88,269.5148,19.779,-0.7749,773
0.038308,-4.084633,8.868394,-0.724449,-0.01604,0.147019,7.32,16.68,-42.06,275.1782,21.2124,-0.8472,783
0.038308,-4.084633,8.868394,-0.730558,-0.025203,0.164734,7.32,16.68,-42.06,275.1782,21.2124,-0.8472,793
0.134079,-4.012804,8.873182,-0.742165,-0.020927,0.160458,7.02,17.22,-41.76,275.1782,21.2124,-0.8472,803
0.134079,-4.053507,8.909097,-0.74583,-0.03742,0.139688,7.02,17.22,-41.76,275.1782,21.2124,-0.8472,813
0.081405,-4.063084,8.822903,-0.73911,-0.055135,0.123806,6.96,18.48,-41.4,275.391,22.839,-0.7927,823
0.186753,-4.180404,8.719949,-0.73911,-0.055135,0.123806,6.96,18.48,-41.4,275.391,22.839,-0.7927,833
0.186753,-4.180404,8.719949,-0.738499,-0.092398,0.079824,7.2,18.9,-41.4,275.391,22.839,-0.7927,843
0.294496,-4.321666,8.545167,-0.783093,-0.096674,0.073104,7.2,18.9,-41.4,275.391,22.839,-0.7927,854
0.184359,-4.376734,8.46855,-0.783093,-0.096674,0.073104,7.08,18.78,-41.4,272.2634,24.5369,-0.773,863
0.184359,-4.376734,8.46855,-0.836849,-0.085068,0.092652,7.08,18.78,-41.4,272.2634,24.5369,-0.773,872
0.165205,-4.434197,8.537984,-0.876555,-0.072851,0.117697,7.68,19.56,-41.22,272.2634,24.5369,-0.773,883
0.146051,-4.417437,8.463761,-0.905266,-0.033755,0.146408,7.68,19.56,-41.22,272.2634,24.5369,-0.773,892
0.162811,-4.599402,8.391933,-0.934587,0.010838,0.142743,7.68,19.56,-41.22,272.2634,24.5369,-0.773,903
-0.038308,-4.776578,8.281797,-0.953524,0.029775,0.131136,7.38,20.22,-40.86,268.064,26.3906,-0.886,913
-0.062251,-4.800521,8.059129,-0.949859,0.027331,0.116476,6.66,20.64,-39.78,268.064,26.3906,-0.886,923
-0.062251,-4.800521,8.059129,-0.934587,-0.009321,0.101815,6.66,20.64,-39.78,268.064,26.3906,-0.886,932
-0.05028,-4.843618,8.051947,-0.927868,-0.014818,0.068217,6.66,20.64,-39.78,268.064,26.3906,-0.886,943
-0.208302,-4.750241,7.944204,-0.952913,-0.02337,0.019959,7.2,21.54,-39.24,275.6984,28.5267,-0.7239,953
-0.476461,-4.810098,8.107015,-0.976126,-0.025203,-0.00753,7.5,21.48,-39.3,275.6984,28.5267,-0.7239,963
-0.476461,-4.810098,8.107015,-0.978569,-0.015429,-0.03563,7.5,21.48,-39.3,275.6984,28.5267,-0.7239,972
-0.241822,-5.020794,7.972935,-0.948026,-0.047805,-0.074114,8.28,22.26,-38.76,263.7412,30.6807,-0.6893,983
-0.03352,-5.499649,7.982512,-0.882053,-0.073461,-0.122984,8.28,22.26,-38.76,263.7412,30.6807,-0.6893,993
0.021548,-5.643306,8.152506,-0.783703,-0.070407,-0.168799,7.86,23.64,-38.28,263.7412,30.6807,-0.6893,1003
-0.06704,-5.782173,7.94181,-0.681689,-0.094231,-0.178572,7.86,23.64,-38.28,263.7412,30.6807,-0.6893,1012
0.074223,-5.743865,7.834068,-0.593724,-0.130883,-0.149862,7.32,24,-37.86,267.3495,32.8043,-0.9091,1027
0.074223,-5.743865,7.834068,-0.56929,-0.115611,-0.128481,7.32,24,-37.86,267.3495,32.8043,-0.9091,1033
0.160416,-5.62894,7.82449,-0.58395,-0.075905,-0.114432,7.5,25.26,-37.5,267.3495,32.8043,-0.9091,1043
0.124502,-5.576266,7.656891,-0.615105,-0.069796,-0.100382,7.5,25.26,-37.5,267.3495,32.8043,-0.9091,1053
0.014366,-5.564295,7.606612,-0.652978,-0.056968,-0.079612,6.78,26.52,-37.26,281.4416,34.2468,-1.3974,1064
0.217879,-5.722316,7.774211,-0.650535,-0.034977,-0.074725,6.78,26.52,-37.26,281.4416,34.2468,-1.3974,1072
0.390267,-6.146103,7.688017,-0.650535,-0.034977,-0.074725,6.48,26.22,-37.26,281.4416,34.2468,-1.3974,1082
0.390267,-6.146103,7.688017,-0.630376,-0.018484,-0.067395,6.48,26.22,-37.26,281.4416,34.2468,-1.3974,1093
0.450124,-6.584255,7.673651,-0.593724,-0.034366,-0.059454,6.6,26.22,-37.2,267.6549,35.6808,-1.696,1103
0.428575,-6.505244,7.74069,-0.53447,-0.038642,-0.04968,6.6,26.22,-37.2,267.6549,35.6808,-1.696,1113
0.234639,-6.311308,7.573091,-0.48499,-0.034366,-0.009363,6.84,26.82,-36.72,267.6549,35.6808,-1.696,1123
0.234639,-6.311308,7.573091,-0.490488,-0.034977,0.034009,6.84,26.82,-36.72,267.6549,35.6808,-1.696,1133
0.167599,-6.069486,7.47732,-0.538136,-0.030701,0.058443,6.84,27.18,-36.42,270.4849,36.9722,-1.8776,1143
0.265765,-6.103006,7.489292,-0.610829,-0.019705,0.065163,6.84,27.18,-36.42,270.4849,36.9722,-1.8776,1154
0.265765,-6.103006,7.489292,-0.646259,-0.00871,0.061498,6.18,27.54,-36.72,270.4849,36.9722,-1.8776,1163
0.411815,-6.265817,7.419858,-0.674969,-0.01604,0.052335,6.18,27.54,-36.72,270.4849,36.9722,-1.8776,1172
0.416604,-6.476513,7.398309,-0.685354,-0.027647,0.04928,6.18,27.66,-36.66,263.9361,38.2297,-1.887,1183
0.311256,-6.8165,7.431829,-0.685354,-0.027647,0.04928,6.18,27.66,-36.66,263.9361,38.2297,-1.887,1192
0.311256,-6.8165,7.431829,-0.656643,-0.027647,0.043172,6.18,27.66,-36.66,263.9361,38.2297,-1.887,1203
0.172388,-6.711152,7.316904,-0.602276,-0.03681,0.039506,6.42,27.54,-36.18,263.9361,38.2297,-1.887,1213
0.26337,-6.574678,7.261836,-0.552796,-0.067353,0.018126,6.54,28.2,-35.64,260.6614,39.7647,-1.8797,1223
0.289707,-6.495667,7.151699,-0.557072,-0.069185,0.003465,6.54,28.2,-35.64,260.6614,39.7647,-1.8797,1233
0.289707,-6.495667,7.151699,-0.594335,-0.061244,-0.002643,6.54,28.2,-35.64,260.6614,39.7647,-1.8797,1243
0.301679,-6.589044,7.26423,-0.634041,-0.033144,-0.001421,6.9,29.22,-34.44,260.6614,39.7647,-1.8797,1253
0.131685,-6.763826,7.199585,-0.643815,-0.028257,0.02057,6.78,30.3,-34.2,271.2656,41.423,-2.0601,1262
0.107742,-6.840443,7.130151,-0.614494,-0.025203,0.045004,6.78,30.3,-34.2,271.2656,41.423,-2.0601,1272
0.136474,-6.929031,7.154094,-0.561959,0.021223,0.068217,6.78,31.2,-33.84,271.2656,41.423,-2.0601,1283
0.136474,-6.929031,7.154094,-0.539968,0.027942,0.084711,6.78,31.2,-33.84,271.2656,41.423,-2.0601,1293
0.105348,-6.957762,7.00086,-0.543633,0.030997,0.09815,6.36,31.5,-33.18,279.2792,42.856,-2.1324,1302
0.064645,-6.955368,6.857203,-0.563792,0.035883,0.120141,6.36,31.5,-33.18,279.2792,42.856,-2.1324,1313
0.129291,-6.83326,6.878752,-0.563792,0.035883,0.120141,6.78,31.44,-33.18,279.2792,42.856,-2.1324,1322
0.129291,-6.83326,6.878752,-0.586394,0.029164,0.140299,6.78,31.44,-33.18,279.2792,42.856,-2.1324,1332
0.198725,-6.991282,6.907483,-0.608996,0.050544,0.148851,6.78,31.08,-33,266.1161,44.1264,-1.9041,1343
0.232245,-7.122967,6.912272,-0.602887,0.098803,0.13358,6.78,31.08,-33,266.1161,44.1264,-1.9041,1353
0.0838,-7.182824,6.615381,-0.582729,0.122626,0.096317,6.48,31.44,-32.94,266.1161,44.1264,-1.9041,1363
0.076617,-7.242681,6.486091,-0.553407,0.082309,0.063941,6.84,32.46,-32.46,266.1161,44.1264,-1.9041,1374
0.076617,-7.242681,6.486091,-0.536303,0.041992,0.051113,6.84,32.46,-32.46,266.1161,44.1264,-1.9041,1382
0.129291,-7.355212,6.617776,-0.525918,0.058485,0.037674,7.14,33,-31.92,271.215,45.8338,-1.3683,1393
0.162811,-7.170853,6.627353,-0.525918,0.058485,0.037674,7.14,33,-31.92,271.215,45.8338,-1.3683,1403
0.184359,-7.07987,6.45736,-0.537525,0.09697,0.031565,7.08,32.82,-32.16,271.215,45.8338,-1.3683,1413
0.112531,-7.127756,6.261029,-0.594335,0.107355,0.027289,7.08,32.82,-32.16,271.215,45.8338,-1.3683,1423
0.112531,-7.127756,6.261029,-0.665196,0.125681,0.02057,6.78,32.58,-31.62,271.215,45.8338,-1.3683,1433
-0.074223,-7.242681,6.069487,-0.736056,0.128124,0.02057,6.84,33.36,-31.38,264.8964,47.7593,-0.9909,1443
-0.074223,-7.242681,6.069487,-0.775151,0.063372,0.040728,6.84,33.36,-31.38,264.8964,47.7593,-0.9909,1452
0.155628,-7.585062,6.028784,-0.761712,0.015725,0.040728,6.96,33.78,-31.26,264.8964,47.7593,-0.9909,1463
0.220273,-7.647313,6.055121,-0.728115,-0.005045,0.030954,6.96,33.78,-31.26,264.8964,47.7593,-0.9909,1472
0.167599,-7.640131,6.23948,-0.678635,0.013281,0.032787,7.02,33.72,-30.9,259.3225,49.4758,-0.7701,1483
0.210696,-7.606611,6.11019,-0.671304,0.038327,0.026067,7.02,33.72,-30.9,259.3225,49.4758,-0.7701,1493
0.052674,-7.69041,5.79654,-0.671304,0.038327,0.026067,7.62,34.2,-29.94,259.3225,49.4758,-0.7701,1502
0.052674,-7.69041,5.79654,-0.716508,0.062151,0.012628,7.62,34.2,-29.94,259.3225,49.4758,-0.7701,1513
0.05028,-7.546754,5.7295,-0.789201,0.077422,0.01385,7.38,34.68,-29.22,266.1244,51.0636,-0.6631,1523
0.110137,-7.623371,5.516409,-0.857618,0.089029,0.011407,7.38,34.68,-29.22,266.1244,51.0636,-0.6631,1533
0.134079,-7.793364,5.446975,-0.90099,0.068259,-0.008752,6.9,34.74,-28.86,266.1244,51.0636,-0.6631,1543
0.134079,-7.793364,5.446975,-0.905876,0.042603,-0.042349,6.9,34.74,-28.86,266.1244,51.0636,-0.6631,1552
0.10056,-7.968146,5.511621,-0.878998,-0.000768,-0.053345,6.9,34.74,-28.86,266.1244,51.0636,-0.6631,1562
-0.10056,-8.353624,5.547535,-0.836849,0.002897,-0.025856,6.6,34.98,-28.44,260.2249,53.0046,-0.5226,1573
-0.119714,-8.365596,5.576266,-0.795921,0.034662,0.000411,6.84,35.28,-28.08,260.2249,53.0046,-0.5226,1583
-0.232245,-8.241093,5.308108,-0.770264,0.052988,0.0279,6.84,35.28,-28.08,260.2249,53.0046,-0.5226,1593
-0.232245,-8.241093,5.308108,-0.765377,0.074368,0.062109,6.78,35.4,-27.66,249.4234,54.9218,-0.6035,1603
-0.136474,-8.291373,5.11896,-0.771486,0.079866,0.103647,6.78,35.4,-27.66,249.4234,54.9218,-0.6035,1612
0.086194,-8.45179,4.989669,-0.78859,0.059096,0.132969,7.2,36.36,-27.48,249.4234,54.9218,-0.6035,1623
0.177176,-8.408693,5.037555,-0.794699,0.06887,0.15496,7.2,36.36,-27.48,249.4234,54.9218,-0.6035,1633
0.01676,-8.439818,4.824464,-0.795921,0.060929,0.180005,8.04,36.96,-26.94,254.5514,56.692,-0.1443,1643
0.01676,-8.33447,4.802915,-0.798364,0.03344,0.201386,8.04,36.96,-26.94,254.5514,56.692,-0.1443,1653
-0.002394,-8.33447,4.802915,-0.775762,0.021223,0.197721,7.86,37.56,-25.74,254.5514,56.692,-0.1443,1663
-0.043097,-8.377567,4.73827,-0.775762,0.021223,0.197721,7.86,37.56,-25.74,254.5514,56.692,-0.1443,1673
-0.011971,-8.528407,4.63771,-0.769043,0.059707,0.123195,8.16,37.68,-25.08,258.7695,58.4969,0.6373,1683
0.225062,-8.33447,4.340821,-0.789812,0.018168,0.063941,8.16,37.68,-25.08,258.7695,58.4969,0.6373,1693
0.225062,-8.33447,4.340821,-0.789812,0.018168,0.063941,8.88,37.8,-24.84,258.7695,58.4969,0.6373,1702
0.031126,-8.236305,4.17801,-0.83074,-0.019705,-0.015471,8.88,37.8,-24.84,258.7695,58.4969,0.6373,1712
-0.155628,-8.61939,3.909851,-0.889383,-0.07957,-0.04968,8.64,38.1,-24.54,250.4591,60.2976,1.068,1723
-0.023943,-8.73192,3.756617,-0.926646,-0.215793,-0.040517,8.64,38.1,-24.54,250.4591,60.2976,1.068,1733
-0.026337,-8.79896,4.204347,-0.941307,-0.307423,-0.024634,8.16,38.1,-24.12,250.4591,60.2976,1.068,1743
-0.026337,-8.79896,4.204347,-0.932755,-0.287264,-0.003865,8.16,38.1,-24.12,250.4591,60.2976,1.068,1753
-0.440547,-8.978531,4.331243,-0.927257,-0.201743,0.043172,7.74,38.88,-23.28,253.0419,62.3983,0.5175,1763
-0.636877,-8.786988,4.486871,-0.877777,-0.116222,0.103036,7.74,38.88,-23.28,253.0419,62.3983,0.5175,1773
-0.57702,-8.794171,4.252232,-0.83746,-0.089955,0.148851,7.14,38.88,-22.26,253.0419,62.3983,0.5175,1784
-0.375901,-8.827691,4.055902,-0.817301,-0.087511,0.170843,7.14,38.88,-22.26,253.0419,62.3983,0.5175,1793
-0.375901,-8.827691,4.055902,-0.817301,-0.087511,0.170843,7.14,38.88,-22.26,253.0419,62.3983,0.5175,1802
-0.119714,-8.901914,4.309695,-0.801419,-0.055135,0.165956,7.44,39.36,-21.96,245.6687,64.4382,0.5185,1812
-0.043097,-9.009656,4.345609,-0.75988,0.07559,0.118919,7.44,39.36,-21.96,245.6687,64.4382,0.5185,1823
0.028731,-8.947405,3.8476,-0.740332,0.14645,0.077991,8.04,40.26,-21.36,245.6687,64.4382,0.5185,1833
0.22985,-8.801354,3.390293,-0.700626,0.142785,0.010796,8.22,40.38,-20.22,255.4364,65.7975,1.0908,1843
0.22985,-8.801354,3.390293,-0.678024,0.080477,-0.044182,8.22,40.38,-20.22,255.4364,65.7975,1.0908,1853
0.629694,-8.688824,3.409448,-0.625489,0.037716,-0.111377,8.22,40.26,-19.44,255.4364,65.7975,1.0908,1863
0.210696,-9.155706,3.019181,-0.659698,-0.066742,-0.154749,8.22,40.26,-19.44,255.4364,65.7975,1.0908,1872
0.210696,-9.155706,3.019181,-0.684132,-0.057579,-0.09916,8.22,40.26,-19.44,255.4364,65.7975,1.0908,1883
-0.165205,-9.814133,3.026363,-0.667639,-0.06552,-0.039295,8.52,39.96,-19.2,254.6358,67.3734,1.3926,1893
-0.141262,-9.833286,2.478074,-0.733612,-0.050859,0.050502,8.04,40.5,-19.14,254.6358,67.3734,1.3926,1902
-0.196331,-9.703996,2.32963,-0.877166,-0.069185,0.095706,8.04,40.5,-19.14,254.6358,67.3734,1.3926,1912
-0.146051,-9.380769,2.49244,-0.975515,-0.059412,0.082267,7.2,41.16,-18.66,245.6892,68.8906,0.776,1923
-0.134079,-9.349643,2.554691,-1.051873,-0.076516,0.060887,7.2,41.16,-18.66,245.6892,68.8906,0.776,1933
-0.134079,-9.349643,2.554691,-1.102575,-0.016651,0.074326,7.86,42,-17.52,245.6892,68.8906,0.776,1943
-0.371113,-9.167678,2.808484,-1.131897,0.065816,0.101815,7.86,42,-17.52,245.6892,68.8906,0.776,1953
-0.244216,-8.992896,2.767782,-1.166105,0.092083,0.111589,8.22,42.72,-16.5,260.5703,70.9877,1.1919,1963
-0.244216,-8.992896,2.767782,-1.166105,0.092083,0.111589,8.22,42.72,-16.5,260.5703,70.9877,1.1919,1972
-0.234639,-9.256267,2.468497,-1.177712,0.049322,0.107313,7.98,42.78,-15.24,260.5703,70.9877,1.1919,1982
-0.349564,-9.742304,2.164425,-1.140449,-0.039864,0.109145,7.98,42.78,-15.24,260.5703,70.9877,1.1919,1993
-0.256187,-9.766247,2.14527,-1.097077,-0.085679,0.116476,8.46,43.02,-13.92,258.0188,73.5991,2.2489,2002
-0.014366,-9.404712,2.466103,-0.989565,-0.129661,0.14091,8.46,43.02,-13.92,258.0188,73.5991,2.2489,2013
-0.014366,-9.404712,2.466103,-0.896713,-0.059412,0.134191,7.74,43.02,-14.04,258.0188,73.5991,2.2489,2023
0.462095,-9.047964,2.518777,-0.816079,0.012671,0.075548,7.74,43.02,-14.04,258.0188,73.5991,2.2489,2032
0.392661,-9.100638,2.401458,-0.770264,0.05482,-0.016082,7.56,43.26,-13.08,249.7479,75.9684,3.5796,2043
0.057463,-9.012051,1.903449,-0.778816,0.104911,-0.111988,7.56,43.26,-13.08,249.7479,75.9684,3.5796,2053
-0.117319,-9.225141,1.527547,-0.839292,0.100635,-0.159636,8.46,43.68,-12.18,249.7479,75.9684,3.5796,2063
-0.117319,-9.225141,1.527547,-0.956578,0.100024,-0.130314,8.46,43.68,-12.18,249.7479,75.9684,3.5796,2073
-0.418998,-9.847652,1.084607,-1.020719,0.066427,-0.086943,8.22,43.32,-12.3,249.7479,75.9684,3.5796,2083
-0.521952,-10.175668,0.933767,-1.020719,0.066427,-0.086943,8.22,43.32,-12.3,249.7479,75.9684,3.5796,2092
-0.383084,-10.101445,0.878699,-1.04943,0.00534,-0.022191,8.46,43.8,-11.1,252.4013,78.2921,3.6016,2103
-0.387873,-10.000886,1.273754,-1.009113,-0.076516,0.095095,8.52,44.16,-10.08,252.4013,78.2921,3.6016,2113
0.10056,-9.550762,1.441354,-0.966963,-0.081403,0.128082,8.76,45.06,-9.96,252.4013,78.2921,3.6016,2124
0.10056,-9.550762,1.441354,-0.966963,-0.081403,0.128082,8.76,45.06,-9.96,252.4013,78.2921,3.6016,2132
0.203513,-9.284998,1.632896,-0.934587,-0.045362,0.140299,8.76,45.06,-9.96,252.4013,78.2921,3.6016,2142
-0.031126,-9.490906,1.118126,-0.940696,0.080477,0.126249,8.7,44.46,-8.34,253.8888,81.7474,5.2179,2153
-0.368718,-9.981731,0.486038,-0.95047,0.151948,0.093263,8.58,44.4,-7.5,253.8888,81.7474,5.2179,2162
-0.368718,-9.981731,0.486038,-0.935198,0.140952,0.068217,8.58,44.4,-7.5,253.8888,81.7474,5.2179,2173
-0.524346,-10.295382,0.114925,-0.868614,0.098803,0.055389,7.86,44.58,-7.08,243.4096,83.853,9.5677,2183
-0.421392,-10.027223,0.208302,-0.783093,0.060929,0.045615,7.86,44.58,-7.08,243.4096,83.853,9.5677,2192
-0.287313,-9.701602,0.588992,-0.706734,0.021223,0.039506,8.22,43.92,-6.18,243.4096,83.853,9.5677,2203
-0.275342,-9.366403,0.69434,-0.658476,0.006562,0.011407,8.22,43.92,-6.18,243.4096,83.853,9.5677,2213
-0.275342,-9.366403,0.69434,-0.658476,0.006562,0.011407,8.64,43.2,-5.52,235.7967,85.6225,15.1544,2223
-0.095771,-9.284998,0.531529,-0.673748,0.099413,-0.035019,8.64,43.2,-5.52,235.7967,85.6225,15.1544,2233
0.086194,-9.648928,-0.201119,-0.832573,0.251519,-0.149862,8.22,43.92,-5.28,235.7967,85.6225,15.1544,2243
-0.361535,-9.988914,-0.533923,-0.899157,0.247243,-0.178572,8.22,43.92,-5.28,235.7967,85.6225,15.1544,2253
-0.586597,-9.957788,-0.730254,-0.899157,0.247243,-0.178572,8.28,44.94,-4.62,226.0131,87.2503,21.4972,2263
-0.586597,-9.957788,-0.730254,-0.9578,0.155002,-0.163301,8.28,44.94,-4.62,226.0131,87.2503,21.4972,2273
-0.478855,-9.711179,-0.586597,-0.9578,0.155002,-0.163301,8.4,44.52,-3.72,226.0131,87.2503,21.4972,2282
-0.081405,-9.613013,-0.466884,-0.975515,0.078033,-0.083277,8.4,44.52,-3.72,226.0131,87.2503,21.4972,2293
-0.01676,-9.308941,-0.28013,-0.990787,0.023666,-0.006308,8.4,43.8,-2.22,197.8774,89.2351,59.3408,2303
-0.01676,-9.308941,-0.28013,-1.02805,0.09697,0.056,8.4,43.8,-2.22,197.8774,89.2351,59.3408,2312
-0.134079,-9.512454,-0.833208,-1.093412,0.100024,0.040728,8.7,43.92,-1.38,197.8774,89.2351,59.3408,2323
-0.337593,-10.032011,-1.063058,-1.166105,0.060318,0.01385,8.7,43.92,-1.38,197.8774,89.2351,59.3408,2333
-0.354353,-10.261862,-1.328822,-1.238187,0.041992,0.057222,8.64,44.4,-1.68,86.827,87.8717,160.4463,2343
-0.174782,-10.40073,-1.580221,-1.257735,-0.102172,0.145186,8.64,44.4,-1.68,86.827,87.8717,160.4463,2352
-0.174782,-10.40073,-1.580221,-1.214974,-0.176698,0.219101,8.22,44.7,-0.84,86.827,87.8717,160.4463,2363
-0.112531,-10.290593,-1.309668,-1.214974,-0.176698,0.219101,8.22,44.7,-0.84,86.827,87.8717,160.4463,2373
0.476461,-9.794978,-1.28812,-1.147168,-0.198078,0.245368,8.04,44.7,0.78,80.4589,85.0774,168.4045,2383
0.536318,-9.727939,-1.194743,-1.054317,-0.226789,0.199553,8.04,44.7,0.78,80.4589,85.0774,168.4045,2393
0.167599,-9.601042,-1.034327,-1.02866,-0.196856,0.178784,8.4,44.46,1.68,80.4589,85.0774,168.4045,2403
0.167599,-9.601042,-1.034327,-1.012167,-0.06552,0.178784,8.4,44.46,1.68,80.4589,85.0774,168.4045,2413
0.031126,-9.368797,-1.139675,-0.995674,0.079866,0.131136,7.92,44.76,2.88,79.9,82.583,168.2981,2423
0.031126,-9.744699,-1.869929,-0.982846,0.130568,0.068828,7.92,44.76,2.88,79.9,82.583,168.2981,2432
-0.208302,-10.170879,-2.26259,-0.959022,0.043214,0.059054,7.92,44.76,4.2,79.9,82.583,168.2981,2443
-0.208302,-10.170879,-2.26259,-0.907098,0.00534,0.086543,7.92,44.76,4.2,79.9,82.583,168.2981,2453
-0.304073,-10.257073,-2.45892,-0.849066,-0.07957,0.121362,8.64,44.04,4.5,83.0512,80.3374,169.8705,2463
-0.339987,-10.051166,-2.387092,-0.849066,-0.07957,0.121362,8.64,44.04,4.5,83.0512,80.3374,169.8705,2473
-0.423787,-9.512454,-2.130905,-0.783703,-0.139435,0.182449,9.06,43.98,4.86,83.0512,80.3374,169.8705,2483
-0.469278,-9.007262,-2.343995,-0.748884,-0.116833,0.228875,9.06,43.98,4.86,83.0512,80.3374,169.8705,2492
-0.469278,-9.007262,-2.343995,-0.77393,-0.09362,0.229486,8.58,44.04,5.7,79.3508,78.4246,169.6456,2503
-0.162811,-8.918674,-2.286532,-0.841125,-0.052081,0.208716,8.58,44.04,5.7,79.3508,78.4246,169.6456,2512
0.198725,-8.988108,-2.614548,-0.933976,0.011449,0.165956,8.46,43.74,6.54,79.3508,78.4246,169.6456,2523
-0.086194,-9.651321,-3.10298,-1.014,0.090861,0.131747,8.46,43.74,6.54,79.3508,78.4246,169.6456,2532
-0.086194,-9.651321,-3.10298,-1.035991,0.168441,0.129304,8.46,43.74,6.54,79.3508,78.4246,169.6456,2543
-0.284919,-9.981731,-3.131711,-0.990787,0.203871,0.093873,8.88,43.08,7.38,76.5833,76.3998,169.2766,2552
-0.409421,-9.680053,-3.184385,-0.898546,0.168441,0.021181,3.78,38.88,11.1,76.5833,76.3998,169.2766,2563
-0.600963,-9.196409,-3.007209,-0.771486,0.112852,-0.050291,3.78,38.88,11.1,76.5833,76.3998,169.2766,2573
-0.600963,-9.196409,-3.007209,-0.707345,0.100635,-0.064951,4.56,39.18,11.4,101.2538,74.2137,170.5441,2583
-0.725465,-8.751075,-2.870735,-0.694517,0.139731,-0.041128,4.56,39.18,11.4,101.2538,74.2137,170.5441,2593
-0.557866,-8.719949,-2.971295,-0.772097,0.150115,0.010185,4.2,38.58,11.76,101.2538,74.2137,170.5441,2603
-0.189148,-9.093455,-3.514795,-0.863116,0.142174,0.041339,4.2,38.58,11.76,101.2538,74.2137,170.5441,2613
-0.189148,-9.093455,-3.514795,-0.863116,0.142174,0.041339,3.78,37.8,13.5,139.9916,72.5805,171.9561,2623
-0.28013,-9.771035,-4.163644,-0.940085,0.131178,0.07005,3.78,37.8,13.5,139.9916,72.5805,171.9561,2633
-0.744619,-10.089474,-4.087027,-0.932144,0.101246,0.076769,3.42,38.28,14.52,139.9916,72.5805,171.9561,2642
-0.548289,-9.452597,-3.873937,-0.871668,0.076201,0.062719,3.42,38.28,14.52,139.9916,72.5805,171.9561,2653
-0.399844,-8.873182,-3.775771,-0.761712,0.013281,0.012628,3.54,39,14.7,126.2513,70.5098,172.6181,2663
-0.399844,-8.873182,-3.775771,-0.700626,-0.00199,0.027289,3.54,39,14.7,126.2513,70.5098,172.6181,2673
-0.52674,-8.772623,-3.459727,-0.719563,0.065205,0.096317,3.36,38.46,15.42,126.2513,70.5098,172.6181,2683
-0.040703,-8.573898,-3.703943,-0.786147,0.103689,0.120141,3.36,38.46,15.42,126.2513,70.5098,172.6181,2693
0.153234,-8.930645,-4.221106,-0.881442,0.1605,0.082267,3.12,37.98,15.96,144.3279,68.8256,172.9802,2702
-0.179571,-9.636956,-4.539545,-0.920537,0.202039,0.066995,3.12,37.98,15.96,144.3279,68.8256,172.9802,2713
-0.179571,-9.636956,-4.539545,-0.91565,0.186156,0.056,3.06,37.74,16.98,144.3279,68.8256,172.9802,2723
-0.26337,-9.569917,-4.673624,-0.850899,0.095748,0.029122,3.06,37.74,16.98,144.3279,68.8256,172.9802,2733
-0.318439,-8.873182,-4.438985,-0.850899,0.095748,0.029122,3.84,37.38,18.3,139.6826,66.8049,173.4993,2742
-0.361535,-8.420665,-4.266597,-0.78859,0.050544,-0.005087,3.84,37.38,18.3,139.6826,66.8049,173.4993,2753
-0.61054,-8.38475,-4.352792,-0.762323,0.01206,-0.019137,4.02,37.74,18.48,139.6826,66.8049,173.4993,2763
-0.61054,-8.38475,-4.352792,-0.780038,0.009616,0.016904,4.02,37.74,18.48,139.6826,66.8049,173.4993,2773
-0.64406,-8.406299,-4.484476,-0.850899,0.027942,0.076158,3.06,37.5,19.14,142.8993,64.9789,174.0341,2783
-0.260976,-8.696006,-5.133325,-0.917483,0.02672,0.094484,3.06,37.5,19.14,142.8993,64.9789,174.0341,2792
-0.256187,-9.098245,-5.478101,-0.971239,0.02672,0.095706,2.82,36.9,20.34,142.8993,64.9789,174.0341,2803
-0.395055,-8.988108,-5.370358,-0.992619,-0.006877,0.088376,2.82,36.9,20.34,142.8993,64.9789,174.0341,2813
-0.395055,-8.988108,-5.370358,-0.981624,-0.006877,0.076769,3.18,37.08,19.86,139.9001,62.8848,174.1364,2822
-0.320833,-8.755863,-5.183605,-0.946194,-0.025203,0.056611,3.18,37.08,19.86,139.9001,62.8848,174.1364,2833
-0.418998,-8.43503,-5.097411,-0.919926,-0.056968,0.039506,3.18,37.08,19.86,139.9001,62.8848,174.1364,2843
-0.493221,-8.209968,-4.987274,-0.897324,-0.058801,0.037674,4.08,37.14,20.16,139.9001,62.8848,174.1364,2853
-0.538712,-8.085466,-4.960937,-0.88022,-0.048416,0.054778,3.9,36.42,21.66,135.788,60.688,174.2186,2863
-0.538712,-8.085466,-4.960937,-0.86617,-0.039253,0.099982,3.9,36.42,21.66,135.788,60.688,174.2186,2873
-0.538712,-8.243488,-5.217125,-0.855175,-0.048416,0.145797,3.6,35.7,21.72,135.788,60.688,174.2186,2883
-0.299284,-8.224334,-5.432609,-0.849066,-0.014818,0.150684,3.6,35.7,21.72,135.788,60.688,174.2186,2893
-0.407027,-8.487704,-5.609786,-0.840514,0.071924,0.164123,4.08,35.4,22.32,116.293,58.6819,174.1233,2904
-0.407027,-8.487704,-5.609786,-0.840514,0.071924,0.164123,4.08,35.4,22.32,116.293,58.6819,174.1233,2913
-0.268159,-8.432636,-5.949773,-0.84479,0.109187,0.165345,4.38,34.8,23.64,116.293,58.6819,174.1233,2923
-0.383084,-8.032792,-5.928224,-0.871668,0.079866,0.059665,4.38,34.8,23.64,116.293,58.6819,174.1233,2933
-0.471672,-7.640131,-5.66246,-0.871668,0.079866,0.059665,4.44,35.1,24.24,126.3869,56.7147,174.0336,2942
-0.41421,-7.405492,-5.581054,-0.882053,0.084142,-0.015471,4.44,35.1,24.24,126.3869,56.7147,174.0336,2953
-0.41421,-7.405492,-5.581054,-0.888161,0.048101,-0.071671,4.02,35.28,24.6,126.3869,56.7147,174.0336,2963
-0.423787,-7.613794,-5.906676,-0.871057,0.007173,-0.061897,4.02,35.28,24.6,126.3869,56.7147,174.0336,2973
-0.739831,-8.176449,-6.292154,-0.839903,-0.060022,-0.004476,4.02,35.28,24.6,126.3869,56.7147,174.0336,2983
-0.739831,-8.176449,-6.292154,-0.759269,-0.089955,0.071882,4.44,34.26,25.38,121.5319,54.7127,174.5404,2992
-0.689551,-8.08786,-6.442993,-0.685354,-0.100339,0.076158,4.92,33.6,26.04,121.5319,54.7127,174.5404,3003
-0.301679,-7.697593,-6.316097,-0.604109,-0.091787,0.028511,4.92,33.6,26.04,121.5319,54.7127,174.5404,3012
0.076617,-7.319298,-6.404685,-0.538136,-0.074072,-0.074725,4.62,33.18,26.82,129.7805,52.9737,174.4487,3023
0.076617,-7.319298,-6.404685,-0.538136,-0.074072,-0.074725,4.62,33.18,26.82,129.7805,52.9737,174.4487,3033
0.076617,-7.319298,-6.404685,-0.538136,-0.074072,-0.074725,4.62,33.18,26.82,129.7805,52.9737,174.4487,3043
-0.035914,-7.158881,-6.442993,-0.536914,-0.096674,-0.138866,4.32,33,27,129.7805,52.9737,174.4487,3053
-0.035914,-7.158881,-6.442993,-0.789201,0.104911,-0.173685,4.32,33,27,129.7805,52.9737,174.4487,3062
-0.59378,-7.47732,-6.967339,-0.861894,0.087196,-0.136423,3.78,32.22,27.96,155.0755,52.3509,174.5293,3073
-0.512375,-7.862798,-7.283384,-0.911374,0.01206,-0.072893,3.78,32.22,27.96,155.0755,52.3509,174.5293,3082
-0.586597,-7.795758,-7.151699,-0.911374,0.01206,-0.072893,3.78,32.22,27.96,155.0755,52.3509,174.5293,3093
-0.5435,-7.237892,-6.76622,-0.948637,-0.040475,-0.008141,3.84,31.86,28.08,155.0755,52.3509,174.5293,3102
-0.5435,-7.237892,-6.76622,-0.973683,-0.019094,0.029733,3.6,31.86,28.8,134.7407,49.8774,175.5538,3113
-0.481249,-6.608198,-6.58665,-0.991398,0.004729,0.050502,3.6,31.86,28.8,134.7407,49.8774,175.5538,3123
-0.483643,-6.505244,-6.720729,-1.018276,-0.015429,0.09876,4.38,31.56,29.4,134.7407,49.8774,175.5538,3133
-0.416604,-6.842837,-7.048745,-1.034769,-0.078348,0.150684,4.38,31.56,29.4,134.7407,49.8774,175.5538,3143
-0.409421,-7.139727,-7.110996,-1.031104,-0.07957,0.181838,4.2,30.48,30.12,141.1903,47.6395,175.6269,3153
-0.409421,-7.139727,-7.110996,-1.004226,-0.017873,0.180616,4.2,30.48,30.12,141.1903,47.6395,175.6269,3163
-0.222668,-7.216344,-7.134938,-0.934587,0.050544,0.138467,4.2,30.24,30.9,141.1903,47.6395,175.6269,3173
-0.201119,-6.893117,-7.058322,-0.857007,0.115907,0.076769,4.2,30.24,30.9,141.1903,47.6395,175.6269,3182
-0.366324,-6.258634,-6.988888,-0.783703,0.176382,0.023624,4.2,29.46,30.78,140.6571,45.2835,175.327,3193
-0.366324,-6.258634,-6.988888,-0.783703,0.176382,0.023624,4.2,29.46,30.78,140.6571,45.2835,175.327,3203
-0.337593,-6.237086,-7.192401,-0.693906,0.13912,0.001022,3.6,28.92,31.08,140.6571,45.2835,175.327,3213
-0.462095,-6.416656,-7.374366,-0.693906,0.13912,0.001022,3.6,28.92,31.08,140.6571,45.2835,175.327,3223
-0.392661,-6.438205,-7.683228,-0.711621,0.114074,0.014461,4.2,28.62,31.74,124.0228,43.3932,175.6552,3233
-0.392661,-6.438205,-7.683228,-0.763545,0.111631,0.02057,4.2,28.62,31.74,124.0228,43.3932,175.6552,3243
-0.459701,-6.617775,-7.987301,-0.80936,0.112852,0.029733,4.68,28.98,31.44,124.0228,43.3932,175.6552,3253
-0.533923,-6.943397,-8.33447,-0.849677,0.052988,0.107313,4.56,28.14,32.4,124.0228,43.3932,175.6552,3263
-0.225062,-6.284971,-7.996877,-0.831351,-0.006877,0.147019,4.56,28.14,32.4,124.0228,43.3932,175.6552,3273
-0.225062,-6.284971,-7.996877,-0.778816,0.004729,0.127471,4.56,28.14,32.4,124.0228,43.3932,175.6552,3283
0,-5.873156,-7.927444,-0.701237,0.011449,0.029122,3.72,26.58,32.94,132.3458,41.2204,176.0527,3293
-0.256187,-5.377541,-7.656891,-0.638317,0.161111,-0.052734,3.48,26.28,33,132.3458,41.2204,176.0527,3303
-0.026337,-5.375147,-7.846038,-0.638928,0.25213,-0.09183,3.48,26.28,33,132.3458,41.2204,176.0527,3313
-0.026337,-5.375147,-7.846038,-0.693906,0.256406,-0.110155,3.6,26.34,33.72,135.6158,39.4604,176.0093,3323
-0.162811,-5.669643,-7.886741,-0.733002,0.246632,-0.058232,3.6,26.34,33.72,135.6158,39.4604,176.0093,3333
-0.466884,-5.731894,-8.035186,-0.733002,0.246632,-0.058232,3.6,26.34,33.72,135.6158,39.4604,176.0093,3343
-0.615329,-5.703162,-8.078283,-0.754382,0.246632,-0.003254,3.72,26.4,34.02,135.6158,39.4604,176.0093,3353
-0.639271,-5.547535,-8.265036,-0.756215,0.159889,0.046837,4.02,25.86,34.56,118.5836,37.9224,176.7804,3363
-0.639271,-5.547535,-8.265036,-0.747662,0.059096,0.062109,4.02,25.86,34.56,118.5836,37.9224,176.7804,3373
-0.584203,-5.772596,-8.614601,-0.734834,-0.036199,0.081045,4.08,24.6,35.58,118.5836,37.9224,176.7804,3382
-0.457306,-5.700768,-8.547561,-0.704902,-0.080792,0.07005,4.08,24.6,35.58,118.5836,37.9224,176.7804,3393
-0.064645,-5.233885,-8.406299,-0.685354,-0.049027,0.002244,3.78,24.6,35.58,118.2958,36.1943,177.1156,3403
-0.064645,-5.233885,-8.406299,-0.685354,-0.049027,0.002244,3.78,24.6,35.58,118.2958,36.1943,177.1156,3413
0.179571,-4.96812,-8.48531,-0.762323,0.074979,-0.07839,3.66,24.72,35.52,118.2958,36.1943,177.1156,3422
0.21309,-4.994457,-8.537984,-0.974904,0.200206,-0.088164,3.66,24.72,35.52,118.2958,36.1943,177.1156,3433
-0.05028,-5.305713,-8.545167,-1.118458,0.23808,0.003465,3.66,24.72,35.52,118.2958,36.1943,177.1156,3443
-0.064645,-5.118959,-8.638543,-1.196648,0.250297,0.107923,3.6,23.94,36.24,98.5198,34.0288,177.2517,3453
-0.064645,-5.118959,-8.638543,-1.218029,0.228917,0.161069,3.6,22.86,37.2,98.5198,34.0288,177.2517,3463
0.069434,-4.908263,-8.578687,-1.184431,0.184324,0.173897,3.6,22.86,37.2,98.5198,34.0288,177.2517,3473
0.074223,-4.898686,-8.693612,-1.108684,0.136065,0.171453,3.3,22.26,37.74,124.4794,31.3764,177.78,3483
0.114925,-4.865166,-8.691217,-0.996285,0.126902,0.116476,3.3,22.26,37.74,124.4794,31.3764,177.78,3492
0.126897,-4.477294,-8.628966,-0.879609,0.156835,0.008352,2.22,21.96,37.38,124.4794,31.3764,177.78,3503
0.126897,-4.477294,-8.628966,-0.879609,0.156835,0.008352,2.22,21.96,37.38,124.4794,31.3764,177.78,3513
0.06704,-4.2235,-8.856422,-0.787979,0.214256,-0.074725,2.46,20.94,37.68,95.5077,28.9846,178.0264,3523
-0.064645,-4.048719,-9.07909,-0.750106,0.227084,-0.119318,2.46,20.94,37.68,95.5077,28.9846,178.0264,3532
-0.29689,-4.070267,-9.42626,-0.769043,0.205704,-0.12054,2.46,20.94,37.68,95.5077,28.9846,178.0264,3543
-0.29689,-4.070267,-9.42626,-0.842957,0.151948,-0.102214,2.7,19.56,38.34,95.5077,28.9846,178.0264,3553
-0.411815,-4.280963,-9.61062,-0.971239,0.077422,-0.033797,2.04,18.78,38.94,131.0622,27.1905,178.6431,3563
-0.507586,-4.297723,-9.517242,-1.054317,0.060929,-0.000811,2.04,18.78,38.94,131.0622,27.1905,178.6431,3573
-0.337593,-3.988862,-9.452597,-1.109295,0.027942,0.018126,2.46,18.42,39.18,131.0622,27.1905,178.6431,3582
-0.337593,-3.988862,-9.452597,-1.133729,-0.017262,0.026678,2.46,18.42,39.18,131.0622,27.1905,178.6431,3593
-0.466884,-3.687183,-9.191621,-1.131897,-0.034977,0.048059,2.58,17.88,39.6,131.0622,27.1905,178.6431,3602
-0.409421,-4.067873,-9.522031,-1.096466,-0.133937,0.120141,3,17.04,39.84,122.396,24.7973,178.7888,3613
-0.24661,-3.890696,-9.689631,-1.066534,-0.210906,0.201997,3,17.04,39.84,122.396,24.7973,178.7888,3623
0.169994,-3.407053,-9.751882,-1.067756,-0.207852,0.223377,2.82,16.8,40.32,122.396,24.7973,178.7888,3632
0.169994,-3.407053,-9.751882,-1.075697,-0.133937,0.166566,2.82,16.8,40.32,122.396,24.7973,178.7888,3643
0.351958,-3.249031,-9.665688,-1.060425,-0.083235,0.120141,2.7,16.44,40.38,122.396,24.7973,178.7888,3652
0.416604,-3.074249,-9.876384,-1.031104,-0.061855,0.096928,3.18,15.66,40.74,99.6969,21.6692,178.236,3664
0.292102,-2.885101,-9.852441,-0.987732,-0.040475,0.062719,3.18,15.66,40.74,99.6969,21.6692,178.236,3673
-0.014366,-2.87313,-10.020041,-0.974293,0.013892,0.031565,3.48,14.76,40.44,99.6969,21.6692,178.236,3683
-0.014366,-2.87313,-10.020041,-1.004226,-0.009931,0.032787,3.48,14.76,40.44,99.6969,21.6692,178.236,3693
-0.354353,-3.091009,-10.326508,-1.070199,-0.056357,0.09143,3.48,13.44,40.92,129.5731,19.2986,178.0194,3703
-0.430969,-3.08622,-10.501289,-1.070199,-0.056357,0.09143,3.48,13.44,40.92,129.5731,19.2986,178.0194,3713
-0.201119,-2.973689,-10.472558,-1.121512,-0.081403,0.148851,3.48,13.26,40.74,129.5731,19.2986,178.0194,3724
0.217879,-2.478074,-10.146936,-1.174046,-0.07957,0.153738,3.42,12.24,40.8,129.5731,19.2986,178.0194,3733
0.318439,-2.135693,-9.680053,-1.177101,-0.044751,0.066995,3.18,11.64,40.68,88.75,16.2397,177.8519,3744
0.318439,-2.135693,-9.680053,-1.133118,-0.023981,0.002244,3.18,11.64,40.68,88.75,16.2397,177.8519,3753
0.052674,-1.697541,-9.478934,-1.133118,-0.023981,0.002244,3.18,11.64,40.68,88.75,16.2397,177.8519,3763
-0.069434,-1.642472,-9.548368,-1.04271,-0.007488,-0.017304,3.48,9.96,41.16,88.75,16.2397,177.8519,3773
-0.196331,-1.60177,-9.720756,-0.966963,-0.035588,0.01385,2.7,9.48,42.06,130.7452,13.6564,177.7951,3782
-0.196331,-1.60177,-9.720756,-0.943139,-0.031312,0.03462,2.7,9.48,42.06,130.7452,13.6564,177.7951,3792
-0.071828,-1.489239,-9.878778,-0.944361,-0.025814,0.036452,3.06,9.12,42.54,130.7452,13.6564,177.7951,3803
-0.33041,-1.515576,-10.063137,-0.966352,-0.049638,0.048669,3.06,9.12,42.54,130.7452,13.6564,177.7951,3812
-0.519558,-1.539519,-10.043983,-1.012778,-0.059412,0.096317,3.84,7.98,42.48,101.9655,11.42,177.7586,3823
-0.409421,-1.245023,-10.00328,-1.060425,-0.039864,0.145186,3.84,7.98,42.48,101.9655,11.42,177.7586,3833
-0.409421,-1.245023,-10.00328,-1.10624,0.006562,0.156793,3.54,6.9,42.24,101.9655,11.42,177.7586,3843
-0.26337,-1.137281,-9.864412,-1.112349,0.055431,0.150073,3.54,6.9,42.24,101.9655,11.42,177.7586,3852
-0.189148,-1.101366,-9.682447,-1.09219,0.086585,0.124417,3.18,6.3,42.54,125.3161,9.0769,177.6463,3863
-0.225062,-0.996018,-9.821315,-1.068367,0.067648,0.101815,3.18,6.3,42.54,125.3161,9.0769,177.6463,3873
-0.196331,-1.161223,-10.027223,-1.056149,0.030997,0.084711,3.3,5.58,42.48,125.3161,9.0769,177.6463,3883
-0.196331,-1.161223,-10.027223,-1.07081,-0.020927,0.080434,3.3,5.58,42.48,125.3161,9.0769,177.6463,3892
0.062251,-0.967287,-10.371999,-1.10624,-0.06552,0.083489,3.42,4.38,42.66,125.9682,6.5686,177.7582,3903
0.356747,-0.629694,-9.893144,-1.121512,-0.060633,0.076769,3.42,4.38,42.66,125.9682,6.5686,177.7582,3913
0.344776,-0.141262,-9.519637,-1.101353,-0.020927,0.052946,2.94,3.54,42.9,125.9682,6.5686,177.7582,3923
0.253793,0.179571,-9.531608,-1.055538,0.046879,0.043783,2.94,3.54,42.9,125.9682,6.5686,177.7582,3932
0.253793,0.179571,-9.531608,-1.006669,0.109798,0.052335,2.94,3.42,42.72,92.8528,4.0657,177.6735,3942
0.090982,0.126897,-9.715967,-1.003004,0.131178,0.068828,2.94,3.42,42.72,92.8528,4.0657,177.6735,3952
-0.126897,0.05028,-10.005674,-1.019497,0.143396,0.090819,3.54,2.34,42.84,92.8528,4.0657,177.6735,3963
-0.390267,0.047885,-10.024829,-1.029271,0.151337,0.110367,3.54,2.34,42.84,92.8528,4.0657,177.6735,3972
-0.215485,0.119714,-10.163696,-1.024384,0.129957,0.123195,3.3,0.9,42.96,101.2786,1.7025,177.8784,3983
-0.215485,0.119714,-10.163696,-1.029271,0.12507,0.114643,3.3,0.9,42.96,101.2786,1.7025,177.8784,3993
-0.153234,0.191542,-10.228342,-1.033547,0.115296,0.104258,2.52,-0.18,43.08,101.2786,1.7025,177.8784,4003
0.052674,0.59378,-10.371999,-1.033547,0.115296,0.104258,2.52,-0.18,43.08,101.2786,1.7025,177.8784,4013
0.074223,0.749408,-10.489318,-1.041489,0.093305,0.087765,2.76,-0.24,43.02,101.2786,1.7025,177.8784,4023
0.074223,0.749408,-10.489318,-1.071421,0.066427,0.077991,2.46,-1.68,43.98,147.4377,-1.2406,178.2664,4032
-0.086194,0.749408,-10.431855,-1.100743,0.106133,0.079824,2.46,-1.68,43.98,147.4377,-1.2406,178.2664,4043
-0.134079,0.90743,-10.309748,-1.129453,0.145228,0.069439,2.52,-2.1,44.4,147.4377,-1.2406,178.2664,4053
-0.272947,1.108549,-9.991309,-1.139227,0.15317,0.065774,2.52,-2.1,44.4,147.4377,-1.2406,178.2664,4062
-0.272947,1.108549,-9.991309,-1.115403,0.145839,0.06333,2.82,-2.58,43.62,94.4417,-3.7091,178.4952,4073
-0.177176,1.149252,-9.799767,-1.039045,0.115296,0.062719,2.82,-2.58,43.62,94.4417,-3.7091,178.4952,4082
0.105348,1.118126,-10.386364,-0.979791,-0.00199,0.059054,2.82,-3.96,43.38,94.4417,-3.7091,178.4952,4093
-0.10056,1.017567,-10.76466,-0.99323,-0.038642,0.035841,2.82,-3.96,43.38,94.4417,-3.7091,178.4952,4103
-0.10056,1.017567,-10.76466,-1.031715,-0.01604,0.03523,2.82,-3.96,43.38,94.4417,-3.7091,178.4952,4112
0.126897,1.312063,-10.7479,-1.054928,-0.005045,0.022402,2.46,-4.74,43.8,101.61,-6.1944,178.7881,4123
0.177176,1.666415,-10.213976,-1.034158,-0.000768,-0.00753,2.34,-5.94,44.1,101.61,-6.1944,178.7881,4132
0.045491,1.84838,-9.620196,-0.946804,-0.012986,-0.016693,2.34,-5.94,44.1,101.61,-6.1944,178.7881,4143
0.045491,1.84838,-9.620196,-0.850288,-0.042307,0.002855,2.22,-6.72,44.1,110.8125,-8.5257,178.7479,4153
-0.086194,2.315264,-9.47654,-0.768432,-0.061244,0.040728,2.22,-6.72,44.1,110.8125,-8.5257,178.7479,4162
-0.289707,2.561874,-9.548368,-0.729336,-0.028868,0.070661,2.4,-7.32,44.4,110.8125,-8.5257,178.7479,4173
-0.205908,2.253013,-10.048771,-0.70368,-0.000158,0.114643,2.4,-7.32,44.4,110.8125,-8.5257,178.7479,4182
-0.134079,1.910631,-10.609032,-0.737889,-0.017262,0.186114,2.52,-7.92,44.34,84.9349,-10.5155,178.6649,4193
-0.134079,1.910631,-10.609032,-0.805084,-0.013597,0.236816,2.52,-7.92,44.34,84.9349,-10.5155,178.6649,4202
-0.143656,1.862746,-10.609032,-0.88022,-0.01604,0.280798,2.22,-8.88,43.8,84.9349,-10.5155,178.6649,4213
-0.086194,2.353572,-10.443827,-1.00728,-0.033755,0.292405,2.22,-8.88,43.8,84.9349,-10.5155,178.6649,4223
0.416604,3.25382,-10.125388,-1.00728,-0.033755,0.292405,2.22,-8.88,43.8,84.9349,-10.5155,178.6649,4232
0.416604,3.25382,-10.125388,-1.126399,-0.012986,0.235594,1.98,-10.2,44.04,114.334,-12.2197,178.701,4243
0.572232,2.983266,-9.670476,-1.259567,0.062151,0.129915,2.22,-10.38,43.62,114.334,-12.2197,178.701,4252
0.699128,2.885101,-9.548368,-1.37441,0.079866,0.059665,2.22,-10.38,43.62,114.334,-12.2197,178.701,4263
0.418998,2.480469,-9.818921,-1.37441,0.079866,0.059665,2.22,-11.16,42.6,77.9107,-14.6464,178.8176,4273
0.167599,2.5092,-9.957788,-1.45871,0.078644,0.096928,2.22,-11.16,42.6,77.9107,-14.6464,178.8176,4282
0.167599,2.5092,-9.957788,-1.514298,0.134233,0.128693,2.16,-12.48,42.06,77.9107,-14.6464,178.8176,4293
-0.292102,3.122135,-9.677659,-1.525905,0.164165,0.188558,2.16,-12.48,42.06,77.9107,-14.6464,178.8176,4303
-0.222668,3.529161,-9.093455,-1.453212,0.140341,0.252698,2.16,-12.48,42.06,77.9107,-14.6464,178.8176,4312
0.098165,4.055902,-8.674458,-1.36708,0.112242,0.262472,2.04,-13.62,41.34,118.8165,-17.8691,179.0744,4323
0.342381,4.288146,-8.540379,-1.225359,0.087807,0.180005,2.34,-15,40.62,118.8165,-17.8691,179.0744,4333
0.447729,4.06069,-8.612206,-1.120901,0.078644,0.093263,2.34,-15,40.62,118.8165,-17.8691,179.0744,4343
0.447729,4.06069,-8.612206,-1.020719,0.069481,0.043172,2.1,-15.9,40.14,106.7847,-21.1187,179.548,4353
0.495615,3.909851,-8.600235,-0.90832,0.029775,0.007741,2.1,-15.9,40.14,106.7847,-21.1187,179.548,4363
0.634483,4.01041,-8.729526,-0.819744,0.020612,-0.009974,1.74,-17.16,40.14,106.7847,-21.1187,179.548,4373
0.500403,3.957736,-8.947405,-0.75316,0.017557,-0.019137,1.74,-17.16,40.14,106.7847,-21.1187,179.548,4382
0.500403,3.957736,-8.947405,-0.725671,0.005951,-0.010584,1.92,-17.7,40.14,108.4855,-23.4323,179.7291,4393
0.395055,4.379129,-9.316123,-0.753771,-0.021538,-0.005698,1.92,-17.7,40.14,108.4855,-23.4323,179.7291,4403
0.004789,4.611374,-8.794171,-0.808749,0.04016,0.014461,1.92,-17.7,40.14,108.4855,-23.4323,179.7291,4413
-0.112531,4.577853,-8.758257,-0.846623,0.098192,0.092652,2.7,-18,39.9,108.4855,-23.4323,179.7291,4423
-0.112531,4.577853,-8.758257,-0.898546,0.192265,0.187947,2.82,-18.9,39.9,93.7198,-25.1633,179.7412,4432
0.031126,4.336032,-7.800547,-0.831351,0.326655,0.256975,2.82,-18.9,39.9,93.7198,-25.1633,179.7412,4442
0.548289,4.618556,-8.099831,-0.778206,0.341316,0.276522,1.38,-19.08,39.72,93.7198,-25.1633,179.7412,4453
1.043904,5.05192,-8.43503,-0.736056,0.341927,0.196499,1.38,-19.08,39.72,93.7198,-25.1633,179.7412,4463
1.175589,4.977698,-8.274613,-0.736056,0.341927,0.196499,1.62,-19.38,39.54,59.4219,-27.1101,-179.6882,4473
1.175589,4.977698,-8.274613,-0.598,0.338873,0.052335,1.62,-19.38,39.54,59.4219,-27.1101,-179.6882,4483
0.811659,4.925023,-8.284191,-0.519199,0.257628,0.035841,1.92,-20.46,39.24,59.4219,-27.1101,-179.6882,4492
0.960104,5.238673,-8.810931,-0.437954,0.329099,-0.022191,1.92,-20.46,39.24,59.4219,-27.1101,-179.6882,4503
0.888276,5.566689,-9.895537,-0.40008,0.307719,-0.129703,1.92,-20.46,39.24,59.4219,-27.1101,-179.6882,4513
0.651243,5.66246,-10.541992,-0.405578,0.247243,-0.206061,1.26,-21.54,39,109.2376,-28.6224,-178.7579,4522
0.651243,5.66246,-10.541992,-0.497208,0.103689,-0.319682,1.38,-22.08,38.34,109.2376,-28.6224,-178.7579,4532
0.143657,5.478101,-10.879584,-0.705513,-0.044751,-0.344117,1.38,-22.08,38.34,109.2376,-28.6224,-178.7579,4543
-0.22985,5.389513,-10.783813,-0.915039,-0.122942,-0.283641,1.68,-21.9,37.8,85.0637,-30.439,-178.594,4553
-0.335198,5.260222,-10.46777,-1.138005,-0.168146,-0.186514,1.68,-21.9,37.8,85.0637,-30.439,-178.594,4563
-0.253793,5.341627,-10.022434,-1.341423,-0.173032,-0.068617,1.86,-22.08,37.68,85.0637,-30.439,-178.594,4573
-0.253793,5.341627,-10.022434,-1.502081,-0.163869,0.062109,1.86,-22.08,37.68,85.0637,-30.439,-178.594,4583
0,5.674432,-9.61062,-1.554615,-0.177309,0.117697,1.44,-22.56,37.32,92.9588,-31.7673,-178.879,4593
0.138868,6.038361,-9.220352,-1.567444,-0.16448,0.13358,1.44,-22.56,37.32,92.9588,-31.7673,-178.879,4603
0.138868,6.038361,-9.220352,-1.574774,-0.180974,0.11953,1.44,-22.56,37.32,92.9588,-31.7673,-178.879,4613
0.325621,6.25624,-9.083879,-1.597376,-0.204797,0.068217,1.5,-23.22,37.14,92.9588,-31.7673,-178.879,4622
0.282524,6.193989,-8.722343,-1.631584,-0.201132,0.008352,1.68,-24.6,36.42,82.6436,-35.239,-179.0912,4632
0.093377,5.782174,-8.413482,-1.673123,-0.197467,-0.019747,1.68,-24.6,36.42,82.6436,-35.239,-179.0912,4642
0.071828,5.79654,-8.025609,-1.682897,-0.19258,-0.011195,1.68,-26.1,35.16,82.6436,-35.239,-179.0912,4653
0.071828,5.79654,-8.025609,-1.679843,-0.176698,0.015683,1.68,-26.1,35.16,82.6436,-35.239,-179.0912,4663
0.162811,6.251452,-7.630553,-1.675567,-0.144322,0.04195,2.1,-26.82,34.74,66.9896,-38.948,-179.4568,4672
0.284919,6.421445,-7.190007,-1.679843,-0.069796,0.07005,2.1,-26.82,34.74,66.9896,-38.948,-179.4568,4683
0.605752,6.172441,-6.835654,-1.788577,0.024277,0.132969,1.74,-27.84,34.2,66.9896,-38.948,-179.4568,4693
1.319246,6.320886,-6.265817,-1.902198,0.050544,0.145797,1.74,-27.84,34.2,66.9896,-38.948,-179.4568,4702
1.319246,6.320886,-6.265817,-1.902198,0.050544,0.145797,1.74,-27.84,34.2,66.9896,-38.948,-179.4568,4713
1.02475,6.452571,-5.667248,-1.8686,0.09025,0.095095,1.62,-29.28,32.7,62.9787,-42.7734,-179.6765,4723
1.087001,7.237893,-5.047131,-1.643191,0.086585,-0.049069,1.62,-30.6,31.68,62.9787,-42.7734,-179.6765,4733
0.866728,7.410281,-4.910657,-1.447714,0.071314,-0.154749,1.62,-30.6,31.68,62.9787,-42.7734,-179.6765,4742
0.866728,7.410281,-4.910657,-1.24002,0.038327,-0.229885,1.62,-30.6,31.68,62.9787,-42.7734,-179.6765,4752
0.632089,7.848433,-5.135719,-1.032325,-0.020316,-0.285474,1.5,-31.8,30.72,72.4106,-46.9123,-179.2692,4763
0.277736,8.016032,-5.420638,-0.864949,-0.03009,-0.343506,1.74,-32.04,28.68,72.4106,-46.9123,-179.2692,4772
-0.057463,7.690411,-5.990475,-0.805084,-0.026425,-0.358167,1.74,-32.04,28.68,72.4106,-46.9123,-179.2692,4783
-0.249005,7.434223,-6.280183,-0.819744,-0.034977,-0.331289,1.86,-32.52,27.96,89.8694,-49.7015,-179.7459,4793
-0.249005,7.434223,-6.280183,-0.883274,-0.042307,-0.259207,1.86,-32.52,27.96,89.8694,-49.7015,-179.7459,4802
-0.359141,7.343241,-6.158075,-0.948026,-0.012375,-0.17674,2.28,-33.36,28.26,89.8694,-49.7015,-179.7459,4812
-0.215485,7.513234,-6.004841,-0.99323,0.039549,-0.090608,2.28,-33.36,28.26,89.8694,-49.7015,-179.7459,4823
-0.002394,7.970541,-5.978504,-1.02805,0.062762,-0.015471,2.76,-33.48,27.9,60.7521,-51.6305,179.324,4833
0.320833,8.253065,-5.97611,-1.06348,0.087196,0.001633,2.76,-33.48,27.9,60.7521,-51.6305,179.324,4842
0.320833,8.253065,-5.97611,-1.103186,0.123237,-0.015471,2.46,-34.08,27.06,60.7521,-51.6305,179.324,4853
0.129291,8.178843,-5.971321,-1.163051,0.1324,-0.018526,2.46,-34.08,27.06,60.7521,-51.6305,179.324,4862
-0.191542,7.814913,-5.803722,-1.235133,0.142174,0.007741,2.4,-34.74,27,52.6692,-53.9636,179.2671,4872
-0.433364,7.529995,-5.506832,-1.312102,0.177604,0.079213,2.4,-34.74,27,52.6692,-53.9636,179.2671,4883
-0.500403,7.295356,-4.929812,-1.353641,0.227084,0.177562,2.88,-34.98,26.88,52.6692,-53.9636,179.2671,4893
-0.500403,7.295356,-4.929812,-1.354862,0.238691,0.307065,2.88,-34.98,26.88,52.6692,-53.9636,179.2671,4903
-0.177176,7.486898,-4.288146,-1.263233,0.261293,0.429239,2.52,-35.64,25.56,54.6031,-56.7688,179.6926,4913
0.29689,7.834068,-3.866754,-1.139227,0.297334,0.461004,2.52,-35.64,25.56,54.6031,-56.7688,179.6926,4922
0.780534,8.600235,-3.902668,-1.00728,0.310162,0.425573,2.52,-36.72,24,54.6031,-56.7688,179.6926,4932
1.113338,9.105427,-4.182798,-0.9016,0.309551,0.325391,2.52,-36.72,24,54.6031,-56.7688,179.6926,4943
1.113338,9.105427,-4.182798,-0.855786,0.299166,0.197721,2.4,-37.02,23.28,67.8898,-59.6433,-178.3091,4952
1.189955,8.92825,-4.58743,-0.863116,0.283284,0.095095,2.4,-37.02,23.28,67.8898,-59.6433,-178.3091,4963
1.04151,8.707977,-4.755029,-0.919316,0.269234,0.002244,1.86,-36.84,22.86,67.8898,-59.6433,-178.3091,4973
0.988836,8.554744,-4.678413,-0.968796,0.247243,-0.025245,1.86,-36.84,22.86,67.8898,-59.6433,-178.3091,4983
0.988836,8.554744,-4.678413,-1.024995,0.208758,-0.027689,1.74,-37.08,22.14,63.5363,-61.6669,-176.5063,4993
1.02475,8.595447,-4.405465,-1.03538,0.183713,-0.033797,1.74,-37.08,22.14,63.5363,-61.6669,-176.5063,5003
0.979258,9.014444,-4.087027,-1.03538,0.183713,-0.033797,0.9,-37.56,21.72,63.5363,-61.6669,-176.5063,5013
0.574626,9.268238,-4.022382,-0.998728,0.211813,-0.055178,0.9,-37.56,21.72,63.5363,-61.6669,-176.5063,5023
0.574626,9.268238,-4.022382,-0.948026,0.228306,-0.047847,0.9,-37.56,21.72,63.5363,-61.6669,-176.5063,5033
0.306467,9.555551,-4.151672,-0.935809,0.223419,-0.014861,0.72,-38.22,20.88,51.317,-63.924,-175.7617,5042
0.124502,9.541185,-4.173221,-0.971239,0.25213,0.015683,0.96,-38.76,20.4,51.317,-63.924,-175.7617,5053
0.304073,9.328094,-4.182798,-1.060425,0.268623,0.07738,0.96,-38.76,20.4,51.317,-63.924,-175.7617,5062
0.596174,9.055147,-3.909851,-1.156942,0.293058,0.128693,1.08,-39.72,19.38,68.6355,-66.1164,-175.0317,5073
0.967287,9.009656,-3.531555,-1.202146,0.306497,0.151295,1.08,-39.72,19.38,68.6355,-66.1164,-175.0317,5083
0.967287,9.009656,-3.531555,-1.202146,0.306497,0.151295,1.08,-39.72,19.38,68.6355,-66.1164,-175.0317,5092
0.993624,9.608225,-3.057489,-1.166716,0.291836,0.145797,1.44,-40.02,18.12,68.6355,-66.1164,-175.0317,5103
0.926584,9.941029,-3.028757,-1.087914,0.248465,0.081045,0.96,-39.72,16.74,71.3036,-68.6044,-173.2176,5113
0.632089,9.876384,-3.301705,-1.021941,0.229528,0.007131,0.96,-39.72,16.74,71.3036,-68.6044,-173.2176,5122
0.538712,9.838076,-3.505218,-1.023774,0.235636,-0.025856,0.66,-40.2,16.2,71.3036,-68.6044,-173.2176,5133
0.538712,9.838076,-3.505218,-1.105629,0.215478,-0.000811,0.66,-40.2,16.2,71.3036,-68.6044,-173.2176,5142
0.605752,9.522031,-3.117346,-1.266287,0.24541,0.059665,0.6,-40.56,15.9,66.3013,-71.025,-171.3802,5153
0.778139,9.397529,-2.631308,-1.351197,0.300388,0.099982,0.6,-40.56,15.9,66.3013,-71.025,-171.3802,5163
0.830813,9.4095,-2.348783,-1.420225,0.327877,0.150073,0.6,-40.56,15.9,66.3013,-71.025,-171.3802,5172
0.847573,9.421472,-1.587404,-1.36708,0.379801,0.162901,0.36,-40.86,14.64,66.3013,-71.025,-171.3802,5183
0.847573,9.421472,-1.587404,-1.265065,0.383466,0.149462,-0.42,-41.28,13.56,57.1383,-73.8205,-168.7585,5193
0.69434,9.423865,-1.491633,-1.139838,0.380411,0.136023,-0.42,-41.28,13.56,57.1383,-73.8205,-168.7585,5203
0.567443,9.598648,-1.647261,-1.015832,0.361475,0.092041,-0.42,-41.1,12.3,57.1383,-73.8205,-168.7585,5213
0.514769,9.670476,-1.838803,-0.9578,0.340705,0.07005,-0.42,-41.1,12.3,57.1383,-73.8205,-168.7585,5223
0.490826,9.881172,-2.054288,-0.951691,0.30161,0.046837,0.24,-41.46,11.82,62.7406,-76.5744,-164.0239,5233
0.490826,9.881172,-2.054288,-0.951691,0.30161,0.046837,0.24,-41.46,11.82,62.7406,-76.5744,-164.0239,5243
0.474066,9.783007,-2.312869,-1.052484,0.184324,0.06333,0.12,-41.82,11.04,62.7406,-76.5744,-164.0239,5252
0.811659,10.034406,-2.071048,-1.122734,0.170885,0.061498,0.12,-41.82,11.04,62.7406,-76.5744,-164.0239,5263
0.811659,10.034406,-2.071048,-1.122734,0.170885,0.061498,0.12,-41.82,11.04,62.7406,-76.5744,-164.0239,5273
1.450931,10.10384,-1.726272,-1.157553,0.200817,0.033398,0,-41.76,10.38,75.2468,-78.6542,-159.5113,5283
1.891477,10.245102,-1.446142,-1.214363,0.29489,-0.02158,0.24,-42.54,9.78,75.2468,-78.6542,-159.5113,5293
1.546702,9.792584,-1.151646,-1.231468,0.357199,-0.077169,0.24,-42.54,9.78,75.2468,-78.6542,-159.5113,5302
-0.203513,9.117398,-1.307274,-1.235133,0.403013,-0.010584,0.18,-43.2,8.52,74.273,-80.9775,-152.7649,5312
-0.203513,9.117398,-1.307274,-1.273006,0.381633,0.15496,0.18,-43.2,8.52,74.273,-80.9775,-152.7649,5322
-0.768562,9.107821,-1.247417,-1.307215,0.304053,0.347993,0.18,-43.2,8.52,74.273,-80.9775,-152.7649,5332
-0.550683,9.419077,-1.041509,-1.327984,0.178826,0.470777,0.12,-43.38,7.14,74.273,-80.9775,-152.7649,5343
0.586597,9.584282,-0.52674,-1.316989,0.124459,0.455506,-0.3,-43.2,5.88,97.0608,-83.2894,-139.6901,5352
1.702329,9.871595,-0.169993,-1.280948,0.087807,0.367541,-0.3,-43.2,5.88,97.0608,-83.2894,-139.6901,5363
1.702329,9.871595,-0.169993,-1.220472,0.037105,0.227042,-1.38,-42.42,5.22,97.0608,-83.2894,-139.6901,5373
2.042316,10.00328,0.124502,-1.174046,0.041381,0.089597,-1.38,-42.42,5.22,97.0608,-83.2894,-139.6901,5383
1.946545,10.118205,0.129291,-1.158775,0.009616,-0.03563,-1.62,-42.36,4.92,97.0608,-83.2894,-139.6901,5392
1.376708,10.108628,0.062251,-1.164272,-0.010542,-0.100993,-1.62,-43.08,4.08,110.7047,-84.3804,-104.8216,5403
1.096578,9.689631,0.272947,-1.188707,0.007784,-0.100382,-1.62,-43.08,4.08,110.7047,-84.3804,-104.8216,5413
1.096578,9.689631,0.272947,-1.200924,0.051766,-0.086332,-1.2,-43.38,3.24,110.7047,-84.3804,-104.8216,5423
1.312063,9.613013,0.770957,-1.200924,0.051766,-0.086332,-1.2,-43.38,3.24,110.7047,-84.3804,-104.8216,5432
1.436565,9.703996,1.125309,-1.189318,0.128124,-0.071671,-1.08,-43.74,1.92,149.4465,-84.5137,-77.1077,5443
1.350371,9.845258,1.28812,-1.161218,0.206926,-0.045404,-1.08,-43.74,1.92,149.4465,-84.5137,-77.1077,5453
1.266571,10.027223,1.175589,-1.138005,0.263125,-0.030743,-0.96,-43.68,0.12,149.4465,-84.5137,-77.1077,5462
1.266571,10.027223,1.175589,-1.115403,0.267401,-0.02158,-0.96,-43.68,0.12,149.4465,-84.5137,-77.1077,5473
1.02475,10.020041,1.166012,-1.076919,0.231971,-0.053956,-0.96,-43.68,0.12,149.4465,-84.5137,-77.1077,5483
0.706311,9.713573,0.986441,-1.041489,0.187989,-0.086332,-1.14,-43.2,-0.96,183.1884,-83.4783,-52.9067,5492
0.493221,9.668081,0.979258,-1.023774,0.120183,-0.075947,-1.38,-42.54,-1.5,183.1884,-83.4783,-52.9067,5503
0.493221,9.668081,0.979258,-1.011556,0.041992,-0.0283,-1.38,-42.54,-1.5,183.1884,-83.4783,-52.9067,5513
0.5435,9.613013,1.161223,-1.012167,0.031607,0.029733,-1.26,-42.48,-1.8,186.7384,-81.8362,-38.1349,5522
0.754197,9.737515,1.249811,-1.043932,0.035883,0.118919,-1.26,-42.48,-1.8,186.7384,-81.8362,-38.1349,5534
0.955316,9.732727,1.640078,-1.08486,0.089029,0.208716,-1.02,-43.32,-2.88,186.7384,-81.8362,-38.1349,5542
1.151646,9.828498,1.889083,-1.118458,0.220976,0.295459,-1.02,-43.32,-2.88,186.7384,-81.8362,-38.1349,5553
1.151646,9.828498,1.889083,-1.130675,0.276564,0.319283,-1.56,-43.56,-4.62,197.5993,-79.846,-30.3194,5562
1.163618,9.534002,1.877111,-1.119068,0.304053,0.296681,-1.56,-43.56,-4.62,197.5993,-79.846,-30.3194,5573
0.754197,9.205987,1.819649,-1.124566,0.28756,0.247812,-1.8,-42.96,-5.04,197.5993,-79.846,-30.3194,5584
0.462095,9.076695,1.89866,-1.124566,0.28756,0.247812,-1.8,-42.96,-5.04,197.5993,-79.846,-30.3194,5594
0.462095,9.076695,1.89866,-1.152055,0.219143,0.209938,-0.96,-42.42,-6.12,206.6884,-77.2924,-26.618,5603
0.612934,9.009656,2.221887,-1.172825,0.183713,0.19039,-0.96,-42.42,-6.12,206.6884,-77.2924,-26.618,5612
0.900247,9.28021,2.523566,-1.181987,0.137898,0.16901,-1.08,-43.02,-7.02,206.6884,-77.2924,-26.618,5623
0.900247,9.28021,2.523566,-1.174657,0.110409,0.134191,-1.08,-43.02,-7.02,206.6884,-77.2924,-26.618,5633
1.228263,9.435837,2.648068,-1.188096,0.087196,0.082878,-1.14,-43.14,-7.08,206.6884,-77.2924,-26.618,5642
1.683175,9.433443,2.341601,-1.249793,0.068259,0.010185,-1.2,-42.66,-8.22,203.2433,-73.4121,-21.962,5653
1.936968,9.308941,2.604971,-1.37441,0.095137,-0.079612,-1.2,-42.66,-8.22,203.2433,-73.4121,-21.962,5662
1.936968,9.308941,2.604971,-1.503913,0.169663,-0.164523,-1.74,-42.48,-8.94,203.2433,-73.4121,-21.962,5672
1.989642,9.203592,3.0527,-1.503913,0.169663,-0.164523,-1.74,-42.48,-8.94,203.2433,-73.4121,-21.962,5682
1.623318,8.854029,3.385505,-1.575996,0.213645,-0.199342,-1.44,-41.94,-9.6,203.2433,-73.4121,-21.962,5693
0.818842,8.643332,3.900274,-1.60043,0.272899,-0.163301,-1.5,-41.58,-11.1,212.8694,-70.5649,-18.1175,5703
0.818842,8.643332,3.900274,-1.532624,0.236247,-0.070449,-1.5,-41.58,-11.1,212.8694,-70.5649,-18.1175,5712
0.069434,8.557138,4.242655,-1.45932,0.192265,0.029122,-1.68,-42,-12.18,212.8694,-70.5649,-18.1175,5723
0.196331,8.650515,4.527574,-1.324319,0.13912,0.130525,-1.68,-42,-12.18,212.8694,-70.5649,-18.1175,5733
0.500403,8.535589,4.80531,-1.214974,0.14645,0.18306,-1.44,-41.58,-13.5,206.8934,-67.2258,-14.2875,5743
0.74462,8.55235,4.917841,-1.117847,0.143396,0.224599,-1.44,-41.58,-13.5,206.8934,-67.2258,-14.2875,5752
0.74462,8.55235,4.917841,-1.027439,0.148283,0.221544,-0.9,-40.14,-14.82,206.8934,-67.2258,-14.2875,5762
0.988836,8.655303,4.927418,-0.966352,0.170274,0.184892,-0.9,-40.14,-14.82,206.8934,-67.2258,-14.2875,5772
1.199532,8.645726,4.817281,-0.92237,0.183102,0.164734,-1.68,-39.96,-15.18,201.9831,-64.3927,-13.2722,5783
1.326428,8.894731,4.817281,-0.916261,0.20998,0.140299,-1.68,-39.96,-15.18,201.9831,-64.3927,-13.2722,5792
1.575433,8.7822,4.723904,-0.943139,0.284506,0.081656,-1.44,-39.72,-16.44,201.9831,-64.3927,-13.2722,5802
1.575433,8.7822,4.723904,-0.96452,0.292447,0.066995,-1.44,-39.72,-16.44,201.9831,-64.3927,-13.2722,5812
1.23784,8.384751,4.728693,-0.948637,0.271067,0.096317,-0.9,-39.66,-17.04,215.7238,-62.1944,-12.577,5823
0.775745,8.360808,4.908263,-0.948637,0.271067,0.096317,-0.9,-39.66,-17.04,215.7238,-62.1944,-12.577,5833
0.828419,8.382356,5.056709,-0.937031,0.25946,0.129915,-1.02,-39.66,-17.22,215.7238,-62.1944,-12.577,5843
0.90743,8.621783,5.217125,-0.919316,0.25946,0.173286,-1.14,-39.42,-17.76,215.7238,-62.1944,-12.577,5853
0.90743,8.621783,5.217125,-0.911985,0.265569,0.189168,-1.14,-39.42,-17.76,215.7238,-62.1944,-12.577,5863
1.065452,8.535589,5.157268,-0.916261,0.263736,0.175119,-0.84,-39.12,-18.72,217.5601,-59.4908,-11.3319,5873
1.278543,8.444607,5.056709,-0.938863,0.255795,0.155571,-0.84,-39.12,-18.72,217.5601,-59.4908,-11.3319,5882
1.213897,8.55235,5.099806,-0.991398,0.254573,0.131747,-0.84,-39.12,-19.32,217.5601,-59.4908,-11.3319,5893
1.048692,8.561927,5.1022,-1.076919,0.296723,0.123195,-0.84,-39.12,-19.32,217.5601,-59.4908,-11.3319,5903
1.048692,8.561927,5.1022,-1.172825,0.332153,0.145797,-1.08,-38.58,-20.64,219.6995,-57.3391,-10.7145,5913
0.849968,8.178843,5.159662,-1.172825,0.332153,0.145797,-1.08,-38.58,-20.64,219.6995,-57.3391,-10.7145,5922
0.837996,7.846039,5.248251,-1.264454,0.352923,0.173286,-1.02,-37.92,-21.66,219.6995,-57.3391,-10.7145,5933
0.885882,7.498869,5.514015,-1.309048,0.35109,0.179395,-1.02,-37.92,-21.66,219.6995,-57.3391,-10.7145,5943
0.955316,7.582669,5.861185,-1.318211,0.31566,0.199553,-0.36,-37.86,-22.32,221.5233,-54.749,-9.798,5953
0.955316,7.582669,5.861185,-1.324319,0.303442,0.178173,-0.36,-37.86,-22.32,221.5233,-54.749,-9.798,5963
1.089395,7.467743,6.186806,-1.300495,0.339483,0.136634,-0.36,-37.62,-22.74,221.5233,-54.749,-9.798,5972
0.804476,7.079871,6.308914,-1.277893,0.338873,0.159236,-0.36,-37.62,-22.74,221.5233,-54.749,-9.798,5983
0.675186,7.094237,6.34004,-1.249183,0.304053,0.184892,-0.9,-36.78,-23.7,213.2248,-51.7215,-8.9428,5993
0.675186,7.094237,6.34004,-1.224748,0.283284,0.146408,-0.9,-36.78,-23.7,213.2248,-51.7215,-8.9428,6002
0.682368,6.921849,6.344828,-1.208255,0.258238,0.101815,-1.56,-35.94,-25.2,213.2248,-51.7215,-8.9428,6013
0.723071,6.751855,6.445388,-1.182598,0.200817,0.082267,-1.56,-35.94,-25.2,213.2248,-51.7215,-8.9428,6023
0.763774,6.771009,6.814106,-1.126399,0.175772,0.030954,-1.2,-35.46,-25.74,217.1532,-48.8312,-8.1514,6033
0.730254,6.605804,6.991283,-1.126399,0.175772,0.030954,-1.2,-35.46,-25.74,217.1532,-48.8312,-8.1514,6042
0.730254,6.605804,6.991283,-1.057371,0.139731,0.012018,-0.84,-34.32,-26.28,217.1532,-48.8312,-8.1514,6053
0.61054,6.72073,7.259442,-0.976737,0.121405,0.016294,-0.84,-34.32,-26.28,217.1532,-48.8312,-8.1514,6062
0.814053,6.730307,7.371972,-0.946804,0.170885,0.016294,-1.08,-33.84,-26.76,211.606,-46.2364,-7.4651,6072
1.046298,6.560313,7.26423,-0.947415,0.219754,0.016294,-1.08,-33.84,-26.76,211.606,-46.2364,-7.4651,6083
1.149252,6.514822,7.249864,-0.96452,0.2167,0.005909,-0.36,-33.84,-27.48,211.606,-46.2364,-7.4651,6092
1.149252,6.514822,7.249864,-0.984067,0.186767,-0.061897,-0.36,-33.84,-27.48,211.606,-46.2364,-7.4651,6103
1.18756,6.426234,7.321693,-1.003615,0.166609,-0.13459,0.18,-33.42,-28.32,217.1818,-44.054,-6.8226,6113
0.967287,6.313703,7.467743,-1.015221,0.140952,-0.180405,0.18,-33.42,-28.32,217.1818,-44.054,-6.8226,6122
0.778139,6.471725,7.647314,-1.029882,0.115296,-0.201785,-0.6,-32.4,-29.22,217.1818,-44.054,-6.8226,6133
0.699128,6.32328,7.599428,-1.043932,0.092694,-0.199953,-0.6,-32.4,-29.22,217.1818,-44.054,-6.8226,6142
0.572232,6.193989,7.525206,-1.079362,0.065205,-0.217057,-1.02,-31.74,-30.3,208.5535,-41.8084,-5.9547,6153
0.572232,6.193989,7.525206,-1.079362,0.065205,-0.217057,-1.02,-31.74,-30.3,208.5535,-41.8084,-5.9547,6162
0.59378,5.681614,7.441406,-1.192372,0.088418,-0.257985,-0.36,-31.32,-30.78,208.5535,-41.8084,-5.9547,6173
0.486038,5.293742,7.59464,-1.192372,0.088418,-0.257985,-0.36,-31.32,-30.78,208.5535,-41.8084,-5.9547,6182
0.39745,5.384724,7.872376,-1.277893,0.161722,-0.163301,1.14,-30.84,-30.78,220.5379,-39.4155,-5.1235,6192
0.306467,5.523592,8.075889,-1.312713,0.211813,-0.125427,1.14,-30.84,-30.78,220.5379,-39.4155,-5.1235,6203
0.306467,5.523592,8.075889,-1.295608,0.192265,-0.126649,1.14,-29.94,-31.14,220.5379,-39.4155,-5.1235,6213
0.562655,5.525986,8.166871,-1.295608,0.192265,-0.126649,1.14,-29.94,-31.14,220.5379,-39.4155,-5.1235,6222
0.672791,5.418244,8.444607,-1.223526,0.130568,-0.20545,0.36,-29.04,-32.82,213.7945,-36.5903,-4.2666,6233
0.34717,5.049526,8.557138,-1.144725,0.115907,-0.276922,0.36,-29.04,-32.82,213.7945,-36.5903,-4.2666,6243
0.34717,5.049526,8.557138,-1.065923,0.079866,-0.297691,0.36,-29.04,-32.82,213.7945,-36.5903,-4.2666,6252
0.03352,4.728693,8.559532,-1.003615,0.060929,-0.281198,0.9,-28.32,-33.96,213.7945,-36.5903,-4.2666,6263
0.179571,4.606585,8.614601,-0.940696,0.032218,-0.239659,1.02,-27.36,-33.78,221.0247,-33.8952,-3.4802,6273
0.31365,4.843618,8.727132,-0.860062,0.003508,-0.199953,1.02,-27.36,-33.78,221.0247,-33.8952,-3.4802,6282
0.31365,4.843618,8.727132,-0.812414,0.007784,-0.188957,1.2,-26.64,-34.08,221.0247,-33.8952,-3.4802,6293
0.217879,4.647288,8.497281,-0.78859,-0.011153,-0.164523,1.2,-26.64,-34.08,221.0247,-33.8952,-3.4802,6303
0.052674,4.563488,8.461368,-0.792866,-0.017262,-0.128481,1.56,-26.52,-34.86,215.5573,-30.9334,-2.8653,6314
0.052674,4.563488,8.461368,-0.792866,-0.017262,-0.128481,1.56,-26.52,-34.86,215.5573,-30.9334,-2.8653,6323
0.052674,4.563488,8.461368,-0.792866,-0.017262,-0.128481,1.56,-26.52,-34.86,215.5573,-30.9334,-2.8653,6332
-0.002394,4.489266,8.317711,-0.819744,-0.019705,-0.095495,1.74,-25.86,-35.22,215.5573,-30.9334,-2.8653,6342
-0.002394,4.489266,8.317711,-1.050652,0.023666,-0.168799,1.74,-25.86,-35.22,215.5573,-30.9334,-2.8653,6353
0.67758,4.836436,8.265037,-1.050652,0.023666,-0.168799,1.38,-23.7,-35.88,228.2524,-30.4722,-2.8269,6362
0.902642,4.644893,8.449396,-1.332871,0.254573,-0.309298,1.38,-23.1,-36.18,228.2524,-30.4722,-2.8269,6373
0.469278,3.967313,8.317711,-1.332871,0.254573,-0.309298,1.38,-23.1,-36.18,228.2524,-30.4722,-2.8269,6382
-0.081405,3.55071,8.660092,-1.447103,0.255184,-0.276922,1.68,-22.92,-36.96,227.4764,-27.6194,-2.447,6393
-0.081405,3.55071,8.660092,-1.48009,0.24541,-0.218889,1.68,-22.92,-36.96,227.4764,-27.6194,-2.447,6403
-0.244216,3.577047,8.863605,-1.467262,0.197152,-0.178572,1.5,-22.8,-37.44,227.4764,-27.6194,-2.447,6413
0.043097,3.720703,9.466963,-1.339591,0.087196,-0.135812,1.92,-21.96,-37.62,227.4764,-27.6194,-2.447,6423
0.301679,3.936188,9.768641,-1.212531,0.024888,-0.149862,1.92,-21.96,-37.62,227.4764,-27.6194,-2.447,6432
0.31365,3.589018,9.531608,-1.111127,0.015725,-0.193233,2.16,-20.52,-38.1,216.2333,-23.5998,-1.4669,6442
0.31365,3.589018,9.531608,-1.043321,0.023055,-0.232329,2.16,-20.52,-38.1,216.2333,-23.5998,-1.4669,6453
0.24661,3.356774,9.304152,-0.995674,-0.00871,-0.272035,1.74,-19.44,-38.94,216.2333,-23.5998,-1.4669,6463
0.445335,3.126923,9.366403,-0.989565,0.06887,-0.308076,1.74,-19.44,-38.94,216.2333,-23.5998,-1.4669,6472
0.478855,3.081432,9.330489,-1.012778,0.144617,-0.313574,3.54,-17.46,-39.48,248.6152,-21.0529,-1.2111,6483
-0.021548,2.961718,9.361614,-1.046375,0.176382,-0.281809,3.54,-17.46,-39.48,248.6152,-21.0529,-1.2111,6493
-0.021548,2.961718,9.361614,-1.067756,0.20265,-0.236605,3.78,-16.8,-39.48,248.6152,-21.0529,-1.2111,6503
-0.260976,2.777359,9.225141,-1.084249,0.198374,-0.203618,3.78,-16.8,-39.48,248.6152,-21.0529,-1.2111,6513
-0.184359,2.581028,9.366403,-1.076308,0.183102,-0.188346,3.42,-16.32,-39.36,232.7274,-18.7377,-0.6817,6523
-0.047885,2.499623,9.510059,-1.051873,0.155002,-0.194455,3.42,-16.32,-39.36,232.7274,-18.7377,-0.6817,6533
0.177176,2.32963,9.730332,-1.012778,0.145839,-0.228663,3.72,-15.54,-39.3,232.7274,-18.7377,-0.6817,6542
0.177176,2.32963,9.730332,-0.953524,0.198984,-0.322737,3.72,-15.54,-39.3,232.7274,-18.7377,-0.6817,6552
0.124502,2.023162,9.584282,-0.906487,0.185545,-0.374049,3.78,-14.94,-40.02,232.1937,-16.3025,-0.1249,6563
-0.155628,1.891477,9.644139,-0.863116,0.189821,-0.405814,3.78,-14.94,-40.02,232.1937,-16.3025,-0.1249,6573
-0.217879,1.675992,9.531608,-0.825853,0.196541,-0.441855,3.96,-13.86,-40.5,232.1937,-16.3025,-0.1249,6583
0.031126,1.436565,9.313729,-0.787369,0.133011,-0.448575,3.96,-13.86,-40.5,232.1937,-16.3025,-0.1249,6592
0.031126,1.436565,9.313729,-0.784314,0.034662,-0.45957,3.66,-12.9,-40.44,232.581,-14.1913,0.5086,6603
-0.179571,1.649655,9.624985,-0.801419,0.089029,-0.488892,3.66,-12.9,-40.44,232.581,-14.1913,0.5086,6613
-0.344776,1.884294,9.651321,-0.789812,0.074368,-0.492557,4.08,-12.3,-40.56,232.581,-14.1913,0.5086,6623
-0.423787,1.738244,9.608225,-0.789812,0.074368,-0.492557,4.08,-12.3,-40.56,232.581,-14.1913,0.5086,6632
-0.69434,1.525153,9.495694,-0.830129,0.045046,-0.364886,5.64,-10.74,-41.1,249.6858,-12.3493,1.001,6643
-0.723071,1.149252,9.352037,-0.87289,0.04749,-0.257374,5.64,-10.74,-41.1,249.6858,-12.3493,1.001,6653
-0.723071,1.149252,9.352037,-0.954746,0.088418,-0.129092,5.34,-10.68,-41.76,249.6858,-12.3493,1.001,6663
-0.699128,0.804476,9.364009,-0.988954,0.120183,-0.064951,5.34,-10.68,-41.76,249.6858,-12.3493,1.001,6673
-0.701522,0.656031,9.598648,-0.955967,0.106133,0.019348,5.16,-11.22,-41.52,231.8773,-10.4572,1.2987,6683
-0.6273,0.928979,9.957788,-0.955967,0.106133,0.019348,5.16,-11.22,-41.52,231.8773,-10.4572,1.2987,6693
-0.6273,0.928979,9.957788,-0.857007,0.048101,0.043783,5.16,-11.22,-41.52,231.8773,-10.4572,1.2987,6703
-0.38069,1.273754,10.343267,-0.737278,0.024277,-0.005698,5.58,-10.02,-41.22,231.8773,-10.4572,1.2987,6713
-0.110137,1.027144,10.058349,-0.54119,0.000453,-0.14131,5.46,-9.06,-41.7,233.805,-8.2858,1.5311,6723
-0.332804,0.665608,9.912297,-0.445284,-0.035588,-0.19079,5.46,-9.06,-41.7,233.805,-8.2858,1.5311,6733
-0.368718,0.36393,9.811738,-0.387252,0.005951,-0.203618,5.34,-7.8,-41.76,233.805,-8.2858,1.5311,6742
-0.368718,0.36393,9.811738,-0.354876,0.084753,-0.207283,5.34,-7.8,-41.76,233.805,-8.2858,1.5311,6752
-0.572232,0.098165,9.747093,-0.314559,0.100024,-0.164523,5.34,-7.8,-41.76,233.805,-8.2858,1.5311,6762
-0.912219,0.158022,9.783007,-0.254083,0.048712,-0.068617,5.46,-6.9,-41.88,238.8946,-6.4161,1.7355,6773
-0.639271,1.036721,10.063137,-0.175893,-0.025203,0.021791,5.7,-6.3,-42.24,238.8946,-6.4161,1.7355,6782
-0.639271,1.036721,10.063137,-0.128856,-0.045362,-0.011195,5.7,-6.3,-42.24,238.8946,-6.4161,1.7355,6793
-0.119714,1.060664,10.005674,-0.107476,-0.033144,-0.090608,5.7,-6.3,-42.24,238.8946,-6.4161,1.7355,6802
-0.222668,0.502798,9.75667,-0.100756,-0.005045,-0.113821,5.7,-5.82,-42.42,252.4041,-6.1052,1.81,6812
-0.232245,0.057463,9.742304,-0.119082,0.028553,-0.088164,5.82,-6.48,-42.54,252.4041,-6.1052,1.81,6823
-0.548289,-0.01676,9.75667,-0.154512,0.088418,-0.017915,5.82,-6.48,-42.54,252.4041,-6.1052,1.81,6833
-0.548289,-0.01676,9.75667,-0.158177,0.100635,0.060276,5.34,-6.96,-42.66,234.7165,-5.8113,1.7699,6842
-0.521952,0.203513,9.929058,-0.136186,0.101857,0.089597,5.34,-6.96,-42.66,234.7165,-5.8113,1.7699,6853
-0.260976,0.591386,9.948212,-0.136186,0.101857,0.089597,5.34,-6.96,-42.66,234.7165,-5.8113,1.7699,6862
0.031126,1.067847,10.022434,-0.031117,0.082309,-0.096106,5.1,-6,-42.24,234.7165,-5.8113,1.7699,6873
-0.119714,1.087001,9.912297,-0.006683,0.09697,-0.217668,5.34,-5.64,-42.12,241.2329,-5.47,1.9593,6883
-0.119714,1.087001,9.912297,-0.024398,0.102468,-0.26165,5.34,-5.64,-42.12,241.2329,-5.47,1.9593,6892
-0.663214,0.792505,9.596253,-0.024398,0.102468,-0.26165,5.34,-5.64,-42.12,241.2329,-5.47,1.9593,6903
-0.960104,0.507586,9.380769,-0.11786,0.060318,-0.171853,5.88,-6.24,-42.3,241.2329,-5.47,1.9593,6913
-0.902642,0.33041,9.323306,-0.11786,0.060318,-0.171853,5.94,-6.12,-42.66,246.0523,-5.3714,2.1998,6923
-0.90743,0.351958,9.423865,-0.219264,0.018168,-0.045404,5.94,-6.12,-42.66,246.0523,-5.3714,2.1998,6933
-0.90743,0.351958,9.423865,-0.219264,0.018168,-0.045404,5.94,-5.94,-42.96,246.0523,-5.3714,2.1998,6943
-0.562655,0.464489,9.780613,-0.229649,0.007784,-0.002032,5.94,-5.94,-42.96,246.0523,-5.3714,2.1998,6952
-0.038308,0.675186,9.967366,-0.205825,0.005951,-0.015471,6.06,-5.76,-42.78,246.0523,-5.3714,2.1998,6962
0.021548,0.691945,9.988914,-0.136186,0.009616,-0.137644,6.06,-5.46,-42.66,252.9351,-4.8916,2.358,6973
-0.339987,0.639271,9.869201,-0.083652,0.013892,-0.230496,6.06,-5.46,-42.66,252.9351,-4.8916,2.358,6983
-0.339987,0.639271,9.869201,-0.067159,0.018168,-0.273867,5.88,-5.46,-42.18,252.9351,-4.8916,2.358,6992
-0.61054,0.466884,9.577099,-0.085484,0.01939,-0.272035,5.88,-5.46,-42.18,252.9351,-4.8916,2.358,7003
-0.960104,0.260976,9.390346,-0.133743,0.010838,-0.220722,5.88,-5.7,-41.64,238.2316,-4.5674,2.4085,7013
-1.151646,0.138868,9.399923,-0.190553,0.009005,-0.124205,5.88,-5.7,-41.64,238.2316,-4.5674,2.4085,7022
-1.094184,0.234639,9.545974,-0.222318,-0.01604,-0.027078,6.18,-5.52,-41.76,238.2316,-4.5674,2.4085,7033
-0.804476,0.509981,9.751882,-0.205825,-0.041696,0.012018,6.18,-5.52,-41.76,238.2316,-4.5674,2.4085,7044
-0.804476,0.509981,9.751882,-0.121526,-0.077737,-0.02158,6.18,-4.68,-42.24,245.7992,-4.2223,2.4781,7053
-0.452518,0.591386,9.917087,-0.054941,-0.082014,-0.070449,6.18,-4.68,-42.24,245.7992,-4.2223,2.4781,7063
-0.466884,0.490826,9.77343,-0.014624,-0.0869,-0.10649,5.82,-4.2,-42.24,245.7992,-4.2223,2.4781,7073
-0.466884,0.490826,9.77343,0.004924,-0.05819,-0.127871,5.82,-4.2,-42.24,245.7992,-4.2223,2.4781,7083
-0.509981,0.141262,9.466963,-0.019511,-0.061855,-0.102825,6.06,-4.44,-42.18,255.1263,-3.8793,2.3484,7093
-0.550683,-0.01676,9.45978,-0.055552,-0.045972,-0.068617,6.06,-4.44,-42.18,255.1263,-3.8793,2.3484,7103
-0.517163,-0.079011,9.419077,-0.080598,-0.039864,-0.04968,6.54,-4.38,-42.78,255.1263,-3.8793,2.3484,7113
-0.450124,-0.021548,9.510059,-0.081208,-0.048416,-0.04968,6.54,-4.38,-42.78,255.1263,-3.8793,2.3484,7123
-0.191542,0.10056,9.749487,-0.056774,-0.042307,-0.091219,6.3,-4.62,-42.9,244.0013,-3.8217,2.2259,7133
-0.191542,0.10056,9.749487,-0.028674,-0.052081,-0.121762,6.3,-4.62,-42.9,244.0013,-3.8217,2.2259,7143
-0.241822,0.189148,9.873989,-0.028674,-0.052081,-0.121762,6.12,-4.68,-42.48,244.0013,-3.8217,2.2259,7153
-0.256187,0.191542,9.90272,0.008589,-0.059412,-0.146807,6.12,-4.68,-42.48,244.0013,-3.8217,2.2259,7163
-0.41421,0.06704,9.77343,0.035467,-0.057579,-0.12726,6.36,-4.38,-42.3,253.6702,-3.6606,2.1366,7173
-0.41421,0.06704,9.77343,0.033023,-0.063688,-0.066173,6.36,-4.38,-42.3,253.6702,-3.6606,2.1366,7183
-0.588992,0.023943,9.696813,0.020806,-0.055135,-0.012417,6.24,-4.62,-42.48,253.6702,-3.6606,2.1366,7193
-0.498009,0.107742,9.651321,-0.000574,-0.03742,0.019959,6.24,-4.62,-42.48,253.6702,-3.6606,2.1366,7202
-0.351958,0.203513,9.744699,-0.009126,-0.028868,0.023624,5.88,-4.68,-42.42,243.32,-3.6958,2.017,7213
-0.272947,0.335198,9.751882,0.00248,-0.003823,-0.003865,5.88,-4.68,-42.42,243.32,-3.6958,2.017,7223
-0.272947,0.335198,9.751882,0.021417,-0.009931,-0.036241,5.34,-4.5,-41.94,243.32,-3.6958,2.017,7233
-0.193936,0.596174,9.823709,0.039132,-0.012375,-0.076558,5.34,-4.5,-41.94,243.32,-3.6958,2.017,7243
-0.325621,0.557866,9.778218,0.044019,-0.020927,-0.113821,5.52,-4.44,-42.36,243.32,-3.6958,2.017,7252
-0.603357,0.323227,9.715967,0.028747,-0.033755,-0.094273,5.04,-4.02,-42.24,250.3509,-3.7002,1.9585,7263
-0.708705,0.057463,9.634562,-0.001185,-0.041086,-0.027078,5.04,-4.02,-42.24,250.3509,-3.7002,1.9585,7273
-0.708705,0.057463,9.634562,-0.02562,-0.042918,0.038896,5.28,-4.26,-42.06,250.3509,-3.7002,1.9585,7283
-0.742225,-0.026337,9.699207,-0.03967,-0.045972,0.095706,5.28,-4.26,-42.06,250.3509,-3.7002,1.9585,7293
-0.555472,0.047885,9.648928,-0.050054,-0.07224,0.130525,5.88,-4.44,-42.48,254.9888,-3.7488,1.9041,7302
-0.471672,0.153234,8.672064,-0.120304,-0.144322,0.130525,5.88,-4.44,-42.48,254.9888,-3.7488,1.9041,7313
-0.471672,0.153234,8.672064,-0.120304,-0.144322,0.130525,5.88,-4.44,-42.48,254.9888,-3.7488,1.9041,7322
0.071828,0.284919,9.320911,-0.260803,-0.069796,0.057222,5.64,-4.5,-42.78,254.9888,-3.7488,1.9041,7333
0.41421,0.189148,10.020041,-0.253472,-0.01604,-0.107101,5.88,-4.02,-42.66,254.8579,-3.6108,1.719,7343
-0.339987,-0.090982,10.692831,-0.161843,0.02672,-0.175518,5.88,-4.02,-42.66,254.8579,-3.6108,1.719,7353
-0.339987,-0.090982,10.692831,-0.007905,0.055431,-0.166966,5.88,-4.32,-43.26,254.8579,-3.6108,1.719,7363
-0.620117,-0.225062,10.805362,0.213229,0.045046,-0.080834,5.88,-4.32,-43.26,254.8579,-3.6108,1.719,7372
-0.466884,-0.225062,10.194822,0.344565,0.020612,-0.005698,5.76,-4.74,-43.68,241.1605,-3.134,1.7128,7383
-0.368718,-0.074223,9.744699,0.365945,0.012671,0.056611,5.76,-4.74,-43.68,241.1605,-3.134,1.7128,7392
-0.023943,0.316044,9.232324,0.27065,0.055431,0.062109,5.52,-4.5,-42.66,241.1605,-3.134,1.7128,7403
