ACCELEROMETER X (m/s²),ACCELEROMETER Y (m/s²),ACCELEROMETER Z (m/s²),GRAVITY X (m/s²),GRAVITY Y (m/s²),GRAVITY Z (m/s²),GYROSCOPE X (rad/s),GYROSCOPE Y (rad/s),GYROSCOPE Z (rad/s),MAGNETIC FIELD X (μT),MAGNETIC FIELD Y (μT),MAGNETIC FIELD Z (μT),ORIENTATION Z (azimuth °),ORIENTATION X (pitch °),ORIENTATION Y (roll °),LOCATION Latitude : ,LOCATION Longitude : ,LOCATION Altitude ( m),LOCATION Altitude-google ( m),LOCATION Speed ( m/s),LOCATION Accuracy ( m),LOCATION ORIENTATION (°),Satellites in range,GPS NMEA,Time since start in ms ,YYYY-MO-DD HH-MI-SS_SSS
0.136474,-0.447729,11.183658,-0.134705,-0.478453,9.794044,0.020946,-0.065568,-0.086318,10.14,-15.78,-45.36,205.1652,2.7486,0.6049,55.813995,37.500248,201.7492,NaN,0.0,8.0,,21 / 21,,35,2021-05-04 15:50:28:003
0.122108,-0.339987,10.101445,-0.094012,-0.470456,9.794909,-0.026702,0.210543,-0.075934,10.5,-15.72,-44.76,209.7199,2.7965,0.788,55.813995,37.500248,201.7492,NaN,0.0,8.0,,21 / 21,,45,2021-05-04 15:50:28:013
0.217879,-0.517163,8.918674,-0.094012,-0.470456,9.794909,-0.044417,0.132963,-0.085097,10.5,-15.72,-44.76,209.7199,2.7965,0.788,55.813995,37.500248,201.7492,NaN,0.0,8.0,,21 / 21,,55,2021-05-04 15:50:28:023
0.306467,-0.498009,9.380769,-0.126682,-0.477533,9.794197,-0.03953,-0.117491,-0.093649,9.18,-16.02,-44.88,209.7199,2.7965,0.788,55.813995,37.500248,201.7492,NaN,0.0,8.0,,21 / 21,,65,2021-05-04 15:50:28:033
0.306467,-0.498009,9.380769,-0.126682,-0.477533,9.794197,-0.029145,-0.145591,-0.100368,9.18,-16.02,-44.88,209.7199,2.7965,0.788,55.813995,37.500248,201.7492,NaN,0.0,8.0,,21 / 21,,75,2021-05-04 15:50:28:043
-0.136474,-0.605751,10.472558,-0.101862,-0.484368,9.794151,-0.010819,0.047442,-0.100979,9.72,-15.78,-45.18,207.386,2.7911,0.741,55.813995,37.500248,201.7492,NaN,0.0,8.0,,21 / 21,,85,2021-05-04 15:50:28:053
-0.663214,-0.452518,10.106234,-0.101862,-0.484368,9.794151,0.021557,0.211154,-0.097925,9.72,-15.78,-45.18,207.386,2.7911,0.741,55.813995,37.500248,201.7492,NaN,0.0,8.0,,21 / 21,,96,2021-05-04 15:50:28:064
-0.679974,-0.529135,9.366403,-0.126063,-0.483534,9.793911,0.055765,0.129909,-0.088762,10.32,-15.78,-45.0,207.386,2.7911,0.741,55.813995,37.500248,201.7492,NaN,0.0,8.0,,21 / 21,,105,2021-05-04 15:50:28:073
-0.679974,-0.529135,9.366403,-0.126063,-0.483534,9.793911,0.063096,-0.139483,-0.077155,10.32,-15.78,-45.0,207.386,2.7911,0.741,55.813995,37.500248,201.7492,NaN,0.0,8.0,,21 / 21,,116,2021-05-04 15:50:28:084
-0.184359,-0.52674,9.663293,-0.128987,-0.471858,9.794442,0.026444,-0.190184,-0.06616,9.78,-15.9,-44.58,207.3582,2.8262,0.7374,55.813995,37.500248,201.7492,NaN,0.0,8.0,,21 / 21,,125,2021-05-04 15:50:28:093
0.035914,-0.474066,10.10384,-0.128987,-0.471858,9.794442,-0.037697,-0.016088,-0.056386,9.78,-15.9,-44.58,207.3582,2.8262,0.7374,55.813995,37.500248,201.7492,NaN,0.0,8.0,,21 / 21,,135,2021-05-04 15:50:28:103
-0.438152,-0.339987,9.646533,-0.106103,-0.472253,9.794698,-0.063964,0.147624,-0.036838,10.68,-15.72,-45.06,207.3582,2.8262,0.7374,55.813995,37.500248,201.7492,NaN,0.0,8.0,,21 / 21,,145,2021-05-04 15:50:28:113
-0.438152,-0.339987,9.646533,-0.106103,-0.472253,9.794698,-0.040141,0.110361,-0.03134,10.68,-15.72,-45.06,207.3582,2.8262,0.7374,55.813995,37.500248,201.7492,NaN,0.0,8.0,,21 / 21,,155,2021-05-04 15:50:28:123
-0.385478,-0.462095,9.397529,-0.133147,-0.48325,9.793832,0.011172,-0.093057,-0.025232,10.26,-15.84,-45.42,207.6533,2.7602,0.6206,55.813995,37.500248,201.7492,NaN,0.0,8.0,,21 / 21,,165,2021-05-04 15:50:28:133
-0.10056,-0.605751,10.237919,-0.133147,-0.48325,9.793832,0.046602,-0.121767,-0.029508,10.26,-15.84,-45.42,207.6533,2.7602,0.6206,55.813995,37.500248,201.7492,NaN,0.0,8.0,,21 / 21,,175,2021-05-04 15:50:28:143
-0.138868,-0.548289,10.532414,-0.116103,-0.480059,9.794205,0.042326,0.021175,-0.02401,9.78,-16.38,-45.54,207.6533,2.7602,0.6206,55.813995,37.500248,201.7492,NaN,0.0,8.0,,21 / 21,,185,2021-05-04 15:50:28:153
-0.306467,-0.375901,9.627379,-0.116103,-0.480059,9.794205,0.015448,0.147013,-0.00996,9.78,-16.38,-45.54,207.6533,2.7602,0.6206,55.813995,37.500248,201.7492,NaN,0.0,8.0,,21 / 21,,195,2021-05-04 15:50:28:163
-0.306467,-0.375901,9.627379,-0.119116,-0.472525,9.794536,-0.007765,0.041944,-0.009349,10.56,-16.2,-45.36,209.9146,2.8059,0.6792,55.813995,37.500248,201.7492,NaN,0.0,8.0,,20 / 22,,205,2021-05-04 15:50:28:173
-0.179571,-0.383084,9.024022,-0.119116,-0.472525,9.794536,-0.030978,-0.124211,-0.002019,10.56,-16.2,-45.36,209.9146,2.8059,0.6792,55.813995,37.500248,201.7492,NaN,0.0,8.0,,20 / 22,,215,2021-05-04 15:50:28:183
-0.090982,-0.531529,9.852441,-0.12614,-0.474155,9.794368,-0.030978,-0.124211,-0.002019,10.86,-15.78,-44.88,209.9146,2.8059,0.6792,55.813995,37.500248,201.7492,NaN,0.0,8.0,,20 / 22,,226,2021-05-04 15:50:28:194
-0.323227,-0.495615,10.494106,-0.12614,-0.474155,9.794368,-0.040141,-0.035635,0.006533,10.86,-15.78,-44.88,209.9146,2.8059,0.6792,55.813995,37.500248,201.7492,NaN,0.0,8.0,,20 / 22,,235,2021-05-04 15:50:28:203
-0.323227,-0.495615,10.494106,-0.10996,-0.481293,9.794215,-0.018149,0.117081,0.020583,10.62,-16.2,-45.0,209.8407,2.7714,0.7379,55.813995,37.500248,201.7492,NaN,0.0,8.0,,20 / 22,,245,2021-05-04 15:50:28:213
-0.562655,-0.517163,9.785401,-0.10996,-0.481293,9.794215,0.015448,0.117081,0.024248,10.62,-16.2,-45.0,209.8407,2.7714,0.7379,55.813995,37.500248,201.7492,NaN,0.0,8.0,,20 / 22,,255,2021-05-04 15:50:28:223
-0.232245,-0.464489,9.402317,-0.133376,-0.4815,9.793914,0.04477,-0.073509,0.030968,9.96,-16.32,-45.06,209.8407,2.7714,0.7379,55.813995,37.500248,201.7492,NaN,0.0,8.0,,20 / 22,,265,2021-05-04 15:50:28:233
0.007183,-0.533923,9.893144,-0.133376,-0.4815,9.793914,0.025222,-0.134596,0.029135,9.96,-16.32,-45.06,209.8407,2.7714,0.7379,55.813995,37.500248,201.7492,NaN,0.0,8.0,,20 / 22,,275,2021-05-04 15:50:28:243
0.007183,-0.533923,9.893144,-0.117017,-0.474047,9.794487,-0.015706,-0.008146,0.029135,9.9,-15.78,-44.52,207.2859,2.8143,0.7802,55.813995,37.500248,201.7492,NaN,0.0,8.0,,20 / 22,,285,2021-05-04 15:50:28:253
-0.002394,-0.505192,10.022434,-0.117017,-0.474047,9.794487,-0.041362,0.093868,0.040742,9.9,-15.78,-44.52,207.2859,2.8143,0.7802,55.813995,37.500248,201.7492,NaN,0.0,8.0,,20 / 22,,295,2021-05-04 15:50:28:263
0.01676,-0.399844,9.751882,-0.118182,-0.477492,9.794306,-0.022425,0.019953,0.03219,9.42,-15.54,-44.22,207.2859,2.8143,0.7802,55.813995,37.500248,201.7492,NaN,0.0,8.0,,20 / 22,,305,2021-05-04 15:50:28:273
-0.153234,-0.464489,9.850046,-0.118182,-0.477492,9.794306,0.004453,-0.06007,0.034022,9.42,-15.54,-44.22,207.2859,2.8143,0.7802,55.813995,37.500248,201.7492,NaN,0.0,8.0,,20 / 22,,316,2021-05-04 15:50:28:284
-0.153234,-0.464489,9.850046,-0.124633,-0.482023,9.794003,0.024611,-0.027083,0.0328,9.66,-15.36,-44.82,208.831,2.7909,0.6913,55.813995,37.500248,201.7492,NaN,0.0,8.0,,20 / 22,,325,2021-05-04 15:50:28:293
-0.119714,-0.509981,9.929058,-0.124633,-0.482023,9.794003,0.023389,0.042555,0.033411,9.66,-15.36,-44.82,208.831,2.7909,0.6913,55.813995,37.500248,201.7492,NaN,0.0,8.0,,20 / 22,,336,2021-05-04 15:50:28:304
-0.24661,-0.476461,9.751882,-0.119303,-0.477909,9.794271,0.012394,0.043777,0.030357,10.56,-15.6,-45.78,208.831,2.7909,0.6913,55.813995,37.500248,201.7492,NaN,0.0,8.0,,20 / 22,,345,2021-05-04 15:50:28:313
-0.28013,-0.426181,9.629773,-0.119303,-0.477909,9.794271,0.002009,-0.02464,0.0328,10.56,-15.6,-45.78,208.831,2.7909,0.6913,55.813995,37.500248,201.7492,NaN,0.0,8.0,,20 / 22,,355,2021-05-04 15:50:28:323
-0.102954,-0.476461,9.684841,-0.128373,-0.474855,9.794306,-0.009597,-0.071676,0.033411,10.98,-16.08,-46.38,209.7977,2.7933,0.6979,55.813995,37.500248,201.7492,NaN,0.0,8.0,,20 / 22,,365,2021-05-04 15:50:28:333
-0.102954,-0.476461,9.684841,-0.128373,-0.474855,9.794306,-0.009597,-0.071676,0.033411,10.98,-16.08,-46.38,209.7977,2.7933,0.6979,55.813995,37.500248,201.7492,NaN,0.0,8.0,,20 / 22,,375,2021-05-04 15:50:28:343
0.201119,-0.481249,9.943423,-0.117059,-0.476289,9.794377,-0.027312,-0.044188,0.029135,10.92,-16.26,-46.08,209.7977,2.7933,0.6979,55.813995,37.500248,201.7492,NaN,0.0,8.0,,20 / 22,,385,2021-05-04 15:50:28:353
0.014366,-0.490826,10.043983,-0.117059,-0.476289,9.794377,-0.027923,0.030338,0.023027,10.92,-16.26,-46.08,209.7977,2.7933,0.6979,55.813995,37.500248,201.7492,NaN,0.0,8.0,,20 / 22,,395,2021-05-04 15:50:28:363
-0.167599,-0.476461,9.873989,-0.115898,-0.481617,9.794131,-0.00471,0.070655,0.016307,10.32,-16.02,-45.48,207.5039,2.7838,0.6847,55.813995,37.500248,201.7492,NaN,0.0,8.0,,20 / 22,,406,2021-05-04 15:50:28:374
-0.10056,-0.483643,9.636956,-0.115898,-0.481617,9.794131,0.028887,-0.002038,0.012642,10.32,-16.02,-45.48,207.5039,2.7838,0.6847,55.813995,37.500248,201.7492,NaN,0.0,8.0,,20 / 22,,415,2021-05-04 15:50:28:383
-0.10056,-0.483643,9.636956,-0.125876,-0.480214,9.794077,0.024611,-0.046631,0.007144,10.2,-15.66,-45.42,207.5039,2.7838,0.6847,55.813995,37.500248,201.7492,NaN,0.0,8.0,,20 / 22,,425,2021-05-04 15:50:28:393
-0.014366,-0.481249,9.862018,-0.125876,-0.480214,9.794077,0.00934,-0.019753,0.005311,10.2,-15.66,-45.42,207.5039,2.7838,0.6847,55.813995,37.500248,201.7492,NaN,0.0,8.0,,20 / 22,,435,2021-05-04 15:50:28:403
-0.186753,-0.435758,9.984126,-0.11943,-0.475815,9.794372,-0.006543,0.034614,0.013253,10.32,-15.9,-45.12,207.3797,2.8068,0.7363,55.813995,37.500248,201.7492,NaN,0.0,8.0,,20 / 22,,446,2021-05-04 15:50:28:414
-0.354353,-0.404632,9.687236,-0.11943,-0.475815,9.794372,-0.014484,0.029116,0.012642,10.32,-15.9,-45.12,207.3797,2.8068,0.7363,55.813995,37.500248,201.7492,NaN,0.0,8.0,,20 / 22,,455,2021-05-04 15:50:28:423
-0.150839,-0.464489,9.557945,-0.124951,-0.477108,9.79424,-0.012041,-0.030138,0.016918,9.9,-15.72,-44.94,207.3797,2.8068,0.7363,55.813995,37.500248,201.7492,NaN,0.0,8.0,,20 / 22,,466,2021-05-04 15:50:28:434
-0.150839,-0.464489,9.557945,-0.124951,-0.477108,9.79424,-0.008376,-0.041744,0.015085,9.9,-15.72,-44.94,207.3797,2.8068,0.7363,55.813995,37.500248,201.7492,NaN,0.0,8.0,,20 / 22,,475,2021-05-04 15:50:28:443
-0.026337,-0.423787,9.926663,-0.121291,-0.479696,9.79416,-0.005321,0.002849,0.009588,10.5,-15.18,-45.3,211.2526,2.7886,0.7309,55.813995,37.500248,201.7492,NaN,0.0,8.0,,20 / 22,,486,2021-05-04 15:50:28:454
0.014366,-0.507586,9.96976,-0.121291,-0.479696,9.79416,0.007507,0.028505,0.008366,10.5,-15.18,-45.3,211.2526,2.7886,0.7309,55.813995,37.500248,201.7492,NaN,0.0,8.0,,20 / 22,,495,2021-05-04 15:50:28:463
0.035914,-0.459701,9.785401,-0.121193,-0.480007,9.794146,0.010561,-0.011812,0.002257,10.86,-15.24,-45.66,211.2526,2.7886,0.7309,55.813995,37.500248,201.7492,NaN,0.0,8.0,,20 / 22,,505,2021-05-04 15:50:28:473
-0.110137,-0.536318,9.804555,-0.121193,-0.480007,9.794146,0.003842,-0.03869,-0.00263,10.86,-15.24,-45.66,211.2526,2.7886,0.7309,55.813995,37.500248,201.7492,NaN,0.0,8.0,,20 / 22,,515,2021-05-04 15:50:28:483
-0.110137,-0.536318,9.804555,-0.121326,-0.478272,9.79423,0.003842,-0.03869,-0.00263,10.56,-15.78,-45.78,209.7633,2.8056,0.7089,55.813995,37.500248,201.7492,NaN,0.0,8.0,,20 / 22,,525,2021-05-04 15:50:28:493
-0.098165,-0.490826,9.967366,-0.121326,-0.478272,9.79423,-0.002878,0.006514,0.005311,10.56,-15.78,-45.78,209.7633,2.8056,0.7089,55.813995,37.500248,201.7492,NaN,0.0,8.0,,20 / 22,,535,2021-05-04 15:50:28:503
-0.112531,-0.457306,9.80695,-0.118856,-0.478648,9.794241,-0.001656,0.034614,0.004701,10.92,-16.08,-45.36,209.7633,2.8056,0.7089,55.813995,37.500248,201.7492,NaN,0.0,8.0,,20 / 22,,545,2021-05-04 15:50:28:513
-0.306467,-0.442941,9.660899,-0.118856,-0.478648,9.794241,7.87E-4,0.027895,0.00409,10.92,-16.08,-45.36,209.7633,2.8056,0.7089,55.813995,37.500248,201.7492,NaN,0.0,8.0,,20 / 22,,556,2021-05-04 15:50:28:524
-0.320833,-0.500403,9.651321,-0.12496,-0.478723,9.794161,0.004453,0.00346,0.010809,10.5,-15.66,-44.64,209.8931,2.7976,0.6953,55.813995,37.500248,201.7492,NaN,0.0,8.0,,20 / 22,,566,2021-05-04 15:50:28:534
-0.320833,-0.500403,9.651321,-0.125847,-0.478325,9.794169,0.002009,-0.013033,0.014474,9.84,-15.42,-44.82,209.8931,2.7976,0.6953,55.813995,37.500248,201.7492,NaN,0.0,8.0,,20 / 22,,576,2021-05-04 15:50:28:544
-0.184359,-0.500403,9.929058,-0.125847,-0.478325,9.794169,-4.34E-4,-0.028916,0.01814,9.84,-15.84,-45.06,209.8931,2.7976,0.6953,55.813995,37.500248,201.7492,NaN,0.0,8.0,,20 / 22,,586,2021-05-04 15:50:28:554
-0.129291,-0.5435,10.065532,-0.127425,-0.478199,9.794155,1.77E-4,-0.013644,0.021194,10.02,-15.84,-45.06,209.8931,2.7976,0.6953,55.813995,37.500248,201.7492,NaN,0.0,8.0,,20 / 22,,595,2021-05-04 15:50:28:563
-0.124502,-0.430969,9.857229,-0.127425,-0.478199,9.794155,0.001398,0.008347,0.026081,10.02,-15.84,-45.06,209.8931,2.7976,0.6953,55.813995,37.500248,201.7492,NaN,0.0,8.0,,20 / 22,,605,2021-05-04 15:50:28:573
-0.153234,-0.409421,9.536397,-0.133283,-0.47946,9.794016,0.00262,0.016288,0.031579,10.44,-15.48,-45.48,208.7167,2.795,0.7454,55.813995,37.500248,201.7492,NaN,0.0,8.0,,20 / 22,,615,2021-05-04 15:50:28:583
-0.153234,-0.409421,9.536397,-0.133283,-0.47946,9.794016,-0.001045,0.005293,0.031579,10.44,-15.48,-45.48,208.7167,2.795,0.7454,55.813995,37.500248,201.7492,NaN,0.0,8.0,,20 / 22,,625,2021-05-04 15:50:28:593
-0.249005,-0.450124,9.656111,-0.140558,-0.477617,9.794004,-0.0041,-0.006314,0.040131,10.5,-15.9,-45.9,208.7167,2.795,0.7454,55.813995,37.500248,201.7492,NaN,0.0,8.0,,20 / 22,,635,2021-05-04 15:50:28:603
-0.251399,-0.442941,10.063137,-0.140558,-0.477617,9.794004,0.003842,4.06E-4,0.044407,10.5,-15.9,-45.9,208.7167,2.795,0.7454,55.813995,37.500248,201.7492,NaN,0.0,8.0,,20 / 22,,645,2021-05-04 15:50:28:613
-0.323227,-0.521952,10.134965,-0.147689,-0.474855,9.794033,0.011172,0.004071,0.054792,10.68,-16.38,-45.72,209.5604,2.7916,0.8222,55.813995,37.500248,201.7492,NaN,0.0,8.0,,20 / 22,,655,2021-05-04 15:50:28:623
-0.328016,-0.445335,9.783007,-0.147689,-0.474855,9.794033,0.004453,-2.05E-4,0.059678,10.68,-16.38,-45.72,209.5604,2.7916,0.8222,55.813995,37.500248,201.7492,NaN,0.0,8.0,,20 / 22,,665,2021-05-04 15:50:28:633
-0.328016,-0.445335,9.783007,-0.159849,-0.472058,9.793978,0.004453,-2.05E-4,0.059678,9.96,-15.48,-45.24,209.5604,2.7916,0.8222,55.813995,37.500248,201.7492,NaN,0.0,8.0,,20 / 22,,675,2021-05-04 15:50:28:643
-0.193936,-0.507586,9.450203,-0.159849,-0.472058,9.793978,-0.008986,-0.019753,0.068231,9.96,-15.48,-45.24,209.5604,2.7916,0.8222,55.813995,37.500248,201.7492,NaN,0.0,8.0,,20 / 22,,686,2021-05-04 15:50:28:654
-0.150839,-0.423787,9.775824,-0.171894,-0.472677,9.793744,-0.018149,-0.023418,0.073728,10.02,-15.24,-45.24,208.3688,2.7591,0.935,55.813995,37.500248,201.7492,NaN,0.0,8.0,,20 / 22,,696,2021-05-04 15:50:28:664
-0.222668,-0.481249,10.084685,-0.171894,-0.472677,9.793744,-0.013873,0.001016,0.081059,10.02,-15.24,-45.24,208.3688,2.7591,0.935,55.813995,37.500248,201.7492,NaN,0.0,8.0,,20 / 22,,706,2021-05-04 15:50:28:674
-0.222668,-0.481249,10.084685,-0.178035,-0.47449,9.793547,-0.002878,0.019953,0.083502,10.08,-15.66,-45.36,208.3688,2.7591,0.935,55.813995,37.500248,201.7492,NaN,0.0,8.0,,20 / 22,,716,2021-05-04 15:50:28:684
-0.265764,-0.548289,9.907509,-0.178035,-0.47449,9.793547,0.011172,0.013234,0.089611,10.08,-15.66,-45.36,208.3688,2.7591,0.935,55.813995,37.500248,201.7492,NaN,0.0,8.0,,20 / 22,,725,2021-05-04 15:50:28:693
-0.318439,-0.507586,9.751882,-0.189007,-0.473342,9.793396,0.015448,-0.012423,0.096941,9.72,-15.72,-44.82,206.8091,2.7733,1.0415,55.813995,37.500248,201.7492,NaN,0.0,8.0,,20 / 22,,736,2021-05-04 15:50:28:704
-0.368718,-0.588992,9.804555,-0.189007,-0.473342,9.793396,0.008729,-0.01059,0.107326,9.72,-15.72,-44.82,206.8091,2.7733,1.0415,55.813995,37.500248,201.7492,NaN,0.0,8.0,,20 / 22,,745,2021-05-04 15:50:28:713
-0.36393,-0.483643,9.823709,-0.198248,-0.474602,9.793153,-0.002878,4.06E-4,0.1171,10.08,-16.14,-44.94,206.8091,2.7733,1.0415,55.813995,37.500248,201.7492,NaN,0.0,8.0,,20 / 22,,756,2021-05-04 15:50:28:724
-0.36393,-0.483643,9.823709,-0.198248,-0.474602,9.793153,-0.00471,-0.009979,0.129317,10.08,-16.14,-44.94,206.8091,2.7733,1.0415,55.813995,37.500248,201.7492,NaN,0.0,8.0,,20 / 22,,766,2021-05-04 15:50:28:734
-0.289707,-0.41421,9.72315,-0.19894,-0.474836,9.793127,-0.0041,-0.022807,0.136037,10.08,-16.2,-45.06,206.5725,2.774,1.1597,55.813995,37.500248,201.7492,NaN,0.0,8.0,,20 / 22,,775,2021-05-04 15:50:28:743
-0.234639,-0.375901,9.744699,-0.19894,-0.474836,9.793127,-0.005321,-0.013644,0.140924,10.08,-16.2,-45.06,206.5725,2.774,1.1597,55.813995,37.500248,201.7492,NaN,0.0,8.0,,20 / 22,,785,2021-05-04 15:50:28:753
-0.155628,-0.471672,9.771035,-0.197012,-0.47474,9.793171,-0.001656,-0.005092,0.154363,10.08,-16.14,-44.7,206.5725,2.774,1.1597,55.813995,37.500248,201.7492,NaN,0.0,8.0,,20 / 22,,795,2021-05-04 15:50:28:763
-0.21309,-0.495615,9.941029,-0.197081,-0.474921,9.79316,-0.002878,-0.008146,0.154973,10.08,-15.48,-44.94,207.9046,2.7748,1.1525,55.813995,37.500248,201.7492,NaN,0.0,8.0,,20 / 22,,806,2021-05-04 15:50:28:774
-0.21309,-0.495615,9.941029,-0.197081,-0.474921,9.79316,-0.002267,-0.006314,0.168412,10.08,-15.48,-44.94,207.9046,2.7748,1.1525,55.813995,37.500248,201.7492,NaN,0.0,8.0,,20 / 22,,815,2021-05-04 15:50:28:783
-0.361535,-0.557866,9.895537,-0.197081,-0.474921,9.79316,-0.0041,0.006514,0.176965,10.08,-15.48,-44.94,207.9046,2.7748,1.1525,55.813995,37.500248,201.7492,NaN,0.0,8.0,,20 / 22,,825,2021-05-04 15:50:28:793
-0.38069,-0.562655,9.751882,-0.197983,-0.474568,9.793159,-0.00471,0.002238,0.195291,10.14,-15.6,-44.64,207.9046,2.7748,1.1525,55.813995,37.500248,201.7492,NaN,0.0,8.0,,20 / 22,,835,2021-05-04 15:50:28:803
-0.38069,-0.562655,9.751882,-0.197983,-0.474568,9.793159,-0.00471,-0.012423,0.206897,10.14,-15.6,-44.64,207.9046,2.7748,1.1525,55.813995,37.500248,201.7492,NaN,0.0,8.0,,20 / 22,,845,2021-05-04 15:50:28:813
-0.442941,-0.538712,9.77343,-0.20068,-0.474524,9.793107,-0.002878,-0.011812,0.222169,10.38,-16.56,-44.76,205.3688,2.7738,1.1582,55.813995,37.500248,201.7492,NaN,0.0,8.0,,20 / 22,,855,2021-05-04 15:50:28:823
-0.435758,-0.474066,9.821315,-0.20068,-0.474524,9.793107,0.002009,-0.011812,0.238051,10.38,-16.56,-44.76,205.3688,2.7738,1.1582,55.813995,37.500248,201.7492,NaN,0.0,8.0,,20 / 22,,865,2021-05-04 15:50:28:833
-0.337593,-0.435758,9.775824,-0.200797,-0.474082,9.793125,0.002009,-0.018531,0.241716,10.68,-16.14,-45.36,205.3688,2.7738,1.1582,55.813995,37.500248,201.7492,NaN,0.0,8.0,,20 / 22,,875,2021-05-04 15:50:28:843
-0.337593,-0.435758,9.775824,-0.200797,-0.474082,9.793125,0.002009,-0.018531,0.241716,10.68,-16.14,-45.36,205.3688,2.7738,1.1582,55.813995,37.500248,201.7492,NaN,0.0,8.0,,20 / 22,,885,2021-05-04 15:50:28:853
-0.270553,-0.454912,9.799767,-0.199792,-0.473236,9.793187,-0.008986,-0.027083,0.255766,11.1,-16.14,-45.06,209.012,2.7709,1.1746,55.813995,37.500248,201.7492,NaN,0.0,8.0,,20 / 22,,895,2021-05-04 15:50:28:863
-0.210696,-0.490826,9.811738,-0.199792,-0.473236,9.793187,-0.012041,-0.015477,0.266151,11.1,-16.14,-45.06,209.012,2.7709,1.1746,55.813995,37.500248,201.7492,NaN,0.0,8.0,,20 / 22,,906,2021-05-04 15:50:28:874
-0.244216,-0.454912,9.804555,-0.198299,-0.474269,9.793168,-0.015706,-0.005703,0.275925,10.32,-16.08,-44.88,209.012,2.7709,1.1746,55.813995,37.500248,201.7492,NaN,0.0,8.0,,20 / 22,,915,2021-05-04 15:50:28:883
-0.31365,-0.531529,9.818921,-0.198299,-0.474269,9.793168,-0.012652,-8.16E-4,0.286309,10.32,-16.08,-44.88,209.012,2.7709,1.1746,55.813995,37.500248,201.7492,NaN,0.0,8.0,,20 / 22,,926,2021-05-04 15:50:28:894
-0.316044,-0.531529,9.852441,-0.200594,-0.475839,9.793045,-0.005321,-0.007536,0.297916,9.48,-16.14,-44.58,203.9978,2.772,1.16,55.813995,37.500248,201.7492,NaN,0.0,8.0,,20 / 22,,936,2021-05-04 15:50:28:904
-0.316044,-0.531529,9.852441,-0.202569,-0.47561,9.793015,-4.34E-4,-0.01059,0.305857,10.5,-16.68,-44.82,203.9978,2.772,1.16,55.813995,37.500248,201.7492,NaN,0.0,8.0,,20 / 22,,947,2021-05-04 15:50:28:915
-0.33041,-0.514769,9.785401,-0.202569,-0.47561,9.793015,-0.005321,-0.015477,0.315631,10.5,-16.68,-44.82,203.9978,2.772,1.16,55.813995,37.500248,201.7492,NaN,0.0,8.0,,20 / 22,,955,2021-05-04 15:50:28:923
-0.29689,-0.495615,9.778218,-0.202569,-0.47561,9.793015,-0.009597,-0.016088,0.324183,10.5,-16.68,-44.82,203.9978,2.772,1.16,55.813995,37.500248,201.7492,NaN,0.0,8.0,,20 / 22,,965,2021-05-04 15:50:28:933
-0.29689,-0.495615,9.778218,-0.202895,-0.475073,9.793035,-0.015095,-0.020364,0.329681,10.62,-16.44,-46.08,208.8684,2.7799,1.185,55.813995,37.500248,201.7492,NaN,0.0,8.0,,20 / 22,,975,2021-05-04 15:50:28:943
-0.249005,-0.481249,9.775824,-0.202895,-0.475073,9.793035,-0.015095,-0.020975,0.338233,10.62,-16.44,-46.08,208.8684,2.7799,1.185,55.813995,37.500248,201.7492,NaN,0.0,8.0,,20 / 22,,986,2021-05-04 15:50:28:954
-0.220273,-0.471672,9.830893,-0.202215,-0.476315,9.792989,-0.01143,-0.012423,0.345563,9.9,-16.44,-45.72,208.8684,2.7799,1.185,55.813995,37.500248,201.7492,NaN,0.0,8.0,,20 / 22,,995,2021-05-04 15:50:28:963
-0.249005,-0.488432,9.830893,-0.202215,-0.476315,9.792989,-0.009597,-0.004481,0.351672,9.9,-16.44,-45.72,208.8684,2.7799,1.185,55.813995,37.500248,201.7492,NaN,0.0,8.0,,20 / 22,,1005,2021-05-04 15:50:28:973
-0.249005,-0.488432,9.830893,-0.203017,-0.477354,9.792921,-0.009597,-0.004481,0.351672,9.84,-16.38,-44.88,206.5163,2.784,1.1829,55.813995,37.500248,201.7492,NaN,0.0,8.0,,20 / 22,,1015,2021-05-04 15:50:28:983
-0.251399,-0.550683,9.80695,-0.203017,-0.477354,9.792921,-0.0041,-0.008757,0.35717,9.84,-16.38,-44.88,206.5163,2.784,1.1829,55.813995,37.500248,201.7492,NaN,0.0,8.0,,20 / 22,,1025,2021-05-04 15:50:28:993
-0.21309,-0.56026,9.821315,-0.205295,-0.477004,9.792891,-0.005932,-0.024029,0.362668,10.26,-16.56,-45.3,206.5163,2.784,1.1829,55.813995,37.500248,201.7492,NaN,0.0,8.0,,20 / 22,,1035,2021-05-04 15:50:29:003
-0.201119,-0.545895,9.878778,-0.205295,-0.477004,9.792891,-0.008376,-0.027083,0.3645,10.26,-16.56,-45.3,206.5163,2.784,1.1829,55.813995,37.500248,201.7492,NaN,0.0,8.0,,20 / 22,,1046,2021-05-04 15:50:29:014
-0.189148,-0.498009,9.847652,-0.203638,-0.476682,9.792941,-0.008986,-0.01059,0.374274,9.96,-16.98,-45.6,205.1661,2.788,1.201,55.813995,37.500248,201.7492,NaN,0.0,8.0,,20 / 22,,1055,2021-05-04 15:50:29:023
-0.189148,-0.498009,9.847652,-0.203873,-0.476788,9.792931,-0.007765,-0.009979,0.379772,9.96,-16.98,-45.6,205.1661,2.788,1.201,55.813995,37.500248,201.7492,NaN,0.0,8.0,,20 / 22,,1065,2021-05-04 15:50:29:033
-0.201119,-0.450124,9.735122,-0.203873,-0.476788,9.792931,-0.005932,-0.013644,0.386491,10.02,-16.74,-45.06,205.1661,2.788,1.201,55.813995,37.500248,201.7492,NaN,0.0,8.0,,20 / 22,,1075,2021-05-04 15:50:29:043
-0.24661,-0.462095,9.759064,-0.205703,-0.476771,9.792893,-0.010208,-0.008146,0.393211,10.02,-16.74,-45.06,205.1661,2.788,1.201,55.813995,37.500248,201.7492,NaN,0.0,8.0,,20 / 22,,1085,2021-05-04 15:50:29:053
-0.311256,-0.512375,9.821315,-0.205703,-0.476771,9.792893,-0.008986,-0.007536,0.402374,10.44,-16.68,-44.7,205.2698,2.7867,1.2033,55.813995,37.500248,201.7492,NaN,0.0,8.0,,20 / 22,,1096,2021-05-04 15:50:29:064
-0.349564,-0.548289,9.852441,-0.207294,-0.476769,9.79286,-0.008986,-0.016699,0.411537,10.44,-16.68,-44.7,205.2698,2.7867,1.2033,55.813995,37.500248,201.7492,NaN,0.0,8.0,,20 / 22,,1105,2021-05-04 15:50:29:073
-0.349564,-0.548289,9.852441,-0.207294,-0.476769,9.79286,-0.009597,-0.025862,0.420089,10.2,-17.22,-44.94,205.2698,2.7867,1.2033,55.813995,37.500248,201.7492,NaN,0.0,8.0,,20 / 22,,1115,2021-05-04 15:50:29:083
-0.301679,-0.553077,9.835681,-0.208338,-0.477014,9.792827,-0.010819,-0.027083,0.424976,10.2,-17.22,-44.94,205.2698,2.7867,1.2033,55.813995,37.500248,201.7492,NaN,0.0,8.0,,20 / 22,,1126,2021-05-04 15:50:29:094
-0.277736,-0.533923,9.783007,-0.208338,-0.477014,9.792827,-0.015706,-0.022196,0.432306,10.44,-17.88,-45.54,204.0333,2.7881,1.2188,55.813995,37.500248,201.7492,NaN,0.0,8.0,,20 / 22,,1136,2021-05-04 15:50:29:104
-0.201119,-0.495615,9.768641,-0.207061,-0.477566,9.792826,-0.015706,-0.022196,0.432306,10.44,-17.88,-45.54,204.0333,2.7881,1.2188,55.813995,37.500248,201.7492,NaN,0.0,8.0,,20 / 22,,1146,2021-05-04 15:50:29:114
-0.201119,-0.495615,9.768641,-0.207379,-0.477894,9.792804,-0.012041,-0.014255,0.439637,9.66,-17.7,-45.3,204.0333,2.7881,1.2188,55.813995,37.500248,201.7492,NaN,0.0,8.0,,20 / 22,,1155,2021-05-04 15:50:29:123
-0.162811,-0.486038,9.835681,-0.207379,-0.477894,9.792804,-0.0041,-0.024029,0.445745,9.66,-17.7,-45.3,204.0333,2.7881,1.2188,55.813995,37.500248,201.7492,NaN,0.0,8.0,,20 / 22,,1165,2021-05-04 15:50:29:133
-0.146051,-0.502798,9.864412,-0.207942,-0.478303,9.792771,-0.007154,-0.017309,0.446967,9.84,-16.8,-44.46,205.353,2.7932,1.2132,55.813995,37.500248,201.7492,NaN,0.0,8.0,,20 / 22,,1175,2021-05-04 15:50:29:143
-0.162811,-0.509981,9.792584,-0.207942,-0.478303,9.792771,-0.012652,-0.019142,0.448189,9.84,-16.8,-44.46,205.353,2.7932,1.2132,55.813995,37.500248,201.7492,NaN,0.0,8.0,,20 / 22,,1185,2021-05-04 15:50:29:153
-0.162811,-0.509981,9.792584,-0.208328,-0.477847,9.792786,-0.012041,-0.015477,0.452465,10.2,-16.98,-45.18,205.353,2.7932,1.2132,55.813995,37.500248,201.7492,NaN,0.0,8.0,,20 / 22,,1195,2021-05-04 15:50:29:163
-0.169993,-0.529135,9.768641,-0.208328,-0.477847,9.792786,-0.017539,-0.020364,0.457963,10.2,-16.98,-45.18,205.353,2.7932,1.2132,55.813995,37.500248,201.7492,NaN,0.0,8.0,,21 / 23,,1205,2021-05-04 15:50:29:173
-0.227456,-0.538712,9.828498,-0.208769,-0.478272,9.792755,-0.013262,-0.011812,0.461628,9.48,-16.86,-45.72,202.6378,2.7929,1.2187,55.813995,37.500248,201.7492,NaN,0.0,8.0,,21 / 23,,1215,2021-05-04 15:50:29:183
-0.277736,-0.56026,9.842864,-0.208769,-0.478272,9.792755,-0.009597,-0.011201,0.467126,9.48,-16.86,-45.72,202.6378,2.7929,1.2187,55.813995,37.500248,201.7492,NaN,0.0,8.0,,21 / 23,,1225,2021-05-04 15:50:29:193
-0.339987,-0.557866,9.850046,-0.210235,-0.479625,9.792658,-0.009597,-0.011201,0.467126,9.42,-17.04,-45.3,202.6378,2.7929,1.2187,55.813995,37.500248,201.7492,NaN,0.0,8.0,,21 / 23,,1236,2021-05-04 15:50:29:204
-0.339987,-0.557866,9.850046,-0.210235,-0.479625,9.792658,-0.005932,-0.014866,0.47751,9.42,-17.04,-45.3,202.6378,2.7929,1.2187,55.813995,37.500248,201.7492,NaN,0.0,8.0,,21 / 23,,1245,2021-05-04 15:50:29:213
-0.356747,-0.553077,9.818921,-0.212273,-0.479436,9.792624,-0.002878,-0.020975,0.49156,9.48,-17.82,-44.88,201.6955,2.8033,1.2299,55.813995,37.500248,201.7492,NaN,0.0,8.0,,21 / 23,,1256,2021-05-04 15:50:29:224
-0.323227,-0.538712,9.749487,-0.212273,-0.479436,9.792624,-0.007154,-0.02464,0.495225,9.48,-17.82,-44.88,201.6955,2.8033,1.2299,55.813995,37.500248,201.7492,NaN,0.0,8.0,,21 / 23,,1265,2021-05-04 15:50:29:233
-0.270553,-0.521952,9.761458,-0.222772,-0.488781,9.791927,-0.012041,-0.028305,0.503167,9.54,-18.36,-44.76,201.6955,2.8033,1.2299,55.813995,37.500248,201.7492,NaN,0.0,8.0,,21 / 23,,1275,2021-05-04 15:50:29:243
-0.198725,-0.531529,9.80695,-0.222772,-0.488781,9.791927,-0.019982,-0.026472,0.510497,9.54,-18.36,-44.76,201.6955,2.8033,1.2299,55.813995,37.500248,201.7492,NaN,0.0,8.0,,21 / 23,,1285,2021-05-04 15:50:29:253
-0.198725,-0.531529,9.80695,-0.231922,-0.497462,9.791279,-0.018149,-0.027083,0.517217,9.66,-18.66,-44.64,202.9137,2.8569,1.3033,55.813995,37.500248,201.7492,NaN,0.0,8.0,,21 / 23,,1295,2021-05-04 15:50:29:263
-0.153234,-0.507586,9.862018,-0.231922,-0.497462,9.791279,-0.014484,-0.025251,0.520271,9.66,-18.66,-44.64,202.9137,2.8569,1.3033,55.813995,37.500248,201.7492,NaN,0.0,8.0,,21 / 23,,1305,2021-05-04 15:50:29:273
-0.129291,-0.538712,9.830893,-0.231989,-0.498306,9.791234,-0.010819,-0.023418,0.520882,9.84,-18.36,-44.88,202.9137,2.8569,1.3033,55.813995,37.500248,201.7492,NaN,0.0,8.0,,21 / 23,,1315,2021-05-04 15:50:29:283
-0.117319,-0.545895,9.787795,-0.231989,-0.498306,9.791234,-0.005932,-0.017309,0.523936,9.84,-18.36,-44.88,202.9137,2.8569,1.3033,55.813995,37.500248,201.7492,NaN,0.0,8.0,,21 / 23,,1325,2021-05-04 15:50:29:293
-0.158022,-0.567443,9.809344,-0.233163,-0.49758,9.791243,-0.01143,-0.01792,0.523936,9.72,-18.18,-44.76,203.7741,2.9126,1.3573,55.813995,37.500248,201.7492,NaN,0.0,8.0,,21 / 23,,1335,2021-05-04 15:50:29:303
-0.158022,-0.567443,9.809344,-0.233163,-0.49758,9.791243,-0.015706,-0.021586,0.52699,9.72,-18.18,-44.76,203.7741,2.9126,1.3573,55.813995,37.500248,201.7492,NaN,0.0,8.0,,21 / 23,,1346,2021-05-04 15:50:29:314
-0.208302,-0.545895,9.845258,-0.230237,-0.501775,9.791099,-0.015095,-0.018531,0.530656,9.54,-18.18,-44.88,203.7741,2.9126,1.3573,55.813995,37.500248,201.7492,NaN,0.0,8.0,,21 / 23,,1355,2021-05-04 15:50:29:323
-0.241822,-0.555472,9.845258,-0.230237,-0.501775,9.791099,-0.013262,-0.018531,0.539819,9.54,-18.18,-44.88,203.7741,2.9126,1.3573,55.813995,37.500248,201.7492,NaN,0.0,8.0,,21 / 23,,1366,2021-05-04 15:50:29:334
-0.306467,-0.519558,9.804555,-0.228211,-0.505772,9.79094,-0.01143,-0.016699,0.548371,9.66,-18.36,-45.06,203.777,2.9329,1.3471,55.813995,37.500248,201.7492,NaN,0.0,8.0,,21 / 23,,1375,2021-05-04 15:50:29:343
-0.325621,-0.531529,9.778218,-0.23069,-0.505032,9.790919,-0.008986,-0.020364,0.556923,9.72,-18.12,-44.88,203.777,2.9329,1.3471,55.813995,37.500248,201.7492,NaN,0.0,8.0,,21 / 23,,1387,2021-05-04 15:50:29:355
-0.325621,-0.531529,9.778218,-0.23069,-0.505032,9.790919,-0.012041,-0.026472,0.563031,9.72,-18.12,-44.88,203.777,2.9329,1.3471,55.813995,37.500248,201.7492,NaN,0.0,8.0,,21 / 23,,1395,2021-05-04 15:50:29:363
-0.28013,-0.553077,9.766247,-0.23069,-0.505032,9.790919,-0.013873,-0.031359,0.566086,9.72,-18.12,-44.88,203.777,2.9329,1.3471,55.813995,37.500248,201.7492,NaN,0.0,8.0,,21 / 23,,1405,2021-05-04 15:50:29:373
-0.24661,-0.548289,9.792584,-0.234173,-0.511859,9.790483,-0.013873,-0.031359,0.566086,9.84,-18.18,-45.36,203.7566,2.952,1.3497,55.813995,37.500248,201.7492,NaN,0.0,8.0,,21 / 23,,1415,2021-05-04 15:50:29:383
-0.184359,-0.545895,9.847652,-0.234173,-0.511859,9.790483,-0.017539,-0.035025,0.569751,9.84,-18.18,-45.48,203.7566,2.952,1.3497,55.813995,37.500248,201.7492,NaN,0.0,8.0,,21 / 23,,1425,2021-05-04 15:50:29:393
-0.184359,-0.545895,9.847652,-0.235168,-0.518611,9.790104,-0.017539,-0.033192,0.574027,9.84,-18.18,-45.48,203.7566,2.952,1.3497,55.813995,37.500248,201.7492,NaN,0.0,8.0,,21 / 23,,1435,2021-05-04 15:50:29:403
-0.105348,-0.572232,9.850046,-0.235168,-0.518611,9.790104,-0.015706,-0.027083,0.578303,9.6,-18.84,-45.36,203.7566,2.952,1.3497,55.813995,37.500248,201.7492,NaN,0.0,8.0,,21 / 23,,1445,2021-05-04 15:50:29:413
-0.112531,-0.548289,9.873989,-0.230378,-0.525498,9.78985,-0.010208,-0.019142,0.577081,9.6,-18.84,-45.36,203.7566,2.952,1.3497,55.813995,37.500248,201.7492,NaN,0.0,8.0,,21 / 23,,1455,2021-05-04 15:50:29:423
-0.169993,-0.56026,9.854836,-0.230378,-0.525498,9.78985,-0.01143,-0.015477,0.58319,10.08,-18.72,-45.18,202.6736,3.0717,1.3481,55.813995,37.500248,201.7492,NaN,0.0,8.0,,21 / 23,,1466,2021-05-04 15:50:29:434
-0.21309,-0.553077,9.830893,-0.222977,-0.530049,9.789776,-0.007765,-0.015477,0.583801,10.08,-18.72,-45.18,202.6736,3.0717,1.3481,55.813995,37.500248,201.7492,NaN,0.0,8.0,,21 / 23,,1475,2021-05-04 15:50:29:443
-0.253793,-0.553077,9.751882,-0.222977,-0.530049,9.789776,-0.005932,-0.01792,0.589299,9.66,-18.3,-44.82,202.6736,3.0717,1.3481,55.813995,37.500248,201.7492,NaN,0.0,8.0,,21 / 23,,1485,2021-05-04 15:50:29:453
-0.253793,-0.553077,9.751882,-0.218939,-0.532923,9.789711,-0.01876,-0.028305,0.591742,9.66,-18.3,-44.82,202.6736,3.0717,1.3481,55.813995,37.500248,201.7492,NaN,0.0,8.0,,21 / 23,,1495,2021-05-04 15:50:29:463
-0.277736,-0.548289,9.730332,-0.218939,-0.532923,9.789711,-0.021204,-0.030138,0.596629,9.54,-19.2,-45.0,202.7625,3.1152,1.2812,55.813995,37.500248,201.7492,NaN,0.0,8.0,,21 / 23,,1505,2021-05-04 15:50:29:473
-0.241822,-0.581809,9.804555,-0.217326,-0.536633,9.789545,-0.021815,-0.03197,0.602738,9.54,-19.2,-45.0,202.7625,3.1152,1.2812,55.813995,37.500248,201.7492,NaN,0.0,8.0,,21 / 23,,1515,2021-05-04 15:50:29:483
-0.196331,-0.61054,9.869201,-0.216977,-0.539355,9.789403,-0.020593,-0.031359,0.605792,9.48,-19.56,-44.88,202.7625,3.1152,1.2812,55.813995,37.500248,201.7492,NaN,0.0,8.0,,21 / 23,,1525,2021-05-04 15:50:29:493
-0.196331,-0.61054,9.869201,-0.216977,-0.539355,9.789403,-0.020593,-0.031359,0.605792,9.48,-19.56,-44.88,202.7625,3.1152,1.2812,55.813995,37.500248,201.7492,NaN,0.0,8.0,,21 / 23,,1535,2021-05-04 15:50:29:503
-0.126897,-0.608146,9.905115,-0.215765,-0.545538,9.789087,-0.012652,-0.023418,0.608846,9.12,-19.38,-44.58,200.4493,3.1528,1.2697,55.813995,37.500248,201.7492,NaN,0.0,8.0,,21 / 23,,1545,2021-05-04 15:50:29:513
-0.150839,-0.581809,9.842864,-0.215765,-0.545538,9.789087,-0.006543,-0.019753,0.608236,9.12,-19.38,-44.58,200.4493,3.1528,1.2697,55.813995,37.500248,201.7492,NaN,0.0,8.0,,21 / 23,,1555,2021-05-04 15:50:29:523
-0.153234,-0.553077,9.742304,-0.213038,-0.550104,9.788891,-0.00471,-0.020975,0.610068,9.12,-20.28,-44.46,200.4493,3.1528,1.2697,55.813995,37.500248,201.7492,NaN,0.0,8.0,,21 / 23,,1565,2021-05-04 15:50:29:533
-0.172388,-0.538712,9.730332,-0.21106,-0.551681,9.788845,-0.007765,-0.030749,0.610068,9.12,-20.22,-44.28,200.4493,3.1528,1.2697,55.813995,37.500248,201.7492,NaN,0.0,8.0,,21 / 23,,1575,2021-05-04 15:50:29:543
-0.160416,-0.56026,9.804555,-0.21106,-0.551681,9.788845,-0.019982,-0.030749,0.610068,9.12,-20.22,-44.28,200.4493,3.1528,1.2697,55.813995,37.500248,201.7492,NaN,0.0,8.0,,21 / 23,,1586,2021-05-04 15:50:29:554
-0.160416,-0.56026,9.804555,-0.204653,-0.554575,9.788817,-0.023036,-0.027083,0.613122,8.88,-19.5,-44.46,200.5645,3.2249,1.2352,55.813995,37.500248,201.7492,NaN,0.0,8.0,,21 / 23,,1595,2021-05-04 15:50:29:563
-0.177176,-0.574626,9.885961,-0.204653,-0.554575,9.788817,-0.019982,-0.025862,0.61862,8.88,-19.5,-44.46,200.5645,3.2249,1.2352,55.813995,37.500248,201.7492,NaN,0.0,8.0,,21 / 23,,1605,2021-05-04 15:50:29:573
-0.165205,-0.584203,9.878778,-0.200091,-0.557517,9.788745,-0.013262,-0.027694,0.622285,8.82,-19.2,-44.46,200.5645,3.2249,1.2352,55.813995,37.500248,201.7492,NaN,0.0,8.0,,21 / 23,,1615,2021-05-04 15:50:29:583
-0.198725,-0.596174,9.830893,-0.198052,-0.559003,9.788702,-0.010208,-0.02464,0.624118,9.12,-18.84,-44.04,200.5645,3.2249,1.2352,55.813995,37.500248,201.7492,NaN,0.0,8.0,,21 / 23,,1625,2021-05-04 15:50:29:593
-0.198725,-0.596174,9.830893,-0.198052,-0.559003,9.788702,-0.010208,-0.01792,0.626561,9.12,-18.84,-44.04,200.5645,3.2249,1.2352,55.813995,37.500248,201.7492,NaN,0.0,8.0,,21 / 23,,1635,2021-05-04 15:50:29:603
-0.198725,-0.603357,9.785401,-0.194901,-0.561074,9.788647,-0.015706,-0.028916,0.626561,9.3,-19.62,-44.46,199.829,3.2678,1.1591,55.813995,37.500248,201.7492,NaN,0.0,8.0,,21 / 23,,1645,2021-05-04 15:50:29:613
-0.201119,-0.615329,9.816526,-0.194901,-0.561074,9.788647,-0.016928,-0.033803,0.629616,9.3,-19.62,-44.46,199.829,3.2678,1.1591,55.813995,37.500248,201.7492,NaN,0.0,8.0,,21 / 23,,1655,2021-05-04 15:50:29:623
-0.148445,-0.605751,9.907509,-0.192919,-0.565369,9.788439,-0.015706,-0.038079,0.626561,8.82,-19.92,-44.04,199.829,3.2678,1.1591,55.813995,37.500248,201.7492,NaN,0.0,8.0,,21 / 23,,1666,2021-05-04 15:50:29:634
-0.134079,-0.591386,9.900327,-0.190445,-0.567853,9.788342,-0.012041,-0.025251,0.627172,8.4,-19.68,-44.16,199.829,3.2678,1.1591,55.813995,37.500248,201.7492,NaN,0.0,8.0,,21 / 23,,1675,2021-05-04 15:50:29:643
-0.095771,-0.52674,9.785401,-0.190445,-0.567853,9.788342,-0.007765,-0.022807,0.630837,8.4,-19.68,-44.16,199.829,3.2678,1.1591,55.813995,37.500248,201.7492,NaN,0.0,8.0,,21 / 23,,1686,2021-05-04 15:50:29:654
-0.095771,-0.52674,9.785401,-0.186252,-0.57118,9.78823,-0.007765,-0.022807,0.630837,8.46,-19.68,-44.82,197.5418,3.339,1.0901,55.813995,37.500248,201.7492,NaN,0.0,8.0,,21 / 23,,1695,2021-05-04 15:50:29:663
-0.122108,-0.521952,9.699207,-0.186252,-0.57118,9.78823,-0.007154,-0.020364,0.628394,8.46,-19.68,-44.82,197.5418,3.339,1.0901,55.813995,37.500248,201.7492,NaN,0.0,8.0,,21 / 23,,1705,2021-05-04 15:50:29:673
-0.205908,-0.524346,9.747093,-0.181833,-0.570094,9.788377,-0.013262,-0.022807,0.628394,9.12,-20.04,-44.28,197.5418,3.339,1.0901,55.813995,37.500248,201.7492,NaN,0.0,8.0,,21 / 23,,1715,2021-05-04 15:50:29:683
-0.227456,-0.584203,9.818921,-0.181833,-0.570094,9.788377,-0.019371,-0.025251,0.630837,9.12,-20.04,-44.28,197.5418,3.339,1.0901,55.813995,37.500248,201.7492,NaN,0.0,8.0,,21 / 23,,1725,2021-05-04 15:50:29:693
-0.227456,-0.584203,9.818921,-0.179926,-0.568472,9.788507,-0.018149,-0.035025,0.640611,9.24,-19.8,-43.56,199.9546,3.3327,1.0642,55.813995,37.500248,201.7492,NaN,0.0,8.0,,21 / 23,,1736,2021-05-04 15:50:29:704
-0.210696,-0.567443,9.859624,-0.180385,-0.568193,9.788514,-0.017539,-0.035025,0.64672,9.48,-20.1,-43.8,199.9546,3.3327,1.0642,55.813995,37.500248,201.7492,NaN,0.0,8.0,,21 / 23,,1745,2021-05-04 15:50:29:713
-0.196331,-0.591386,9.814133,-0.180385,-0.568193,9.788514,-0.014484,-0.027694,0.651607,9.48,-20.1,-43.8,199.9546,3.3327,1.0642,55.813995,37.500248,201.7492,NaN,0.0,8.0,,21 / 23,,1756,2021-05-04 15:50:29:724
-0.196331,-0.572232,9.761458,-0.181774,-0.567939,9.788503,-0.017539,-0.025862,0.65405,9.06,-21.0,-44.76,199.9546,3.3327,1.0642,55.813995,37.500248,201.7492,NaN,0.0,8.0,,21 / 23,,1765,2021-05-04 15:50:29:733
-0.249005,-0.581809,9.809344,-0.181774,-0.567939,9.788503,-0.016317,-0.02464,0.655883,9.06,-21.0,-44.76,199.9546,3.3327,1.0642,55.813995,37.500248,201.7492,NaN,0.0,8.0,,21 / 23,,1775,2021-05-04 15:50:29:743
-0.249005,-0.581809,9.809344,-0.185024,-0.568311,9.788421,-0.016317,-0.02464,0.655883,8.76,-20.76,-43.98,199.1787,3.3201,1.0639,55.813995,37.500248,201.7492,NaN,0.0,8.0,,21 / 23,,1785,2021-05-04 15:50:29:753
-0.193936,-0.605751,9.847652,-0.187267,-0.568434,9.78837,-0.016928,-0.030749,0.659548,8.4,-20.7,-43.68,199.1787,3.3201,1.0639,55.813995,37.500248,201.7492,NaN,0.0,8.0,,21 / 23,,1796,2021-05-04 15:50:29:764
-0.256187,-0.596174,9.878778,-0.187267,-0.568434,9.78837,-0.016317,-0.029527,0.666879,8.4,-20.7,-43.68,199.1787,3.3201,1.0639,55.813995,37.500248,201.7492,NaN,0.0,8.0,,21 / 23,,1805,2021-05-04 15:50:29:773
-0.241822,-0.632089,9.821315,-0.192179,-0.570554,9.788152,-0.016928,-0.026472,0.674209,7.98,-19.62,-43.68,199.1787,3.3201,1.0639,55.813995,37.500248,201.7492,NaN,0.0,8.0,,21 / 23,,1816,2021-05-04 15:50:29:784
-0.294496,-0.624906,9.814133,-0.192179,-0.570554,9.788152,-0.01876,-0.030749,0.680318,7.98,-19.62,-43.68,199.1787,3.3201,1.0639,55.813995,37.500248,201.7492,NaN,0.0,8.0,,21 / 23,,1825,2021-05-04 15:50:29:793
-0.294496,-0.624906,9.814133,-0.199203,-0.575416,9.787726,-0.015095,-0.029527,0.691313,8.28,-19.86,-43.68,197.5684,3.3354,1.1248,55.813995,37.500248,201.7492,NaN,0.0,8.0,,21 / 23,,1835,2021-05-04 15:50:29:803
-0.265764,-0.605751,9.821315,-0.199203,-0.575416,9.787726,-0.016317,-0.030749,0.690702,8.28,-19.86,-43.68,197.5684,3.3354,1.1248,55.813995,37.500248,201.7492,NaN,0.0,8.0,,21 / 23,,1845,2021-05-04 15:50:29:813
-0.203513,-0.612934,9.821315,-0.20605,-0.580401,9.787291,-0.012652,-0.030749,0.6962,9.0,-20.52,-43.32,197.5684,3.3354,1.1248,55.813995,37.500248,201.7492,NaN,0.0,8.0,,21 / 23,,1856,2021-05-04 15:50:29:824
-0.155628,-0.548289,9.816526,-0.20605,-0.580401,9.787291,-0.008986,-0.027694,0.696811,9.0,-20.52,-43.32,197.5684,3.3354,1.1248,55.813995,37.500248,201.7492,NaN,0.0,8.0,,21 / 23,,1865,2021-05-04 15:50:29:833
-0.107742,-0.581809,9.792584,-0.210457,-0.583702,9.787001,-0.009597,-0.033803,0.694978,7.86,-20.4,-43.8,197.3918,3.393,1.2061,55.813995,37.500248,201.7492,NaN,0.0,8.0,,21 / 23,,1876,2021-05-04 15:50:29:844
-0.107742,-0.581809,9.792584,-0.210457,-0.583702,9.787001,-0.013262,-0.034414,0.693757,7.86,-20.4,-43.8,197.3918,3.393,1.2061,55.813995,37.500248,201.7492,NaN,0.0,8.0,,21 / 23,,1885,2021-05-04 15:50:29:853
-0.071828,-0.586597,9.77343,-0.209795,-0.585283,9.786921,-0.019982,-0.033803,0.697422,7.02,-20.46,-43.68,197.3918,3.393,1.2061,55.813995,37.500248,201.7492,NaN,0.0,8.0,,21 / 23,,1896,2021-05-04 15:50:29:864
-0.064645,-0.586597,9.811738,-0.209795,-0.585283,9.786921,-0.026091,-0.032581,0.691313,7.02,-20.46,-43.68,197.3918,3.393,1.2061,55.813995,37.500248,201.7492,NaN,0.0,8.0,,21 / 23,,1905,2021-05-04 15:50:29:873
-0.064645,-0.61054,9.866806,-0.202409,-0.587473,9.786945,-0.021815,-0.030138,0.690702,7.62,-20.64,-43.44,196.7329,3.4216,1.228,55.813995,37.500248,201.7492,NaN,0.0,8.0,,21 / 23,,1915,2021-05-04 15:50:29:883
-0.095771,-0.603357,9.862018,-0.202409,-0.587473,9.786945,-0.018149,-0.02464,0.690702,7.62,-20.64,-43.44,196.7329,3.4216,1.228,55.813995,37.500248,201.7492,NaN,0.0,8.0,,21 / 23,,1925,2021-05-04 15:50:29:893
-0.095771,-0.603357,9.862018,-0.193294,-0.588992,9.787038,-0.010819,-0.024029,0.688259,7.86,-20.88,-44.04,196.7329,3.4216,1.228,55.813995,37.500248,201.7492,NaN,0.0,8.0,,21 / 23,,1936,2021-05-04 15:50:29:904
-0.174782,-0.6273,9.811738,-0.193294,-0.588992,9.787038,-0.008376,-0.018531,0.691313,7.86,-20.88,-44.04,196.7329,3.4216,1.228,55.813995,37.500248,201.7492,NaN,0.0,8.0,,21 / 23,,1946,2021-05-04 15:50:29:914
-0.244216,-0.584203,9.783007,-0.186045,-0.589879,9.787125,-0.013262,-0.023418,0.696811,7.98,-21.06,-43.86,196.8005,3.4433,1.1314,55.813995,37.500248,201.7492,NaN,0.0,8.0,,21 / 23,,1956,2021-05-04 15:50:29:924
-0.253793,-0.584203,9.794978,-0.186045,-0.589879,9.787125,-0.017539,-0.033192,0.702309,7.98,-21.06,-43.86,196.8005,3.4433,1.1314,55.813995,37.500248,201.7492,NaN,0.0,8.0,,21 / 23,,1965,2021-05-04 15:50:29:933
-0.253793,-0.584203,9.794978,-0.184723,-0.591355,9.787061,-0.019982,-0.035025,0.701087,7.5,-21.18,-44.04,196.8005,3.4433,1.1314,55.813995,37.500248,201.7492,NaN,0.0,8.0,,21 / 23,,1976,2021-05-04 15:50:29:944
-0.232245,-0.648848,9.818921,-0.184723,-0.591355,9.787061,-0.020593,-0.035635,0.705974,7.5,-21.18,-44.04,196.8005,3.4433,1.1314,55.813995,37.500248,201.7492,NaN,0.0,8.0,,21 / 23,,1987,2021-05-04 15:50:29:955
-0.198725,-0.6273,9.845258,-0.186047,-0.594115,9.786869,-0.017539,-0.033192,0.710861,7.32,-20.94,-43.74,194.6346,3.4571,1.0813,55.813995,37.500248,201.7492,NaN,0.0,8.0,,21 / 23,,1996,2021-05-04 15:50:29:964
-0.174782,-0.634483,9.852441,-0.186047,-0.594115,9.786869,-0.01143,-0.032581,0.711472,7.32,-20.94,-43.74,194.6346,3.4571,1.0813,55.813995,37.500248,201.7492,NaN,0.0,8.0,,21 / 23,,2006,2021-05-04 15:50:29:974
-0.160416,-0.617723,9.823709,-0.188384,-0.597689,9.786607,-0.010208,-0.027694,0.714526,7.74,-21.18,-43.32,194.6346,3.4571,1.0813,55.813995,37.500248,201.7492,NaN,0.0,8.0,,21 / 23,,2015,2021-05-04 15:50:29:983
-0.160416,-0.617723,9.823709,-0.188384,-0.597689,9.786607,-0.01143,-0.026472,0.718802,7.74,-21.18,-43.32,194.6346,3.4571,1.0813,55.813995,37.500248,201.7492,NaN,0.0,8.0,,21 / 23,,2025,2021-05-04 15:50:29:993
-0.134079,-0.565049,9.718362,-0.189807,-0.599227,9.786485,-0.01143,-0.026472,0.718802,7.86,-21.12,-43.74,196.8242,3.4942,1.1028,55.813995,37.500248,201.7492,NaN,0.0,8.0,,21 / 23,,2035,2021-05-04 15:50:30:003
-0.119714,-0.567443,9.720756,-0.189807,-0.599227,9.786485,-0.015706,-0.029527,0.713915,7.86,-21.12,-43.74,196.8242,3.4942,1.1028,55.813995,37.500248,201.7492,NaN,0.0,8.0,,21 / 23,,2045,2021-05-04 15:50:30:013
-0.138868,-0.579414,9.814133,-0.189181,-0.599784,9.786463,-0.021815,-0.03197,0.714526,8.28,-20.88,-43.56,196.8242,3.4942,1.1028,55.813995,37.500248,201.7492,NaN,0.0,8.0,,21 / 23,,2056,2021-05-04 15:50:30:024
-0.174782,-0.646454,9.859624,-0.189181,-0.599784,9.786463,-0.024258,-0.03197,0.714526,8.28,-20.88,-43.56,196.8242,3.4942,1.1028,55.813995,37.500248,201.7492,NaN,0.0,8.0,,21 / 23,,2066,2021-05-04 15:50:30:034
-0.174782,-0.646454,9.859624,-0.187181,-0.60061,9.78645,-0.018149,-0.03197,0.715137,7.62,-21.24,-43.44,196.8941,3.5065,1.1074,55.813995,37.500248,201.7492,NaN,0.0,8.0,,21 / 23,,2075,2021-05-04 15:50:30:043
-0.196331,-0.634483,9.878778,-0.187181,-0.60061,9.78645,-0.016928,-0.025251,0.719413,7.62,-21.24,-43.44,196.8941,3.5065,1.1074,55.813995,37.500248,201.7492,NaN,0.0,8.0,,21 / 23,,2085,2021-05-04 15:50:30:053
-0.21309,-0.670397,9.864412,-0.184941,-0.602033,9.786406,-0.015706,-0.02464,0.71758,6.36,-21.48,-43.68,196.8941,3.5065,1.1074,55.813995,37.500248,201.7492,NaN,0.0,8.0,,21 / 23,,2095,2021-05-04 15:50:30:063
-0.215485,-0.658426,9.864412,-0.184941,-0.602033,9.786406,-0.010208,-0.030138,0.71758,6.36,-21.48,-43.68,196.8941,3.5065,1.1074,55.813995,37.500248,201.7492,NaN,0.0,8.0,,21 / 23,,2105,2021-05-04 15:50:30:073
-0.215485,-0.658426,9.864412,-0.184828,-0.604992,9.786226,-0.01143,-0.036246,0.720635,6.48,-21.3,-43.38,192.3912,3.5196,1.0826,55.813995,37.500248,201.7492,NaN,0.0,8.0,,21 / 23,,2115,2021-05-04 15:50:30:083
-0.234639,-0.620117,9.857229,-0.184828,-0.604992,9.786226,-0.014484,-0.032581,0.721856,6.48,-21.3,-43.38,192.3912,3.5196,1.0826,55.813995,37.500248,201.7492,NaN,0.0,8.0,,21 / 23,,2125,2021-05-04 15:50:30:093
-0.21309,-0.634483,9.771035,-0.184671,-0.607774,9.786057,-0.014484,-0.028916,0.723078,6.84,-21.12,-43.5,192.3912,3.5196,1.0826,55.813995,37.500248,201.7492,NaN,0.0,8.0,,21 / 23,,2136,2021-05-04 15:50:30:104
-0.191542,-0.572232,9.687236,-0.184671,-0.607774,9.786057,-0.019371,-0.034414,0.7243,6.84,-21.12,-43.5,192.3912,3.5196,1.0826,55.813995,37.500248,201.7492,NaN,0.0,8.0,,21 / 23,,2145,2021-05-04 15:50:30:113
-0.105348,-0.622511,9.730332,-0.186047,-0.610041,9.785889,-0.019982,-0.037468,0.727965,6.72,-21.12,-44.28,194.5925,3.5532,1.0811,55.813995,37.500248,201.7492,NaN,0.0,8.0,,21 / 23,,2155,2021-05-04 15:50:30:123
-0.105348,-0.622511,9.730332,-0.186047,-0.610041,9.785889,-0.019982,-0.037468,0.727965,6.72,-21.12,-44.28,194.5925,3.5532,1.0811,55.813995,37.500248,201.7492,NaN,0.0,8.0,,21 / 23,,2165,2021-05-04 15:50:30:133
-0.069434,-0.608146,9.828498,-0.184357,-0.611803,9.785811,-0.018149,-0.035635,0.721856,6.18,-21.42,-44.04,194.5925,3.5532,1.0811,55.813995,37.500248,201.7492,NaN,0.0,8.0,,21 / 23,,2175,2021-05-04 15:50:30:143
-0.129291,-0.600963,9.931452,-0.184357,-0.611803,9.785811,-0.013873,-0.027694,0.722467,6.18,-21.42,-44.04,194.5925,3.5532,1.0811,55.813995,37.500248,201.7492,NaN,0.0,8.0,,21 / 23,,2186,2021-05-04 15:50:30:154
-0.129291,-0.624906,9.869201,-0.178416,-0.612574,9.785872,-0.013262,-0.028305,0.720635,5.7,-22.02,-43.44,191.8893,3.5768,1.0793,55.813995,37.500248,201.7492,NaN,0.0,8.0,,21 / 23,,2196,2021-05-04 15:50:30:164
-0.138868,-0.596174,9.768641,-0.175679,-0.612547,9.785924,-0.012652,-0.030749,0.723078,5.52,-21.72,-43.02,191.8893,3.5768,1.0793,55.813995,37.500248,201.7492,NaN,0.0,8.0,,21 / 23,,2206,2021-05-04 15:50:30:174
-0.138868,-0.596174,9.768641,-0.175679,-0.612547,9.785924,-0.021204,-0.030749,0.725522,5.52,-21.72,-43.02,191.8893,3.5768,1.0793,55.813995,37.500248,201.7492,NaN,0.0,8.0,,21 / 23,,2215,2021-05-04 15:50:30:183
-0.244216,-0.612934,9.711179,-0.170587,-0.613201,9.785974,-0.02548,-0.015477,0.729187,5.4,-21.66,-43.32,191.8893,3.5768,1.0793,55.813995,37.500248,201.7492,NaN,0.0,8.0,,27 / 27,,2226,2021-05-04 15:50:30:194
-0.344776,-0.639271,9.759064,-0.170587,-0.613201,9.785974,-0.022425,-0.025251,0.733463,5.4,-21.66,-43.32,191.8893,3.5768,1.0793,55.813995,37.500248,201.7492,NaN,0.0,8.0,,27 / 27,,2235,2021-05-04 15:50:30:203
-0.318439,-0.632089,9.859624,-0.174771,-0.615471,9.785757,-0.016317,-0.036246,0.740182,5.1,-21.96,-42.9,189.7817,3.585,0.9987,55.813995,37.500248,201.7492,NaN,0.0,8.0,,27 / 27,,2245,2021-05-04 15:50:30:213
-0.244216,-0.663214,9.890749,-0.174771,-0.615471,9.785757,-0.008376,-0.039911,0.742626,5.1,-21.96,-42.9,189.7817,3.585,0.9987,55.813995,37.500248,201.7492,NaN,0.0,8.0,,27 / 27,,2255,2021-05-04 15:50:30:223
-0.244216,-0.663214,9.890749,-0.183085,-0.616833,9.785519,-0.015095,-0.025862,0.745069,5.22,-21.78,-42.9,189.7817,3.585,0.9987,55.813995,37.500248,201.7492,NaN,0.0,8.0,,27 / 27,,2265,2021-05-04 15:50:30:233
-0.205908,-0.629694,9.768641,-0.183085,-0.616833,9.785519,-0.020593,-0.035025,0.744458,5.22,-21.78,-42.9,189.7817,3.585,0.9987,55.813995,37.500248,201.7492,NaN,0.0,8.0,,27 / 27,,2275,2021-05-04 15:50:30:243
-0.153234,-0.620117,9.749487,-0.191986,-0.617461,9.785309,-0.02548,-0.042355,0.746902,5.28,-21.66,-43.44,189.6513,3.6063,1.0719,55.813995,37.500248,201.7492,NaN,0.0,8.0,,27 / 27,,2285,2021-05-04 15:50:30:253
-0.189148,-0.668003,9.852441,-0.191986,-0.617461,9.785309,-0.026702,-0.035635,0.748124,5.28,-21.66,-43.44,189.6513,3.6063,1.0719,55.813995,37.500248,201.7492,NaN,0.0,8.0,,27 / 27,,2295,2021-05-04 15:50:30:263
-0.237033,-0.6273,9.869201,-0.193299,-0.619527,9.785152,-0.026702,-0.035635,0.748124,4.62,-21.96,-43.02,189.6513,3.6063,1.0719,55.813995,37.500248,201.7492,NaN,0.0,8.0,,27 / 27,,2306,2021-05-04 15:50:30:274
-0.237033,-0.6273,9.869201,-0.193299,-0.619527,9.785152,-0.020593,-0.017309,0.756065,4.62,-21.96,-43.02,189.6513,3.6063,1.0719,55.813995,37.500248,201.7492,NaN,0.0,8.0,,27 / 27,,2316,2021-05-04 15:50:30:284
-0.325621,-0.653637,9.763853,-0.19506,-0.622502,9.784928,-0.012041,-0.019753,0.756676,5.1,-22.2,-43.2,189.5452,3.622,1.1317,55.813995,37.500248,201.7492,NaN,0.0,8.0,,27 / 27,,2325,2021-05-04 15:50:30:293
-0.407027,-0.622511,9.814133,-0.19506,-0.622502,9.784928,-0.010208,-0.035635,0.762784,5.1,-22.2,-43.2,189.5452,3.622,1.1317,55.813995,37.500248,201.7492,NaN,0.0,8.0,,27 / 27,,2336,2021-05-04 15:50:30:304
-0.373507,-0.64406,9.792584,-0.200994,-0.623651,9.784736,-0.012652,-0.028305,0.778056,5.52,-22.56,-42.9,189.5452,3.622,1.1317,55.813995,37.500248,201.7492,NaN,0.0,8.0,,27 / 27,,2345,2021-05-04 15:50:30:313
-0.411815,-0.622511,9.759064,-0.200994,-0.623651,9.784736,-0.020593,-0.026472,0.791495,5.52,-22.56,-42.9,189.5452,3.622,1.1317,55.813995,37.500248,201.7492,NaN,0.0,8.0,,27 / 27,,2355,2021-05-04 15:50:30:323
-0.411815,-0.622511,9.759064,-0.217277,-0.625324,9.784281,-0.02548,-0.035635,0.808599,5.4,-22.2,-43.08,189.462,3.6462,1.1768,55.813995,37.500248,201.7492,NaN,0.0,8.0,,27 / 27,,2365,2021-05-04 15:50:30:333
-0.481249,-0.663214,9.718362,-0.217277,-0.625324,9.784281,-0.030978,-0.042966,0.818373,5.4,-22.2,-43.08,189.462,3.6462,1.1768,55.813995,37.500248,201.7492,NaN,0.0,8.0,,27 / 27,,2375,2021-05-04 15:50:30:343
-0.464489,-0.603357,9.816526,-0.239043,-0.628537,9.783567,-0.030367,-0.041744,0.832423,5.1,-21.84,-43.56,189.462,3.6462,1.1768,55.813995,37.500248,201.7492,NaN,0.0,8.0,,27 / 27,,2385,2021-05-04 15:50:30:353
-0.373507,-0.670397,9.811738,-0.239043,-0.628537,9.783567,-0.020593,-0.036246,0.841586,5.1,-21.84,-43.56,189.462,3.6462,1.1768,55.813995,37.500248,201.7492,NaN,0.0,8.0,,27 / 27,,2396,2021-05-04 15:50:30:364
-0.134079,-0.651243,9.751882,-0.253451,-0.630318,9.783091,-0.01876,-0.043577,0.847695,4.86,-22.02,-43.08,189.0752,3.6748,1.3996,55.813995,37.500248,201.7492,NaN,0.0,8.0,,27 / 27,,2406,2021-05-04 15:50:30:374
-0.134079,-0.651243,9.751882,-0.253451,-0.630318,9.783091,-0.020593,-0.053351,0.855025,4.86,-22.02,-43.08,189.0752,3.6748,1.3996,55.813995,37.500248,201.7492,NaN,0.0,8.0,,27 / 27,,2416,2021-05-04 15:50:30:384
-0.10056,-0.646454,9.775824,-0.255249,-0.629874,9.783072,-0.032199,-0.044188,0.856858,4.32,-22.02,-43.08,189.0752,3.6748,1.3996,55.813995,37.500248,201.7492,NaN,0.0,8.0,,27 / 27,,2426,2021-05-04 15:50:30:394
-0.208302,-0.744619,9.897932,-0.255249,-0.629874,9.783072,-0.035254,-0.02464,0.863577,4.32,-22.02,-43.08,189.0752,3.6748,1.3996,55.813995,37.500248,201.7492,NaN,0.0,8.0,,27 / 27,,2435,2021-05-04 15:50:30:403
-0.277736,-0.794899,9.897932,-0.257805,-0.631263,9.782915,-0.029756,-0.020364,0.872129,4.26,-22.38,-44.4,186.5616,3.6826,1.4946,55.813995,37.500248,201.7492,NaN,0.0,8.0,,27 / 27,,2445,2021-05-04 15:50:30:413
-0.277736,-0.794899,9.897932,-0.257805,-0.631263,9.782915,-0.029756,-0.020364,0.872129,4.26,-22.38,-44.4,186.5616,3.6826,1.4946,55.813995,37.500248,201.7492,NaN,0.0,8.0,,27 / 27,,2456,2021-05-04 15:50:30:424
-0.426181,-0.715888,9.897932,-0.264009,-0.633184,9.782626,-0.016928,-0.036857,0.876405,4.74,-22.08,-44.4,186.5616,3.6826,1.4946,55.813995,37.500248,201.7492,NaN,0.0,8.0,,27 / 27,,2465,2021-05-04 15:50:30:433
-0.438152,-0.756591,9.873989,-0.264009,-0.633184,9.782626,-0.01143,-0.030138,0.885568,4.74,-22.08,-44.4,186.5616,3.6826,1.4946,55.813995,37.500248,201.7492,NaN,0.0,8.0,,27 / 27,,2475,2021-05-04 15:50:30:443
-0.41421,-0.639271,9.761458,-0.268658,-0.631396,9.782615,-0.0041,-0.033192,0.899007,3.96,-21.24,-43.38,186.8187,3.702,1.5459,55.813995,37.500248,201.7492,NaN,0.0,8.0,,27 / 27,,2485,2021-05-04 15:50:30:453
-0.41421,-0.639271,9.761458,-0.268658,-0.631396,9.782615,-0.008376,-0.044798,0.906949,3.96,-21.24,-43.38,186.8187,3.702,1.5459,55.813995,37.500248,201.7492,NaN,0.0,8.0,,27 / 27,,2495,2021-05-04 15:50:30:463
-0.256187,-0.670397,9.577099,-0.27252,-0.627835,9.782738,-0.026091,-0.057016,0.91489,3.48,-21.66,-43.98,186.8187,3.702,1.5459,55.813995,37.500248,201.7492,NaN,0.0,8.0,,27 / 27,,2505,2021-05-04 15:50:30:473
-0.234639,-0.754197,9.699207,-0.27252,-0.627835,9.782738,-0.040141,-0.053351,0.924053,3.48,-21.66,-43.98,186.8187,3.702,1.5459,55.813995,37.500248,201.7492,NaN,0.0,8.0,,27 / 27,,2515,2021-05-04 15:50:30:483
-0.189148,-0.754197,9.976943,-0.273287,-0.628945,9.782644,-0.046249,-0.040522,0.928329,3.84,-22.26,-44.52,186.3064,3.6707,1.5957,55.813995,37.500248,201.7492,NaN,0.0,8.0,,27 / 27,,2525,2021-05-04 15:50:30:493
-0.217879,-0.778139,10.101445,-0.273287,-0.628945,9.782644,-0.030367,-0.041744,0.931994,3.84,-22.26,-44.52,186.3064,3.6707,1.5957,55.813995,37.500248,201.7492,NaN,0.0,8.0,,27 / 27,,2536,2021-05-04 15:50:30:504
-0.217879,-0.778139,10.101445,-0.276936,-0.632125,9.782336,-0.007765,-0.041744,0.935048,4.08,-22.68,-43.92,186.3064,3.6707,1.5957,55.813995,37.500248,201.7492,NaN,0.0,8.0,,27 / 27,,2546,2021-05-04 15:50:30:514
-0.294496,-0.658426,9.917087,-0.276936,-0.632125,9.782336,0.004453,-0.030749,0.935659,4.08,-22.68,-43.92,186.3064,3.6707,1.5957,55.813995,37.500248,201.7492,NaN,0.0,8.0,,27 / 27,,2556,2021-05-04 15:50:30:524
-0.320833,-0.632089,9.538791,-0.281085,-0.627997,9.782484,1.77E-4,-0.025251,0.944822,3.18,-22.8,-43.44,183.962,3.6958,1.6216,55.813995,37.500248,201.7492,NaN,0.0,8.0,,27 / 27,,2565,2021-05-04 15:50:30:533
-0.337593,-0.617723,9.526819,-0.281085,-0.627997,9.782484,-0.020593,-0.03197,0.955818,3.18,-22.8,-43.44,183.962,3.6958,1.6216,55.813995,37.500248,201.7492,NaN,0.0,8.0,,27 / 27,,2575,2021-05-04 15:50:30:543
-0.289707,-0.725465,9.720756,-0.287591,-0.623822,9.782562,-0.040751,-0.042966,0.960705,2.76,-22.44,-43.56,183.962,3.6958,1.6216,55.813995,37.500248,201.7492,NaN,0.0,8.0,,27 / 27,,2585,2021-05-04 15:50:30:553
-0.289707,-0.725465,9.720756,-0.287591,-0.623822,9.782562,-0.047471,-0.05274,0.971089,2.76,-22.44,-43.56,183.962,3.6958,1.6216,55.813995,37.500248,201.7492,NaN,0.0,8.0,,27 / 27,,2595,2021-05-04 15:50:30:563
-0.311256,-0.758985,9.996098,-0.290983,-0.626077,9.782318,-0.03953,-0.047242,0.983918,2.82,-22.62,-43.56,183.7889,3.6472,1.6839,55.813995,37.500248,201.7492,NaN,0.0,8.0,,27 / 27,,2606,2021-05-04 15:50:30:574
-0.390267,-0.766168,10.024829,-0.290983,-0.626077,9.782318,-0.016928,-0.036857,0.998578,2.82,-22.62,-43.56,183.7889,3.6472,1.6839,55.813995,37.500248,201.7492,NaN,0.0,8.0,,27 / 27,,2615,2021-05-04 15:50:30:583
-0.36393,-0.768562,9.854836,-0.294187,-0.628104,9.782092,-0.007154,-0.038079,1.004076,2.46,-22.32,-43.32,183.7889,3.6472,1.6839,55.813995,37.500248,201.7492,NaN,0.0,8.0,,27 / 27,,2625,2021-05-04 15:50:30:593
-0.36393,-0.768562,9.854836,-0.294187,-0.628104,9.782092,-0.007154,-0.038079,1.004076,2.46,-22.32,-43.32,183.7889,3.6472,1.6839,55.813995,37.500248,201.7492,NaN,0.0,8.0,,27 / 27,,2635,2021-05-04 15:50:30:603
-0.351958,-0.663214,9.617802,-0.299699,-0.624291,9.782168,-0.009597,-0.036857,1.011407,2.04,-22.14,-43.08,181.6376,3.6722,1.7226,55.813995,37.500248,201.7492,NaN,0.0,8.0,,27 / 27,,2646,2021-05-04 15:50:30:614
-0.277736,-0.713494,9.665688,-0.299699,-0.624291,9.782168,-0.019371,-0.042355,1.023624,2.04,-22.14,-43.08,181.6376,3.6722,1.7226,55.813995,37.500248,201.7492,NaN,0.0,8.0,,27 / 27,,2656,2021-05-04 15:50:30:624
-0.208302,-0.775745,9.862018,-0.304674,-0.621157,9.782215,-0.036475,-0.050907,1.023624,1.74,-22.44,-42.78,181.6376,3.6722,1.7226,55.813995,37.500248,201.7492,NaN,0.0,8.0,,27 / 27,,2665,2021-05-04 15:50:30:633
-0.208302,-0.775745,9.862018,-0.304674,-0.621157,9.782215,-0.043806,-0.058848,1.025456,1.74,-22.44,-42.78,181.6376,3.6722,1.7226,55.813995,37.500248,201.7492,NaN,0.0,8.0,,27 / 27,,2675,2021-05-04 15:50:30:643
-0.129291,-0.773351,9.972155,-0.306694,-0.622949,9.782038,-0.040751,-0.055183,1.024235,1.92,-22.68,-42.42,181.5265,3.6421,1.7958,55.813995,37.500248,201.7492,NaN,0.0,8.0,,27 / 27,,2685,2021-05-04 15:50:30:653
-0.117319,-0.811659,9.878778,-0.306694,-0.622949,9.782038,-0.026702,-0.042966,1.030343,1.92,-22.68,-42.42,181.5265,3.6421,1.7958,55.813995,37.500248,201.7492,NaN,0.0,8.0,,27 / 27,,2695,2021-05-04 15:50:30:663
-0.126897,-0.732648,9.730332,-0.309816,-0.623444,9.781908,-0.013873,-0.035025,1.029122,1.98,-22.68,-42.6,181.5265,3.6421,1.7958,55.813995,37.500248,201.7492,NaN,0.0,8.0,,27 / 27,,2706,2021-05-04 15:50:30:674
-0.126897,-0.732648,9.730332,-0.309816,-0.623444,9.781908,-0.010208,-0.036857,1.029733,1.98,-22.68,-42.6,181.5265,3.6421,1.7958,55.813995,37.500248,201.7492,NaN,0.0,8.0,,27 / 27,,2715,2021-05-04 15:50:30:683
-0.143656,-0.732648,9.70639,-0.315232,-0.619916,9.781959,-0.015706,-0.044188,1.032176,2.16,-22.92,-43.02,181.4221,3.645,1.8141,55.813995,37.500248,201.7492,NaN,0.0,8.0,,27 / 27,,2726,2021-05-04 15:50:30:694
-0.184359,-0.703917,9.828498,-0.315232,-0.619916,9.781959,-0.023036,-0.043577,1.031565,2.16,-22.92,-43.02,181.4221,3.645,1.8141,55.813995,37.500248,201.7492,NaN,0.0,8.0,,27 / 27,,2735,2021-05-04 15:50:30:703
-0.141262,-0.72786,9.835681,-0.319529,-0.616697,9.782023,-0.027312,-0.043577,1.034009,2.16,-22.5,-43.02,181.4221,3.645,1.8141,55.813995,37.500248,201.7492,NaN,0.0,8.0,,27 / 27,,2745,2021-05-04 15:50:30:713
-0.141262,-0.72786,9.835681,-0.319529,-0.616697,9.782023,-0.032199,-0.049685,1.029733,2.16,-22.5,-43.02,181.4221,3.645,1.8141,55.813995,37.500248,201.7492,NaN,0.0,8.0,,27 / 27,,2755,2021-05-04 15:50:30:723
-0.10056,-0.706311,9.80695,-0.302374,-0.638152,9.781192,-0.029756,-0.044798,1.026678,1.44,-22.02,-43.38,179.0606,3.6055,1.8709,55.813995,37.500248,201.7492,NaN,0.0,8.0,,27 / 27,,2765,2021-05-04 15:50:30:733
-0.102954,-0.696734,9.775824,-0.302374,-0.638152,9.781192,-0.029145,-0.039911,1.026067,1.44,-22.02,-43.38,179.0606,3.6055,1.8709,55.813995,37.500248,201.7492,NaN,0.0,8.0,,27 / 27,,2775,2021-05-04 15:50:30:743
-0.186753,-0.706311,9.761458,-0.284475,-0.654185,9.78067,-0.021204,-0.033803,1.028511,0.12,-22.74,-43.8,179.0606,3.6055,1.8709,55.813995,37.500248,201.7492,NaN,0.0,8.0,,27 / 27,,2785,2021-05-04 15:50:30:753
-0.21309,-0.766168,9.780613,-0.284475,-0.654185,9.78067,-0.02548,-0.039911,1.023013,0.12,-22.74,-43.8,179.0606,3.6055,1.8709,55.813995,37.500248,201.7492,NaN,0.0,8.0,,27 / 27,,2795,2021-05-04 15:50:30:763
-0.299284,-0.785322,9.885961,-0.270295,-0.66614,9.780266,-0.02548,-0.044188,1.024235,-0.36,-22.44,-43.62,177.0573,3.8249,1.666,55.813995,37.500248,201.7492,NaN,0.0,8.0,,27 / 27,,2806,2021-05-04 15:50:30:774
-0.299284,-0.785322,9.885961,-0.270295,-0.66614,9.780266,-0.02548,-0.044188,1.024235,-0.36,-22.44,-43.62,177.0573,3.8249,1.666,55.813995,37.500248,201.7492,NaN,0.0,8.0,,27 / 27,,2816,2021-05-04 15:50:30:784
-0.26337,-0.835602,9.873989,-0.258301,-0.678659,9.779728,-0.026702,-0.042966,1.022402,0.48,-21.96,-43.44,177.0573,3.8249,1.666,55.813995,37.500248,201.7492,NaN,0.0,8.0,,27 / 27,,2826,2021-05-04 15:50:30:794
-0.169993,-0.799688,9.895537,-0.258301,-0.678659,9.779728,-0.027923,-0.052129,1.022402,0.48,-21.96,-43.44,177.0573,3.8249,1.666,55.813995,37.500248,201.7492,NaN,0.0,8.0,,27 / 27,,2835,2021-05-04 15:50:30:803
-0.169993,-0.799688,9.895537,-0.25164,-0.693988,9.778827,-0.023036,-0.059459,1.019348,0.66,-22.62,-43.26,179.7652,4.058,1.4741,55.813995,37.500248,201.7492,NaN,0.0,8.0,,27 / 27,,2845,2021-05-04 15:50:30:813
-0.172388,-0.735042,9.857229,-0.25164,-0.693988,9.778827,-0.015706,-0.044798,1.016293,0.66,-22.62,-43.26,179.7652,4.058,1.4741,55.813995,37.500248,201.7492,NaN,0.0,8.0,,27 / 27,,2855,2021-05-04 15:50:30:823
-0.158022,-0.675185,9.751882,-0.242339,-0.705571,9.778232,-0.013262,-0.042966,1.013239,0.3,-22.26,-43.02,179.7652,4.058,1.4741,55.813995,37.500248,201.7492,NaN,0.0,8.0,,27 / 27,,2865,2021-05-04 15:50:30:833
-0.117319,-0.648848,9.699207,-0.242339,-0.705571,9.778232,-0.016317,-0.039301,1.007131,0.3,-22.26,-43.02,179.7652,4.058,1.4741,55.813995,37.500248,201.7492,NaN,0.0,8.0,,27 / 27,,2875,2021-05-04 15:50:30:843
-0.117319,-0.648848,9.699207,-0.230199,-0.710433,9.778174,-0.022425,-0.041744,1.003465,0.18,-21.42,-43.02,177.4623,4.1259,1.4197,55.813995,37.500248,201.7492,NaN,0.0,8.0,,27 / 27,,2885,2021-05-04 15:50:30:853
-0.184359,-0.656031,9.780613,-0.230199,-0.710433,9.778174,-0.027923,-0.030749,1.001022,0.18,-21.42,-43.02,177.4623,4.1259,1.4197,55.813995,37.500248,201.7492,NaN,0.0,8.0,,27 / 27,,2895,2021-05-04 15:50:30:863
-0.186753,-0.691945,9.802161,-0.219185,-0.711436,9.778354,-0.03281,-0.043577,0.996746,-0.06,-21.6,-42.48,177.4623,4.1259,1.4197,55.813995,37.500248,201.7492,NaN,0.0,8.0,,27 / 27,,2907,2021-05-04 15:50:30:875
-0.222668,-0.775745,9.809344,-0.219185,-0.711436,9.778354,-0.034032,-0.042355,0.993691,-0.06,-21.6,-42.48,177.4623,4.1259,1.4197,55.813995,37.500248,201.7492,NaN,0.0,8.0,,27 / 27,,2915,2021-05-04 15:50:30:883
-0.167599,-0.830813,9.842864,-0.208759,-0.711021,9.778612,-0.03281,-0.038079,0.994913,-0.12,-21.84,-42.48,177.8429,4.1603,1.2841,55.813995,37.500248,201.7492,NaN,0.0,8.0,,27 / 27,,2927,2021-05-04 15:50:30:895
-0.167599,-0.830813,9.842864,-0.208759,-0.711021,9.778612,-0.027923,-0.036246,0.993691,-0.12,-21.84,-42.48,177.8429,4.1603,1.2841,55.813995,37.500248,201.7492,NaN,0.0,8.0,,27 / 27,,2935,2021-05-04 15:50:30:903
-0.158022,-0.802082,9.895537,-0.204438,-0.714487,9.77845,-0.022425,-0.041744,0.988194,-0.72,-21.96,-43.44,177.8429,4.1603,1.2841,55.813995,37.500248,201.7492,NaN,0.0,8.0,,27 / 27,,2945,2021-05-04 15:50:30:913
-0.047885,-0.749408,9.893144,-0.204438,-0.714487,9.77845,-0.016317,-0.047853,0.990026,-0.72,-21.96,-43.44,177.8429,4.1603,1.2841,55.813995,37.500248,201.7492,NaN,0.0,8.0,,27 / 27,,2955,2021-05-04 15:50:30:923
-0.210696,-0.754197,9.862018,-0.203279,-0.719917,9.778076,-0.015095,-0.042355,0.98575,-1.02,-22.38,-43.86,175.6347,4.1781,1.1977,55.813995,37.500248,201.7492,NaN,0.0,8.0,,27 / 27,,2966,2021-05-04 15:50:30:934
-0.210696,-0.754197,9.862018,-0.203279,-0.719917,9.778076,-0.013262,-0.042966,0.983307,-1.02,-22.38,-43.86,175.6347,4.1781,1.1977,55.813995,37.500248,201.7492,NaN,0.0,8.0,,27 / 27,,2975,2021-05-04 15:50:30:943
-0.181965,-0.670397,9.763853,-0.202472,-0.723653,9.777818,-0.021204,-0.045409,0.974144,-0.78,-22.14,-43.44,175.6347,4.1781,1.1977,55.813995,37.500248,201.7492,NaN,0.0,8.0,,27 / 27,,2985,2021-05-04 15:50:30:953
-0.150839,-0.737437,9.75667,-0.202196,-0.724527,9.777759,-0.027312,-0.044188,0.974144,-0.78,-22.14,-43.44,175.6347,4.1781,1.1977,55.813995,37.500248,201.7492,NaN,0.0,8.0,,27 / 27,,2995,2021-05-04 15:50:30:963
-0.043097,-0.672791,9.842864,-0.202196,-0.724527,9.777759,-0.024869,-0.050907,0.963148,-0.72,-21.6,-43.02,175.699,4.2369,1.1847,55.813995,37.500248,201.7492,NaN,0.0,8.0,,27 / 27,,3005,2021-05-04 15:50:30:973
-0.019154,-0.699128,9.862018,-0.195544,-0.725751,9.777803,-0.022425,-0.043577,0.95704,-0.72,-21.6,-43.02,175.699,4.2369,1.1847,55.813995,37.500248,201.7492,NaN,0.0,8.0,,27 / 27,,3015,2021-05-04 15:50:30:983
-0.019154,-0.699128,9.862018,-0.195544,-0.725751,9.777803,-0.019982,-0.034414,0.949098,-1.2,-21.3,-43.62,175.699,4.2369,1.1847,55.813995,37.500248,201.7492,NaN,0.0,8.0,,27 / 27,,3026,2021-05-04 15:50:30:994
-0.014366,-0.67758,9.766247,-0.185706,-0.72402,9.778123,-0.017539,-0.036857,0.939324,-1.2,-21.3,-43.62,175.699,4.2369,1.1847,55.813995,37.500248,201.7492,NaN,0.0,8.0,,27 / 27,,3036,2021-05-04 15:50:31:004
-0.052674,-0.651243,9.732727,-0.179643,-0.722497,9.778349,-0.020593,-0.040522,0.935048,-1.26,-21.36,-44.16,175.6611,4.234,1.088,55.813995,37.500248,201.7492,NaN,0.0,8.0,,27 / 27,,3045,2021-05-04 15:50:31:013
-0.06704,-0.672791,9.785401,-0.179643,-0.722497,9.778349,-0.023036,-0.036857,0.927718,-1.26,-21.36,-44.16,175.6611,4.234,1.088,55.813995,37.500248,201.7492,NaN,0.0,8.0,,27 / 27,,3056,2021-05-04 15:50:31:024
-0.06704,-0.672791,9.785401,-0.179643,-0.722497,9.778349,-0.023036,-0.036857,0.927718,-1.26,-21.36,-44.16,175.6611,4.234,1.088,55.813995,37.500248,201.7492,NaN,0.0,8.0,,27 / 27,,3065,2021-05-04 15:50:31:033
-0.112531,-0.701522,9.823709,-0.169187,-0.718923,9.778799,-0.02548,-0.037468,0.925885,-1.14,-21.48,-43.56,175.6611,4.234,1.088,55.813995,37.500248,201.7492,NaN,0.0,8.0,,27 / 27,,3076,2021-05-04 15:50:31:044
-0.124502,-0.749408,9.912297,-0.169187,-0.718923,9.778799,-0.023036,-0.045409,0.916722,-1.14,-21.48,-43.56,175.6611,4.234,1.088,55.813995,37.500248,201.7492,NaN,0.0,8.0,,27 / 27,,3085,2021-05-04 15:50:31:053
-0.155628,-0.656031,9.933846,-0.159367,-0.717979,9.779034,-0.019371,-0.046631,0.913057,-1.2,-20.58,-42.9,175.8607,4.2041,0.9912,55.813995,37.500248,201.7492,NaN,0.0,8.0,,27 / 27,,3096,2021-05-04 15:50:31:064
-0.155628,-0.656031,9.933846,-0.159367,-0.717979,9.779034,-0.008986,-0.026472,0.913668,-1.2,-20.58,-42.9,175.8607,4.2041,0.9912,55.813995,37.500248,201.7492,NaN,0.0,8.0,,27 / 27,,3105,2021-05-04 15:50:31:073
-0.107742,-0.69434,9.70639,-0.157873,-0.716363,9.779176,-0.01143,-0.030138,0.910003,-1.8,-20.28,-43.2,175.8607,4.2041,0.9912,55.813995,37.500248,201.7492,NaN,0.0,8.0,,27 / 27,,3116,2021-05-04 15:50:31:084
-0.160416,-0.57702,9.615408,-0.157873,-0.716363,9.779176,-0.022425,-0.037468,0.909392,-1.8,-20.28,-43.2,175.8607,4.2041,0.9912,55.813995,37.500248,201.7492,NaN,0.0,8.0,,27 / 27,,3125,2021-05-04 15:50:31:093
-0.210696,-0.735042,9.75667,-0.160707,-0.712023,9.779448,-0.031588,-0.033803,0.913057,-2.4,-21.06,-43.74,173.5988,4.1891,0.9249,55.813995,37.500248,201.7492,NaN,0.0,8.0,,27 / 27,,3136,2021-05-04 15:50:31:104
-0.33041,-0.701522,9.953,-0.165296,-0.710384,9.77949,-0.030367,-0.035025,0.915501,-2.16,-20.64,-43.62,173.5988,4.1891,0.9249,55.813995,37.500248,201.7492,NaN,0.0,8.0,,27 / 27,,3145,2021-05-04 15:50:31:113
-0.33041,-0.701522,9.953,-0.165296,-0.710384,9.77949,-0.022425,-0.041744,0.913057,-2.16,-20.64,-43.62,173.5988,4.1891,0.9249,55.813995,37.500248,201.7492,NaN,0.0,8.0,,27 / 27,,3156,2021-05-04 15:50:31:124
-0.272947,-0.715888,9.905115,-0.175718,-0.709589,9.779366,-0.022425,-0.041744,0.913057,-2.34,-20.4,-43.2,173.5988,4.1891,0.9249,55.813995,37.500248,201.7492,NaN,0.0,8.0,,27 / 27,,3165,2021-05-04 15:50:31:133
-0.368718,-0.893064,9.818921,-0.175718,-0.709589,9.779366,-0.017539,-0.042966,0.920388,-2.34,-20.4,-43.2,173.5988,4.1891,0.9249,55.813995,37.500248,201.7492,NaN,0.0,8.0,,27 / 27,,3175,2021-05-04 15:50:31:143
-0.28013,-0.651243,9.761458,-0.189037,-0.708705,9.779181,-0.016317,-0.032581,0.929551,-2.4,-20.46,-43.38,173.1438,4.1494,1.0294,55.813995,37.500248,201.7492,NaN,0.0,8.0,,27 / 27,,3185,2021-05-04 15:50:31:153
-0.378295,-0.7111,9.830893,-0.189037,-0.708705,9.779181,-0.015095,-0.044188,0.931383,-2.4,-20.46,-43.38,173.1438,4.1494,1.0294,55.813995,37.500248,201.7492,NaN,0.0,8.0,,27 / 27,,3195,2021-05-04 15:50:31:163
-0.378295,-0.7111,9.830893,-0.206802,-0.710276,9.778708,-0.014484,-0.044188,0.931994,-2.22,-20.16,-43.08,173.1438,4.1494,1.0294,55.813995,37.500248,201.7492,NaN,0.0,8.0,,27 / 27,,3206,2021-05-04 15:50:31:174
-0.33041,-0.57702,9.883567,-0.206802,-0.710276,9.778708,-0.010819,-0.036857,0.935659,-2.22,-20.16,-43.08,173.1438,4.1494,1.0294,55.813995,37.500248,201.7492,NaN,0.0,8.0,,27 / 27,,3215,2021-05-04 15:50:31:183
-0.36393,-0.663214,9.62259,-0.220196,-0.706088,9.778719,-0.023036,-0.03869,0.936881,-2.94,-19.92,-43.14,170.3788,4.1535,1.2115,55.813995,37.500248,201.7492,NaN,0.0,8.0,,27 / 27,,3226,2021-05-04 15:50:31:194
-0.36393,-0.663214,9.62259,-0.220196,-0.706088,9.778719,-0.038308,-0.045409,0.935048,-2.82,-20.16,-43.14,170.3788,4.1535,1.2115,55.813995,37.500248,201.7492,NaN,0.0,8.0,,27 / 27,,3235,2021-05-04 15:50:31:203
-0.318439,-0.732648,9.718362,-0.230957,-0.701662,9.778789,-0.038308,-0.044188,0.943601,-3.0,-19.98,-42.96,170.3788,4.1535,1.2115,55.813995,37.500248,201.7492,NaN,0.0,8.0,,27 / 28,,3245,2021-05-04 15:50:31:213
-0.344776,-0.816448,10.022434,-0.230957,-0.701662,9.778789,-0.026091,-0.038079,0.947266,-3.0,-19.98,-42.96,170.3788,4.1535,1.2115,55.813995,37.500248,201.7492,NaN,0.0,8.0,,27 / 28,,3255,2021-05-04 15:50:31:223
-0.22985,-0.770956,9.967366,-0.242329,-0.704013,9.778345,-0.012041,-0.040522,0.946655,-3.48,-19.98,-42.06,170.1344,4.103,1.353,55.813995,37.500248,201.7492,NaN,0.0,8.0,,27 / 28,,3266,2021-05-04 15:50:31:234
-0.29689,-0.653637,9.811738,-0.242329,-0.704013,9.778345,-0.006543,-0.033192,0.947877,-3.48,-19.98,-42.06,170.1344,4.103,1.353,55.813995,37.500248,201.7492,NaN,0.0,8.0,,27 / 28,,3275,2021-05-04 15:50:31:243
-0.29689,-0.653637,9.811738,-0.250756,-0.704447,9.778101,-0.006543,-0.033192,0.947877,-3.36,-19.8,-42.42,170.1344,4.103,1.353,55.813995,37.500248,201.7492,NaN,0.0,8.0,,27 / 28,,3286,2021-05-04 15:50:31:254
-0.323227,-0.720677,9.629773,-0.250756,-0.704447,9.778101,-0.014484,-0.033192,0.953985,-3.36,-19.8,-42.42,170.1344,4.103,1.353,55.813995,37.500248,201.7492,NaN,0.0,8.0,,27 / 28,,3295,2021-05-04 15:50:31:263
-0.349564,-0.689551,9.701602,-0.26108,-0.702585,9.777966,-0.027312,-0.042966,0.956429,-3.0,-19.56,-43.32,169.9024,4.1193,1.469,55.813995,37.500248,201.7492,NaN,0.0,8.0,,27 / 28,,3305,2021-05-04 15:50:31:273
-0.265764,-0.69434,9.883567,-0.26108,-0.702585,9.777966,-0.033421,-0.04602,0.962537,-3.0,-19.56,-43.32,169.9024,4.1193,1.469,55.813995,37.500248,201.7492,NaN,0.0,8.0,,27 / 28,,3316,2021-05-04 15:50:31:284
-0.232245,-0.656031,10.034406,-0.269888,-0.704548,9.777584,-0.033421,-0.04602,0.962537,-3.42,-20.34,-42.42,169.9024,4.1193,1.469,55.813995,37.500248,201.7492,NaN,0.0,8.0,,27 / 28,,3326,2021-05-04 15:50:31:294
-0.232245,-0.656031,10.034406,-0.269888,-0.704548,9.777584,-0.019982,-0.039301,0.961926,-3.42,-20.34,-42.42,169.9024,4.1193,1.469,55.813995,37.500248,201.7492,NaN,0.0,8.0,,27 / 28,,3335,2021-05-04 15:50:31:303
-0.105348,-0.687157,9.72315,-0.275631,-0.703316,9.777514,-0.012652,-0.051518,0.953374,-3.06,-20.88,-41.88,170.154,4.1199,1.5811,55.813995,37.500248,201.7492,NaN,0.0,8.0,,27 / 28,,3345,2021-05-04 15:50:31:313
-0.138868,-0.646454,9.598648,-0.275631,-0.703316,9.777514,-0.019982,-0.055794,0.948487,-3.06,-20.88,-41.88,170.154,4.1199,1.5811,55.813995,37.500248,201.7492,NaN,0.0,8.0,,27 / 28,,3355,2021-05-04 15:50:31:323
-0.129291,-0.706311,9.701602,-0.271466,-0.699403,9.77791,-0.035254,-0.03869,0.943601,-3.54,-19.56,-42.0,170.154,4.1199,1.5811,55.813995,37.500248,201.7492,NaN,0.0,8.0,,27 / 28,,3365,2021-05-04 15:50:31:333
-0.095771,-0.682368,10.005674,-0.271466,-0.699403,9.77791,-0.035865,-0.036857,0.939935,-3.54,-19.56,-42.0,170.154,4.1199,1.5811,55.813995,37.500248,201.7492,NaN,0.0,8.0,,27 / 28,,3376,2021-05-04 15:50:31:344
-0.095771,-0.682368,10.005674,-0.264401,-0.699374,9.778106,-0.021815,-0.042966,0.926496,-3.66,-19.62,-42.42,167.3111,4.0898,1.5903,55.813995,37.500248,201.7492,NaN,0.0,8.0,,27 / 28,,3385,2021-05-04 15:50:31:353
-0.062251,-0.845179,9.941029,-0.264401,-0.699374,9.778106,-0.01876,-0.035635,0.919777,-3.66,-19.62,-42.42,167.3111,4.0898,1.5903,55.813995,37.500248,201.7492,NaN,0.0,8.0,,27 / 28,,3396,2021-05-04 15:50:31:364
-0.098165,-0.600963,9.70639,-0.249491,-0.698191,9.778582,-0.01876,-0.035635,0.919777,-3.0,-19.86,-43.08,167.3111,4.0898,1.5903,55.813995,37.500248,201.7492,NaN,0.0,8.0,,27 / 28,,3405,2021-05-04 15:50:31:373
-0.167599,-0.672791,9.730332,-0.249491,-0.698191,9.778582,-0.019982,-0.023418,0.914279,-3.0,-19.86,-43.08,167.3111,4.0898,1.5903,55.813995,37.500248,201.7492,NaN,0.0,8.0,,27 / 28,,3416,2021-05-04 15:50:31:384
-0.220273,-0.665608,9.890749,-0.236532,-0.696438,9.779029,-0.021815,-0.030749,0.90817,-3.72,-18.78,-42.6,166.9624,4.0827,1.4615,55.813995,37.500248,201.7492,NaN,0.0,8.0,,27 / 28,,3425,2021-05-04 15:50:31:393
-0.220273,-0.665608,9.890749,-0.236532,-0.696438,9.779029,-0.016928,-0.042355,0.907559,-3.72,-18.78,-42.6,166.9624,4.0827,1.4615,55.813995,37.500248,201.7492,NaN,0.0,8.0,,27 / 28,,3436,2021-05-04 15:50:31:404
-0.203513,-0.651243,9.763853,-0.226901,-0.692894,9.779509,-0.024258,-0.042966,0.900229,-4.56,-18.66,-42.48,166.9624,4.0827,1.4615,55.813995,37.500248,201.7492,NaN,0.0,8.0,,27 / 28,,3445,2021-05-04 15:50:31:413
-0.22985,-0.713494,9.70639,-0.226901,-0.692894,9.779509,-0.032199,-0.031359,0.901451,-4.56,-18.66,-42.48,166.9624,4.0827,1.4615,55.813995,37.500248,201.7492,NaN,0.0,8.0,,27 / 28,,3456,2021-05-04 15:50:31:424
-0.232245,-0.742225,9.888355,-0.220794,-0.691039,9.77978,-0.030367,-0.033803,0.897786,-4.68,-19.08,-43.08,164.7423,4.0516,1.3291,55.813995,37.500248,201.7492,NaN,0.0,8.0,,27 / 28,,3466,2021-05-04 15:50:31:434
-0.205908,-0.758985,10.048771,-0.220794,-0.691039,9.77978,-0.019371,-0.05274,0.892288,-4.68,-19.08,-43.08,164.7423,4.0516,1.3291,55.813995,37.500248,201.7492,NaN,0.0,8.0,,27 / 28,,3476,2021-05-04 15:50:31:444
-0.124502,-0.756591,9.888355,-0.218989,-0.692822,9.779695,-0.007765,-0.05274,0.884957,-4.26,-19.38,-43.5,164.7423,4.0516,1.3291,55.813995,37.500248,201.7492,NaN,0.0,8.0,,27 / 28,,3486,2021-05-04 15:50:31:454
-0.124502,-0.756591,9.888355,-0.218989,-0.692822,9.779695,-0.0041,-0.031359,0.878849,-4.26,-19.38,-43.5,164.7423,4.0516,1.3291,55.813995,37.500248,201.7492,NaN,0.0,8.0,,27 / 28,,3495,2021-05-04 15:50:31:463
-0.141262,-0.57702,9.72315,-0.213112,-0.6935,9.779777,-0.013262,-0.025251,0.871518,-3.54,-18.96,-43.44,167.2815,4.0512,1.2828,55.813995,37.500248,201.7492,NaN,0.0,8.0,,27 / 28,,3506,2021-05-04 15:50:31:474
-0.105348,-0.579414,9.720756,-0.213112,-0.6935,9.779777,-0.016317,-0.041133,0.864799,-3.54,-18.96,-43.44,167.2815,4.0512,1.2828,55.813995,37.500248,201.7492,NaN,0.0,8.0,,27 / 28,,3515,2021-05-04 15:50:31:483
-0.057463,-0.634483,9.75667,-0.209274,-0.689408,9.780149,-0.021815,-0.050296,0.858079,-3.84,-19.02,-42.66,167.2815,4.0512,1.2828,55.813995,37.500248,201.7492,NaN,0.0,8.0,,27 / 28,,3525,2021-05-04 15:50:31:493
-0.057463,-0.634483,9.75667,-0.209274,-0.689408,9.780149,-0.021815,-0.050296,0.858079,-3.84,-19.02,-42.66,167.2815,4.0512,1.2828,55.813995,37.500248,201.7492,NaN,0.0,8.0,,27 / 28,,3536,2021-05-04 15:50:31:504
-0.126897,-0.605751,9.814133,-0.19924,-0.684141,9.780728,-0.032199,-0.03869,0.847695,-4.32,-18.96,-42.96,167.3794,4.0312,1.2258,55.813995,37.500248,201.7492,NaN,0.0,8.0,,27 / 28,,3545,2021-05-04 15:50:31:513
-0.162811,-0.713494,9.912297,-0.19924,-0.684141,9.780728,-0.030978,-0.015477,0.846473,-4.32,-18.96,-42.96,167.3794,4.0312,1.2258,55.813995,37.500248,201.7492,NaN,0.0,8.0,,27 / 28,,3555,2021-05-04 15:50:31:523
-0.107742,-0.689551,9.926663,-0.193385,-0.68009,9.781128,-0.019982,-0.03197,0.840364,-4.38,-18.3,-42.96,167.3794,4.0312,1.2258,55.813995,37.500248,201.7492,NaN,0.0,8.0,,27 / 28,,3565,2021-05-04 15:50:31:533
-0.143656,-0.6273,9.873989,-0.193385,-0.68009,9.781128,-0.008986,-0.050296,0.831812,-4.38,-18.3,-42.96,167.3794,4.0312,1.2258,55.813995,37.500248,201.7492,NaN,0.0,8.0,,27 / 28,,3575,2021-05-04 15:50:31:543
-0.143656,-0.6273,9.873989,-0.188224,-0.676376,9.781486,-0.008376,-0.037468,0.822649,-4.62,-17.52,-42.18,164.3885,3.9766,1.1327,55.813995,37.500248,201.7492,NaN,0.0,8.0,,27 / 28,,3585,2021-05-04 15:50:31:553
-0.186753,-0.586597,9.744699,-0.188224,-0.676376,9.781486,-0.018149,-0.022196,0.822649,-4.62,-17.52,-42.18,164.3885,3.9766,1.1327,55.813995,37.500248,201.7492,NaN,0.0,8.0,,27 / 28,,3595,2021-05-04 15:50:31:563
-0.220273,-0.646454,9.713573,-0.185047,-0.670793,9.781931,-0.027312,-0.039911,0.813486,-4.56,-17.46,-42.6,164.3885,3.9766,1.1327,55.813995,37.500248,201.7492,NaN,0.0,8.0,,27 / 28,,3606,2021-05-04 15:50:31:574
-0.299284,-0.624906,9.866806,-0.185047,-0.670793,9.781931,-0.028534,-0.044188,0.807988,-4.56,-17.46,-42.6,164.3885,3.9766,1.1327,55.813995,37.500248,201.7492,NaN,0.0,8.0,,27 / 28,,3615,2021-05-04 15:50:31:583
-0.299284,-0.624906,9.866806,-0.186647,-0.669709,9.781975,-0.026091,-0.040522,0.806767,-4.56,-17.88,-43.44,164.4529,3.9222,1.0837,55.813995,37.500248,201.7492,NaN,0.0,8.0,,27 / 28,,3625,2021-05-04 15:50:31:593
-0.124502,-0.766168,9.909904,-0.186647,-0.669709,9.781975,-0.026091,-0.040522,0.806767,-4.56,-17.88,-43.44,164.4529,3.9222,1.0837,55.813995,37.500248,201.7492,NaN,0.0,8.0,,27 / 28,,3636,2021-05-04 15:50:31:604
-0.162811,-0.799688,10.017646,-0.189562,-0.671822,9.781775,-0.015706,-0.045409,0.79516,-4.44,-17.88,-42.9,164.4529,3.9222,1.0837,55.813995,37.500248,201.7492,NaN,0.0,8.0,,27 / 28,,3645,2021-05-04 15:50:31:613
-0.169993,-0.469278,9.953,-0.189562,-0.671822,9.781775,-4.34E-4,-0.027083,0.791495,-4.44,-17.88,-42.9,164.4529,3.9222,1.0837,55.813995,37.500248,201.7492,NaN,0.0,8.0,,27 / 28,,3656,2021-05-04 15:50:31:624
-0.169993,-0.469278,9.953,-0.192849,-0.670535,9.781798,0.003842,-0.024029,0.787219,-4.68,-17.88,-42.66,164.4055,3.9282,1.1102,55.813995,37.500248,201.7492,NaN,0.0,8.0,,27 / 28,,3665,2021-05-04 15:50:31:633
-0.040703,-0.52674,9.510059,-0.192849,-0.670535,9.781798,-0.005932,-0.034414,0.778667,-4.68,-17.88,-42.66,164.4055,3.9282,1.1102,55.813995,37.500248,201.7492,NaN,0.0,8.0,,27 / 28,,3676,2021-05-04 15:50:31:644
-0.150839,-0.493221,9.464568,-0.197318,-0.667181,9.781939,-0.027923,-0.021586,0.773169,-4.86,-17.22,-42.84,164.4055,3.9282,1.1102,55.813995,37.500248,201.7492,NaN,0.0,8.0,,27 / 28,,3685,2021-05-04 15:50:31:653
-0.339987,-0.629694,9.766247,-0.197318,-0.667181,9.781939,-0.045638,-0.006925,0.770115,-4.86,-17.22,-42.84,164.4055,3.9282,1.1102,55.813995,37.500248,201.7492,NaN,0.0,8.0,,27 / 28,,3696,2021-05-04 15:50:31:664
-0.181965,-0.739831,10.194822,-0.204287,-0.670082,9.781597,-0.03953,-0.039301,0.764006,-5.4,-16.38,-42.48,162.7376,3.901,1.1556,55.813995,37.500248,201.7492,NaN,0.0,8.0,,27 / 28,,3705,2021-05-04 15:50:31:673
-0.181965,-0.739831,10.194822,-0.204287,-0.670082,9.781597,-0.018149,-0.066179,0.755454,-5.4,-16.38,-42.48,162.7376,3.901,1.1556,55.813995,37.500248,201.7492,NaN,0.0,8.0,,27 / 28,,3715,2021-05-04 15:50:31:683
-0.251399,-0.715888,10.211582,-0.20103,-0.664976,9.782013,1.77E-4,-0.041133,0.753621,-5.94,-16.5,-42.96,162.7376,3.901,1.1556,55.813995,37.500248,201.7492,NaN,0.0,8.0,,27 / 28,,3726,2021-05-04 15:50:31:694
-0.251399,-0.466884,9.718362,-0.20103,-0.664976,9.782013,0.00262,-0.013033,0.751789,-5.94,-16.5,-42.96,162.7376,3.901,1.1556,55.813995,37.500248,201.7492,NaN,0.0,8.0,,27 / 28,,3735,2021-05-04 15:50:31:703
-0.079011,-0.794899,9.378374,-0.199724,-0.656171,9.782635,-0.009597,-0.024029,0.749345,-5.04,-16.74,-42.72,163.508,3.8881,1.1773,55.813995,37.500248,201.7492,NaN,0.0,8.0,,27 / 28,,3746,2021-05-04 15:50:31:714
-0.014366,-0.52674,9.761458,-0.199724,-0.656171,9.782635,-0.027312,-0.049074,0.740182,-5.04,-16.74,-42.72,163.508,3.8881,1.1773,55.813995,37.500248,201.7492,NaN,0.0,8.0,,27 / 28,,3755,2021-05-04 15:50:31:723
-0.014366,-0.52674,9.761458,-0.198488,-0.652787,9.782886,-0.031588,-0.035635,0.73835,-4.44,-17.1,-42.96,163.508,3.8881,1.1773,55.813995,37.500248,201.7492,NaN,0.0,8.0,,27 / 28,,3765,2021-05-04 15:50:31:733
-0.265764,-0.569837,10.269045,-0.198488,-0.652787,9.782886,-0.018149,0.006514,0.736517,-4.44,-17.1,-42.96,163.508,3.8881,1.1773,55.813995,37.500248,201.7492,NaN,0.0,8.0,,27 / 28,,3776,2021-05-04 15:50:31:744
-0.234639,-0.66082,9.885961,-0.197436,-0.650235,9.783077,0.001398,-0.028916,0.735906,-4.62,-16.8,-43.08,163.4971,3.8168,1.1623,55.813995,37.500248,201.7492,NaN,0.0,8.0,,27 / 28,,3785,2021-05-04 15:50:31:753
-0.392661,-0.469278,9.567522,-0.197436,-0.650235,9.783077,-0.006543,-0.046631,0.731019,-4.62,-16.8,-43.08,163.4971,3.8168,1.1623,55.813995,37.500248,201.7492,NaN,0.0,8.0,,27 / 28,,3795,2021-05-04 15:50:31:763
-0.466884,-0.739831,9.574705,-0.201083,-0.64,9.783678,-0.023647,-0.025251,0.735906,-5.28,-16.38,-42.66,163.4971,3.8168,1.1623,55.813995,37.500248,201.7492,NaN,0.0,8.0,,27 / 28,,3805,2021-05-04 15:50:31:773
-0.466884,-0.739831,9.574705,-0.201083,-0.64,9.783678,-0.034643,-0.011812,0.737128,-5.28,-16.38,-42.66,163.4971,3.8168,1.1623,55.813995,37.500248,201.7492,NaN,0.0,8.0,,27 / 28,,3815,2021-05-04 15:50:31:783
-0.28013,-0.641666,9.917087,-0.211967,-0.634271,9.783821,-0.030367,-0.03869,0.737739,-5.4,-16.56,-43.14,163.4239,3.7419,1.1774,55.813995,37.500248,201.7492,NaN,0.0,8.0,,27 / 28,,3826,2021-05-04 15:50:31:794
-0.112531,-0.682368,10.163696,-0.211967,-0.634271,9.783821,-0.009597,-0.064346,0.73163,-5.4,-16.56,-43.14,163.4239,3.7419,1.1774,55.813995,37.500248,201.7492,NaN,0.0,8.0,,27 / 28,,3836,2021-05-04 15:50:31:804
-0.227456,-0.636877,10.091868,-0.221694,-0.634736,9.783576,-0.009597,-0.064346,0.73163,-5.64,-16.26,-42.78,163.4239,3.7419,1.1774,55.813995,37.500248,201.7492,NaN,0.0,8.0,,27 / 28,,3845,2021-05-04 15:50:31:813
-0.232245,-0.581809,9.601042,-0.221694,-0.634736,9.783576,-4.34E-4,-0.018531,0.734685,-5.64,-16.26,-42.78,163.4239,3.7419,1.1774,55.813995,37.500248,201.7492,NaN,0.0,8.0,,27 / 28,,3856,2021-05-04 15:50:31:824
-0.232245,-0.581809,9.601042,-0.22709,-0.631341,9.783671,-0.005321,-0.002038,0.732241,-5.82,-16.02,-42.24,159.5876,3.7111,1.2981,55.813995,37.500248,201.7492,NaN,0.0,8.0,,27 / 28,,3866,2021-05-04 15:50:31:834
-0.256187,-0.555472,9.490906,-0.22709,-0.631341,9.783671,-0.012652,-0.025862,0.729798,-5.82,-16.02,-42.24,159.5876,3.7111,1.2981,55.813995,37.500248,201.7492,NaN,0.0,8.0,,27 / 28,,3875,2021-05-04 15:50:31:843
-0.349564,-0.588992,9.809344,-0.234494,-0.627008,9.783775,-0.019982,-0.040522,0.732241,-5.4,-16.26,-42.66,159.5876,3.7111,1.2981,55.813995,37.500248,201.7492,NaN,0.0,8.0,,27 / 28,,3886,2021-05-04 15:50:31:854
-0.337593,-0.562655,10.046377,-0.234494,-0.627008,9.783775,-0.022425,-0.025862,0.733463,-5.4,-16.26,-42.66,159.5876,3.7111,1.2981,55.813995,37.500248,201.7492,NaN,0.0,8.0,,27 / 28,,3895,2021-05-04 15:50:31:863
-0.332804,-0.588992,9.876384,-0.241804,-0.622626,9.783877,-0.017539,-0.025862,0.734685,-5.46,-16.08,-42.78,162.1379,3.6658,1.373,55.813995,37.500248,201.7492,NaN,0.0,8.0,,27 / 28,,3905,2021-05-04 15:50:31:873
-0.332804,-0.588992,9.876384,-0.241804,-0.622626,9.783877,-0.015706,-0.033192,0.738961,-5.46,-16.08,-42.78,162.1379,3.6658,1.373,55.813995,37.500248,201.7492,NaN,0.0,8.0,,27 / 28,,3915,2021-05-04 15:50:31:883
-0.395055,-0.665608,9.675264,-0.253114,-0.617656,9.783906,-0.020593,-0.031359,0.745069,-5.7,-15.78,-42.6,162.1379,3.6658,1.373,55.813995,37.500248,201.7492,NaN,0.0,8.0,,27 / 28,,3926,2021-05-04 15:50:31:894
-0.378295,-0.634483,9.703996,-0.259706,-0.616622,9.783799,-0.023036,-0.026472,0.749956,-5.7,-16.02,-42.66,162.1379,3.6658,1.373,55.813995,37.500248,201.7492,NaN,0.0,8.0,,27 / 28,,3935,2021-05-04 15:50:31:903
-0.337593,-0.64406,9.921875,-0.259706,-0.616622,9.783799,-0.017539,-0.027083,0.751178,-5.7,-16.02,-42.66,162.1379,3.6658,1.373,55.813995,37.500248,201.7492,NaN,0.0,8.0,,27 / 28,,3945,2021-05-04 15:50:31:913
-0.292102,-0.603357,10.015251,-0.273799,-0.616752,9.783406,-0.008986,-0.030749,0.749956,-6.12,-15.48,-42.84,157.9929,3.605,1.5205,55.813995,37.500248,201.7492,NaN,0.0,8.0,,27 / 28,,3956,2021-05-04 15:50:31:924
-0.292102,-0.603357,10.015251,-0.273799,-0.616752,9.783406,-0.008986,-0.032581,0.747513,-6.12,-15.48,-42.84,157.9929,3.605,1.5205,55.813995,37.500248,201.7492,NaN,0.0,8.0,,27 / 28,,3966,2021-05-04 15:50:31:934
-0.31365,-0.536318,9.766247,-0.284989,-0.613669,9.783281,-0.015095,-0.037468,0.747513,-6.24,-15.12,-43.08,157.9929,3.605,1.5205,55.813995,37.500248,201.7492,NaN,0.0,8.0,,27 / 28,,3975,2021-05-04 15:50:31:943
-0.272947,-0.598569,9.60583,-0.284989,-0.613669,9.783281,-0.015095,-0.037468,0.747513,-6.24,-15.12,-43.08,157.9929,3.605,1.5205,55.813995,37.500248,201.7492,NaN,0.0,8.0,,27 / 28,,3985,2021-05-04 15:50:31:953
-0.208302,-0.687157,9.785401,-0.292514,-0.608568,9.783378,-0.028534,-0.041133,0.746291,-5.52,-15.54,-42.66,158.7555,3.5877,1.6686,55.813995,37.500248,201.7492,NaN,0.0,8.0,,27 / 28,,3995,2021-05-04 15:50:31:963
-0.208302,-0.687157,9.785401,-0.293679,-0.610196,9.78324,-0.034032,-0.041133,0.744458,-5.22,-15.6,-42.18,158.7555,3.5877,1.6686,55.813995,37.500248,201.7492,NaN,0.0,8.0,,27 / 28,,4005,2021-05-04 15:50:31:973
-0.220273,-0.687157,10.151725,-0.293679,-0.610196,9.78324,-0.021204,-0.027694,0.743848,-5.22,-15.6,-42.18,158.7555,3.5877,1.6686,55.813995,37.500248,201.7492,NaN,0.0,8.0,,27 / 28,,4015,2021-05-04 15:50:31:983
-0.289707,-0.56026,10.041589,-0.29127,-0.612716,9.783155,1.77E-4,-0.014255,0.742015,-4.92,-15.06,-41.82,158.7555,3.5877,1.6686,55.813995,37.500248,201.7492,NaN,0.0,8.0,,27 / 28,,4025,2021-05-04 15:50:31:993
-0.33041,-0.620117,9.577099,-0.29127,-0.612716,9.783155,0.003842,-0.008146,0.743237,-4.92,-15.06,-41.82,158.7555,3.5877,1.6686,55.813995,37.500248,201.7492,NaN,0.0,8.0,,27 / 28,,4035,2021-05-04 15:50:32:003
-0.402238,-0.538712,9.531608,-0.292059,-0.608383,9.783402,-0.00471,-0.01792,0.749956,-5.7,-14.52,-42.06,157.5993,3.5822,1.7053,55.813995,37.500248,201.7492,NaN,0.0,8.0,,27 / 28,,4045,2021-05-04 15:50:32:013
-0.402238,-0.538712,9.531608,-0.292059,-0.608383,9.783402,-0.021204,-0.023418,0.751178,-5.7,-14.52,-42.06,157.5993,3.5822,1.7053,55.813995,37.500248,201.7492,NaN,0.0,8.0,,27 / 28,,4056,2021-05-04 15:50:32:024
-0.435758,-0.612934,9.876384,-0.298336,-0.605173,9.783412,-0.027923,-0.032581,0.754843,-5.82,-14.88,-42.78,157.5993,3.5822,1.7053,55.813995,37.500248,201.7492,NaN,0.0,8.0,,27 / 28,,4065,2021-05-04 15:50:32:033
-0.337593,-0.624906,10.034406,-0.298336,-0.605173,9.783412,-0.022425,-0.051518,0.75973,-5.82,-14.88,-42.78,157.5993,3.5822,1.7053,55.813995,37.500248,201.7492,NaN,0.0,8.0,,27 / 28,,4075,2021-05-04 15:50:32:043
-0.301679,-0.59378,9.888355,-0.307912,-0.604931,9.783131,-0.016928,-0.046631,0.759119,-5.88,-14.76,-42.9,157.4652,3.538,1.7466,55.813995,37.500248,201.7492,NaN,0.0,8.0,,27 / 28,,4086,2021-05-04 15:50:32:054
-0.301679,-0.59378,9.888355,-0.307912,-0.604931,9.783131,-0.015095,-0.019142,0.765839,-5.88,-14.76,-42.9,157.4652,3.538,1.7466,55.813995,37.500248,201.7492,NaN,0.0,8.0,,27 / 28,,4096,2021-05-04 15:50:32:064
-0.306467,-0.596174,9.703996,-0.313929,-0.602288,9.783102,-0.015095,-0.014866,0.771337,-5.76,-14.1,-42.66,157.4652,3.538,1.7466,55.813995,37.500248,201.7492,NaN,0.0,8.0,,27 / 28,,4105,2021-05-04 15:50:32:073
-0.289707,-0.586597,9.79019,-0.313929,-0.602288,9.783102,-0.015095,-0.028916,0.773169,-5.76,-14.1,-42.66,157.4652,3.538,1.7466,55.813995,37.500248,201.7492,NaN,0.0,8.0,,27 / 28,,4116,2021-05-04 15:50:32:084
-0.311256,-0.574626,9.921875,-0.321872,-0.599718,9.783002,-0.015095,-0.036246,0.770726,-5.82,-14.04,-42.06,156.0581,3.5211,1.8379,55.813995,37.500248,201.7492,NaN,0.0,8.0,,27 / 28,,4125,2021-05-04 15:50:32:093
-0.311256,-0.574626,9.921875,-0.321872,-0.599718,9.783002,-0.015095,-0.036246,0.770726,-5.82,-14.04,-42.06,156.0581,3.5211,1.8379,55.813995,37.500248,201.7492,NaN,0.0,8.0,,27 / 28,,4135,2021-05-04 15:50:32:103
-0.378295,-0.598569,9.838076,-0.325568,-0.59679,9.783058,-0.01876,-0.027083,0.773169,-6.48,-14.16,-42.18,156.0581,3.5211,1.8379,55.813995,37.500248,201.7492,NaN,0.0,8.0,,27 / 28,,4145,2021-05-04 15:50:32:113
-0.301679,-0.629694,9.692024,-0.325568,-0.59679,9.783058,-0.019371,-0.027083,0.776223,-6.48,-14.16,-42.18,156.0581,3.5211,1.8379,55.813995,37.500248,201.7492,NaN,0.0,8.0,,27 / 28,,4155,2021-05-04 15:50:32:123
-0.31365,-0.634483,9.794978,-0.331581,-0.59513,9.782958,-0.02548,-0.046631,0.775002,-6.36,-13.86,-42.78,155.8669,3.4889,1.906,55.813995,37.500248,201.7492,NaN,0.0,8.0,,27 / 28,,4166,2021-05-04 15:50:32:134
-0.31365,-0.634483,9.794978,-0.331581,-0.59513,9.782958,-0.024258,-0.04602,0.776834,-6.36,-13.86,-42.78,155.8669,3.4889,1.906,55.813995,37.500248,201.7492,NaN,0.0,8.0,,27 / 28,,4175,2021-05-04 15:50:32:143
-0.316044,-0.629694,9.974549,-0.332228,-0.59685,9.782831,-0.018149,-0.024029,0.784776,-6.18,-13.56,-42.48,155.8669,3.4889,1.906,55.813995,37.500248,201.7492,NaN,0.0,8.0,,27 / 28,,4185,2021-05-04 15:50:32:153
-0.375901,-0.600963,9.914692,-0.332228,-0.59685,9.782831,-0.01143,-0.013033,0.784165,-6.18,-13.56,-42.48,155.8669,3.4889,1.906,55.813995,37.500248,201.7492,NaN,0.0,8.0,,27 / 28,,4195,2021-05-04 15:50:32:163
-0.407027,-0.579414,9.768641,-0.337127,-0.596506,9.782684,-0.006543,-0.020975,0.789663,-6.24,-13.56,-42.0,155.802,3.4893,1.945,55.813995,37.500248,201.7492,NaN,0.0,8.0,,27 / 28,,4205,2021-05-04 15:50:32:173
-0.407027,-0.579414,9.768641,-0.337127,-0.596506,9.782684,-0.007154,-0.03197,0.795771,-6.24,-13.56,-42.0,155.802,3.4893,1.945,55.813995,37.500248,201.7492,NaN,0.0,8.0,,27 / 28,,4216,2021-05-04 15:50:32:184
-0.418998,-0.629694,9.713573,-0.342711,-0.594494,9.782613,-0.020593,-0.028916,0.803102,-5.7,-14.28,-42.12,155.802,3.4893,1.945,55.813995,37.500248,201.7492,NaN,0.0,8.0,,27 / 28,,4225,2021-05-04 15:50:32:193
-0.498009,-0.591386,9.814133,-0.342711,-0.594494,9.782613,-0.02548,-0.028305,0.808599,-5.7,-14.28,-42.12,155.802,3.4893,1.945,55.813995,37.500248,201.7492,NaN,0.0,8.0,,27 / 28,,4235,2021-05-04 15:50:32:203
-0.442941,-0.605751,9.897932,-0.351214,-0.595249,9.782265,-0.022425,-0.036857,0.817151,-5.58,-13.5,-42.78,154.2725,3.4755,2.0064,55.813995,37.500248,201.7492,NaN,0.0,8.0,,26 / 27,,4245,2021-05-04 15:50:32:213
-0.442941,-0.605751,9.897932,-0.351214,-0.595249,9.782265,-0.01876,-0.045409,0.825704,-5.58,-13.5,-42.78,154.2725,3.4755,2.0064,55.813995,37.500248,201.7492,NaN,0.0,8.0,,26 / 27,,4256,2021-05-04 15:50:32:224
-0.433364,-0.651243,9.890749,-0.361711,-0.595351,9.781877,-0.014484,-0.028916,0.834256,-5.64,-12.42,-42.54,154.2725,3.4755,2.0064,55.813995,37.500248,201.7492,NaN,0.0,8.0,,26 / 27,,4265,2021-05-04 15:50:32:233
-0.342381,-0.636877,9.751882,-0.361711,-0.595351,9.781877,-0.016928,-0.026472,0.84464,-5.64,-12.42,-42.54,154.2725,3.4755,2.0064,55.813995,37.500248,201.7492,NaN,0.0,8.0,,26 / 27,,4275,2021-05-04 15:50:32:243
-0.356747,-0.624906,9.763853,-0.373011,-0.594955,9.781476,-0.019371,-0.022196,0.850138,-5.4,-12.48,-42.3,155.7165,3.4805,2.1177,55.813995,37.500248,201.7492,NaN,0.0,8.0,,26 / 27,,4286,2021-05-04 15:50:32:254
-0.325621,-0.617723,9.912297,-0.373011,-0.594955,9.781476,-0.021815,-0.03197,0.859301,-5.4,-12.48,-42.3,155.7165,3.4805,2.1177,55.813995,37.500248,201.7492,NaN,0.0,8.0,,26 / 27,,4295,2021-05-04 15:50:32:263
-0.325621,-0.617723,9.912297,-0.386097,-0.596989,9.780844,-0.020593,-0.035025,0.867853,-5.88,-12.54,-42.66,155.7165,3.4805,2.1177,55.813995,37.500248,201.7492,NaN,0.0,8.0,,26 / 27,,4305,2021-05-04 15:50:32:273
-0.505192,-0.57702,9.912297,-0.386097,-0.596989,9.780844,-0.015706,-0.014866,0.875184,-5.88,-12.54,-42.66,155.7165,3.4805,2.1177,55.813995,37.500248,201.7492,NaN,0.0,8.0,,26 / 27,,4316,2021-05-04 15:50:32:284
-0.548289,-0.565049,9.715967,-0.391692,-0.595881,9.780689,-0.021204,-0.014255,0.88679,-6.6,-12.0,-42.18,149.2056,3.4901,2.2606,55.813995,37.500248,201.7492,NaN,0.0,8.0,,26 / 27,,4325,2021-05-04 15:50:32:293
-0.679974,-0.596174,9.696813,-0.391692,-0.595881,9.780689,-0.027312,-0.028305,0.892288,-6.6,-12.0,-42.18,149.2056,3.4901,2.2606,55.813995,37.500248,201.7492,NaN,0.0,8.0,,26 / 27,,4335,2021-05-04 15:50:32:303
-0.533923,-0.57702,9.826104,-0.398726,-0.593127,9.780573,-0.027312,-0.036857,0.899618,-6.6,-11.76,-42.66,149.2056,3.4901,2.2606,55.813995,37.500248,201.7492,NaN,0.0,8.0,,26 / 27,,4345,2021-05-04 15:50:32:313
-0.533923,-0.57702,9.826104,-0.398726,-0.593127,9.780573,-0.028534,-0.038079,0.910614,-6.6,-11.76,-42.66,149.2056,3.4901,2.2606,55.813995,37.500248,201.7492,NaN,0.0,8.0,,26 / 27,,4355,2021-05-04 15:50:32:323
-0.507586,-0.663214,9.869201,-0.402479,-0.59162,9.78051,-0.030367,-0.036246,0.918555,-6.48,-12.36,-43.08,151.927,3.4587,2.3565,55.813995,37.500248,201.7492,NaN,0.0,8.0,,26 / 27,,4365,2021-05-04 15:50:32:333
-0.478855,-0.7111,9.854836,-0.402479,-0.59162,9.78051,-0.030978,-0.044188,0.928329,-6.48,-12.36,-43.08,151.927,3.4587,2.3565,55.813995,37.500248,201.7492,NaN,0.0,8.0,,26 / 27,,4375,2021-05-04 15:50:32:343
-0.399844,-0.7111,9.854836,-0.405347,-0.590202,9.780478,-0.02548,-0.041744,0.931994,-6.6,-12.12,-42.3,151.927,3.4587,2.3565,55.813995,37.500248,201.7492,NaN,0.0,8.0,,26 / 27,,4385,2021-05-04 15:50:32:353
-0.399844,-0.7111,9.854836,-0.405347,-0.590202,9.780478,-0.02548,-0.041744,0.931994,-6.6,-12.12,-42.3,151.927,3.4587,2.3565,55.813995,37.500248,201.7492,NaN,0.0,8.0,,26 / 27,,4396,2021-05-04 15:50:32:364
-0.289707,-0.617723,9.866806,-0.408148,-0.587894,9.7805,-0.019371,-0.044798,0.937492,-6.6,-11.4,-42.42,147.0782,3.4504,2.3732,55.813995,37.500248,201.7492,NaN,0.0,8.0,,26 / 27,,4405,2021-05-04 15:50:32:373
-0.31365,-0.600963,9.79019,-0.408148,-0.587894,9.7805,-0.016317,-0.036246,0.938714,-6.6,-11.4,-42.42,147.0782,3.4504,2.3732,55.813995,37.500248,201.7492,NaN,0.0,8.0,,26 / 27,,4416,2021-05-04 15:50:32:384
-0.316044,-0.624906,9.701602,-0.411185,-0.583562,9.780633,-0.018149,-0.028916,0.938714,-6.66,-11.16,-42.42,147.0782,3.4504,2.3732,55.813995,37.500248,201.7492,NaN,0.0,8.0,,26 / 27,,4426,2021-05-04 15:50:32:394
-0.371113,-0.713494,9.761458,-0.411185,-0.583562,9.780633,-0.029756,-0.03869,0.943601,-6.66,-11.16,-42.42,147.0782,3.4504,2.3732,55.813995,37.500248,201.7492,NaN,0.0,8.0,,26 / 27,,4435,2021-05-04 15:50:32:403
-0.402238,-0.744619,10.029617,-0.415366,-0.5806,9.780632,-0.034643,-0.050296,0.946655,-6.24,-10.98,-41.88,150.044,3.4115,2.4073,55.813995,37.500248,201.7492,NaN,0.0,8.0,,26 / 27,,4446,2021-05-04 15:50:32:414
-0.402238,-0.744619,10.029617,-0.415366,-0.5806,9.780632,-0.026091,-0.041133,0.95032,-6.24,-10.98,-41.88,150.044,3.4115,2.4073,55.813995,37.500248,201.7492,NaN,0.0,8.0,,26 / 27,,4456,2021-05-04 15:50:32:424
-0.39745,-0.725465,10.034406,-0.417412,-0.578498,9.780669,-0.013262,-0.030749,0.95765,-5.46,-11.4,-41.76,150.044,3.4115,2.4073,55.813995,37.500248,201.7492,NaN,0.0,8.0,,26 / 27,,4465,2021-05-04 15:50:32:433
-0.409421,-0.591386,9.720756,-0.417412,-0.578498,9.780669,-0.0041,-0.028305,0.961316,-5.46,-11.4,-41.76,150.044,3.4115,2.4073,55.813995,37.500248,201.7492,NaN,0.0,8.0,,26 / 27,,4475,2021-05-04 15:50:32:443
-0.407027,-0.567443,9.577099,-0.422415,-0.572713,9.780795,-0.006543,-0.031359,0.968035,-5.46,-11.88,-42.48,154.8311,3.3819,2.4437,55.813995,37.500248,201.7492,NaN,0.0,8.0,,26 / 27,,4485,2021-05-04 15:50:32:453
-0.445335,-0.545895,9.687236,-0.422415,-0.572713,9.780795,-0.018149,-0.035025,0.976587,-5.46,-11.88,-42.48,154.8311,3.3819,2.4437,55.813995,37.500248,201.7492,NaN,0.0,8.0,,26 / 27,,4495,2021-05-04 15:50:32:463
-0.445335,-0.545895,9.687236,-0.42629,-0.573075,9.780605,-0.029756,-0.039301,0.983918,-5.82,-11.34,-42.9,154.8311,3.3819,2.4437,55.813995,37.500248,201.7492,NaN,0.0,8.0,,26 / 27,,4505,2021-05-04 15:50:32:473
-0.450124,-0.629694,9.799767,-0.427596,-0.576352,9.780356,-0.033421,-0.048464,0.991859,-5.88,-10.98,-42.36,154.8311,3.3819,2.4437,55.813995,37.500248,201.7492,NaN,0.0,8.0,,26 / 27,,4515,2021-05-04 15:50:32:483
-0.383084,-0.646454,9.826104,-0.427596,-0.576352,9.780356,-0.033421,-0.052129,0.996746,-5.88,-10.98,-42.36,154.8311,3.3819,2.4437,55.813995,37.500248,201.7492,NaN,0.0,8.0,,26 / 27,,4525,2021-05-04 15:50:32:493
-0.383084,-0.646454,9.826104,-0.431151,-0.583148,9.779798,-0.030367,-0.044798,1.001633,-5.82,-10.74,-42.54,149.7339,3.3693,2.5034,55.813995,37.500248,201.7492,NaN,0.0,8.0,,26 / 27,,4536,2021-05-04 15:50:32:504
-0.275342,-0.64406,9.787795,-0.431151,-0.583148,9.779798,-0.02548,-0.052129,1.002244,-5.82,-10.74,-42.54,149.7339,3.3693,2.5034,55.813995,37.500248,201.7492,NaN,0.0,8.0,,26 / 27,,4546,2021-05-04 15:50:32:514
-0.138868,-0.646454,9.763853,-0.432808,-0.590672,9.779273,-0.02548,-0.052129,1.002244,-6.24,-10.02,-42.48,149.7339,3.3693,2.5034,55.813995,37.500248,201.7492,NaN,0.0,8.0,,26 / 27,,4556,2021-05-04 15:50:32:524
-0.074223,-0.557866,9.828498,-0.432808,-0.590672,9.779273,-0.021204,-0.055183,0.999189,-6.24,-10.02,-42.48,149.7339,3.3693,2.5034,55.813995,37.500248,201.7492,NaN,0.0,8.0,,26 / 27,,4566,2021-05-04 15:50:32:534
-0.136474,-0.596174,9.787795,-0.423502,-0.59541,9.779393,-0.021815,-0.043577,0.990026,-6.3,-9.96,-42.3,147.8533,3.4531,2.5341,55.813995,37.500248,201.7492,NaN,0.0,8.0,,26 / 27,,4575,2021-05-04 15:50:32:543
-0.136474,-0.596174,9.787795,-0.423502,-0.59541,9.779393,-0.028534,-0.022807,0.986972,-6.3,-9.96,-42.3,147.8533,3.4531,2.5341,55.813995,37.500248,201.7492,NaN,0.0,8.0,,26 / 27,,4586,2021-05-04 15:50:32:554
-0.136474,-0.598569,9.725544,-0.401777,-0.596273,9.780257,-0.035254,-0.020364,0.977198,-6.3,-10.08,-42.24,147.8533,3.4531,2.5341,55.813995,37.500248,201.7492,NaN,0.0,8.0,,26 / 27,,4596,2021-05-04 15:50:32:564
-0.237033,-0.624906,9.830893,-0.401777,-0.596273,9.780257,-0.041362,-0.033803,0.965592,-6.3,-10.08,-42.24,147.8533,3.4531,2.5341,55.813995,37.500248,201.7492,NaN,0.0,8.0,,26 / 27,,4605,2021-05-04 15:50:32:573
-0.215485,-0.665608,9.926663,-0.376438,-0.598896,9.781105,-0.032199,-0.033192,0.962537,-6.18,-9.54,-42.48,148.3413,3.4859,2.3524,55.813995,37.500248,201.7492,NaN,0.0,8.0,,26 / 27,,4615,2021-05-04 15:50:32:583
-0.215485,-0.665608,9.926663,-0.376438,-0.598896,9.781105,-0.021815,-0.036246,0.944211,-6.18,-9.54,-42.48,148.3413,3.4859,2.3524,55.813995,37.500248,201.7492,NaN,0.0,8.0,,26 / 27,,4626,2021-05-04 15:50:32:594
-0.275342,-0.6273,9.890749,-0.352327,-0.601647,9.781835,-0.015706,-0.037468,0.934438,-5.76,-9.96,-42.72,148.3413,3.4859,2.3524,55.813995,37.500248,201.7492,NaN,0.0,8.0,,26 / 27,,4635,2021-05-04 15:50:32:603
-0.165205,-0.57702,9.720756,-0.352327,-0.601647,9.781835,-0.015095,-0.045409,0.930772,-5.76,-9.96,-42.72,148.3413,3.4859,2.3524,55.813995,37.500248,201.7492,NaN,0.0,8.0,,26 / 27,,4645,2021-05-04 15:50:32:613
-0.095771,-0.581809,9.696813,-0.331677,-0.602679,9.782493,-0.028534,-0.045409,0.915501,-5.34,-10.38,-42.54,152.5643,3.5174,2.0628,55.813995,37.500248,201.7492,NaN,0.0,8.0,,26 / 27,,4656,2021-05-04 15:50:32:624
-0.095771,-0.581809,9.696813,-0.331677,-0.602679,9.782493,-0.030978,-0.039301,0.909392,-5.34,-10.38,-42.54,152.5643,3.5174,2.0628,55.813995,37.500248,201.7492,NaN,0.0,8.0,,26 / 27,,4665,2021-05-04 15:50:32:633
-0.119714,-0.596174,9.842864,-0.309668,-0.603097,9.783188,-0.03281,-0.035635,0.901451,-5.4,-9.9,-42.42,152.5643,3.5174,2.0628,55.813995,37.500248,201.7492,NaN,0.0,8.0,,26 / 27,,4676,2021-05-04 15:50:32:644
-0.146051,-0.653637,9.931452,-0.309668,-0.603097,9.783188,-0.024258,-0.032581,0.89351,-5.4,-9.9,-42.42,152.5643,3.5174,2.0628,55.813995,37.500248,201.7492,NaN,0.0,8.0,,26 / 27,,4685,2021-05-04 15:50:32:653
-0.10056,-0.605751,9.893144,-0.299986,-0.603868,9.783442,-0.013873,-0.030138,0.882514,-5.52,-9.12,-42.36,147.6211,3.5258,1.813,55.813995,37.500248,201.7492,NaN,0.0,8.0,,26 / 27,,4696,2021-05-04 15:50:32:664
-0.10056,-0.605751,9.893144,-0.301943,-0.603228,9.783422,-0.010208,-0.017309,0.869686,-4.98,-9.24,-42.72,147.6211,3.5258,1.813,55.813995,37.500248,201.7492,NaN,0.0,8.0,,26 / 27,,4705,2021-05-04 15:50:32:673
-0.138868,-0.519558,9.696813,-0.301943,-0.603228,9.783422,-0.015706,-0.029527,0.856858,-4.98,-9.24,-42.72,147.6211,3.5258,1.813,55.813995,37.500248,201.7492,NaN,0.0,8.0,,26 / 27,,4715,2021-05-04 15:50:32:683
-0.158022,-0.481249,9.675264,-0.307657,-0.600389,9.783418,-0.024258,-0.040522,0.848306,-5.04,-9.0,-42.78,147.6211,3.5258,1.813,55.813995,37.500248,201.7492,NaN,0.0,8.0,,26 / 27,,4725,2021-05-04 15:50:32:693
-0.160416,-0.517163,9.75667,-0.307657,-0.600389,9.783418,-0.030367,-0.04602,0.839753,-5.04,-9.0,-42.78,147.6211,3.5258,1.813,55.813995,37.500248,201.7492,NaN,0.0,8.0,,26 / 27,,4735,2021-05-04 15:50:32:703
-0.174782,-0.519558,9.830893,-0.310408,-0.598999,9.783417,-0.032199,-0.042355,0.831201,-5.34,-8.52,-42.3,151.3087,3.51,1.8012,55.813995,37.500248,201.7492,NaN,0.0,8.0,,26 / 27,,4746,2021-05-04 15:50:32:714
-0.174782,-0.519558,9.830893,-0.310408,-0.598999,9.783417,-0.030978,-0.039301,0.820817,-5.34,-8.52,-42.3,151.3087,3.51,1.8012,55.813995,37.500248,201.7492,NaN,0.0,8.0,,26 / 27,,4756,2021-05-04 15:50:32:724
-0.114925,-0.615329,9.864412,-0.311702,-0.599811,9.783325,-0.021815,-0.035025,0.814708,-4.92,-8.58,-42.48,151.3087,3.51,1.8012,55.813995,37.500248,201.7492,NaN,0.0,8.0,,26 / 27,,4766,2021-05-04 15:50:32:734
-0.160416,-0.632089,9.885961,-0.311702,-0.599811,9.783325,-0.013262,-0.030138,0.809821,-4.92,-8.58,-42.48,151.3087,3.51,1.8012,55.813995,37.500248,201.7492,NaN,0.0,8.0,,26 / 27,,4775,2021-05-04 15:50:32:743
-0.198725,-0.61054,9.838076,-0.314045,-0.599325,9.783279,-0.013262,-0.030138,0.809821,-4.8,-9.18,-42.66,151.2004,3.5038,1.8386,55.813995,37.500248,201.7492,NaN,0.0,8.0,,26 / 27,,4785,2021-05-04 15:50:32:753
-0.282524,-0.565049,9.785401,-0.314045,-0.599325,9.783279,-0.007154,-0.023418,0.805545,-4.8,-9.18,-42.66,151.2004,3.5038,1.8386,55.813995,37.500248,201.7492,NaN,0.0,8.0,,26 / 27,,4796,2021-05-04 15:50:32:764
-0.304073,-0.483643,9.751882,-0.318458,-0.596015,9.78334,-0.008986,-0.021586,0.800047,-4.92,-8.7,-42.6,151.2004,3.5038,1.8386,55.813995,37.500248,201.7492,NaN,0.0,8.0,,26 / 27,,4806,2021-05-04 15:50:32:774
-0.304073,-0.483643,9.751882,-0.318458,-0.596015,9.78334,-0.014484,-0.025251,0.796993,-4.92,-8.7,-42.6,151.2004,3.5038,1.8386,55.813995,37.500248,201.7492,NaN,0.0,8.0,,26 / 27,,4815,2021-05-04 15:50:32:783
-0.31365,-0.462095,9.72315,-0.323331,-0.59308,9.783359,-0.021204,-0.036857,0.792106,-5.34,-8.64,-42.36,151.0932,3.4844,1.8644,55.813995,37.500248,201.7492,NaN,0.0,8.0,,26 / 27,,4826,2021-05-04 15:50:32:794
-0.272947,-0.459701,9.744699,-0.324498,-0.592483,9.783356,-0.024869,-0.042355,0.784165,-5.34,-8.34,-42.6,151.0932,3.4844,1.8644,55.813995,37.500248,201.7492,NaN,0.0,8.0,,26 / 27,,4835,2021-05-04 15:50:32:803
-0.244216,-0.536318,9.766247,-0.324498,-0.592483,9.783356,-0.024258,-0.04602,0.780499,-5.34,-8.34,-42.6,151.0932,3.4844,1.8644,55.813995,37.500248,201.7492,NaN,0.0,8.0,,26 / 27,,4845,2021-05-04 15:50:32:813
-0.198725,-0.567443,9.840469,-0.325375,-0.592074,9.783351,-0.022425,-0.039301,0.77378,-5.22,-8.16,-42.36,151.0932,3.4844,1.8644,55.813995,37.500248,201.7492,NaN,0.0,8.0,,26 / 27,,4856,2021-05-04 15:50:32:824
-0.198725,-0.567443,9.840469,-0.325375,-0.592074,9.783351,-0.01876,-0.033192,0.77378,-5.22,-8.16,-42.36,151.0932,3.4844,1.8644,55.813995,37.500248,201.7492,NaN,0.0,8.0,,26 / 27,,4865,2021-05-04 15:50:32:833
-0.172388,-0.567443,9.842864,-0.326104,-0.591355,9.783371,-0.01876,-0.033192,0.77378,-5.16,-8.04,-42.24,148.6869,3.4613,1.9048,55.813995,37.500248,201.7492,NaN,0.0,8.0,,26 / 27,,4875,2021-05-04 15:50:32:843
-0.282524,-0.579414,9.823709,-0.326104,-0.591355,9.783371,-0.013873,-0.023418,0.773169,-5.16,-8.04,-42.24,148.6869,3.4613,1.9048,55.813995,37.500248,201.7492,NaN,0.0,8.0,,26 / 27,,4885,2021-05-04 15:50:32:853
-0.371113,-0.579414,9.785401,-0.32968,-0.589141,9.783384,-0.013873,-0.021586,0.768893,-5.94,-7.8,-42.42,148.6869,3.4613,1.9048,55.813995,37.500248,201.7492,NaN,0.0,8.0,,26 / 27,,4895,2021-05-04 15:50:32:863
-0.371113,-0.579414,9.785401,-0.32968,-0.589141,9.783384,-0.013262,-0.028305,0.770726,-5.94,-7.8,-42.42,148.6869,3.4613,1.9048,55.813995,37.500248,201.7492,NaN,0.0,8.0,,26 / 27,,4906,2021-05-04 15:50:32:874
-0.438152,-0.524346,9.797373,-0.326059,-0.583267,9.783858,-0.015095,-0.031359,0.768893,-5.64,-7.62,-42.84,144.8039,3.4442,1.93,55.813995,37.500248,201.7492,NaN,0.0,8.0,,26 / 27,,4915,2021-05-04 15:50:32:883
-0.411815,-0.493221,9.749487,-0.326059,-0.583267,9.783858,-0.019982,-0.027083,0.771337,-5.64,-7.62,-42.84,144.8039,3.4442,1.93,55.813995,37.500248,201.7492,NaN,0.0,8.0,,26 / 27,,4925,2021-05-04 15:50:32:893
-0.308861,-0.488432,9.742304,-0.321588,-0.574402,9.78453,-0.023036,-0.029527,0.771337,-5.34,-7.62,-43.02,144.8039,3.4442,1.93,55.813995,37.500248,201.7492,NaN,0.0,8.0,,26 / 27,,4935,2021-05-04 15:50:32:903
-0.169993,-0.464489,9.768641,-0.321588,-0.574402,9.78453,-0.021204,-0.040522,0.768893,-5.34,-7.62,-43.02,144.8039,3.4442,1.93,55.813995,37.500248,201.7492,NaN,0.0,8.0,,26 / 27,,4945,2021-05-04 15:50:32:913
-0.169993,-0.464489,9.768641,-0.320057,-0.564374,9.785164,-0.021204,-0.054572,0.758508,-4.86,-7.38,-42.54,145.9795,3.3579,1.8825,55.813995,37.500248,201.7492,NaN,0.0,8.0,,26 / 27,,4955,2021-05-04 15:50:32:923
-0.143656,-0.500403,9.828498,-0.320057,-0.564374,9.785164,-0.01876,-0.045409,0.760341,-4.86,-7.38,-42.54,145.9795,3.3579,1.8825,55.813995,37.500248,201.7492,NaN,0.0,8.0,,26 / 27,,4965,2021-05-04 15:50:32:933
-0.124502,-0.507586,9.775824,-0.310016,-0.553786,9.786093,-0.022425,-0.029527,0.749956,-4.2,-7.38,-42.36,145.9795,3.3579,1.8825,55.813995,37.500248,201.7492,NaN,0.0,8.0,,26 / 27,,4975,2021-05-04 15:50:32:943
-0.124502,-0.507586,9.775824,-0.310016,-0.553786,9.786093,-0.022425,-0.029527,0.749956,-4.2,-7.38,-42.36,145.9795,3.3579,1.8825,55.813995,37.500248,201.7492,NaN,0.0,8.0,,26 / 27,,4985,2021-05-04 15:50:32:953
-0.124502,-0.507586,9.775824,-0.310016,-0.553786,9.786093,-0.022425,-0.029527,0.749956,-4.2,-7.38,-42.36,145.9795,3.3579,1.8825,55.813995,37.500248,201.7492,NaN,0.0,8.0,,26 / 27,,4995,2021-05-04 15:50:32:963
-0.124502,-0.507586,9.775824,-0.310016,-0.553786,9.786093,-0.022425,-0.029527,0.749956,-4.2,-7.38,-42.36,145.9795,3.3579,1.8825,55.813995,37.500248,201.7492,NaN,0.0,8.0,,26 / 27,,5005,2021-05-04 15:50:32:973
-0.124502,-0.507586,9.775824,-0.310016,-0.553786,9.786093,-0.022425,-0.029527,0.749956,-4.2,-7.38,-42.36,145.9795,3.3579,1.8825,55.813995,37.500248,201.7492,NaN,0.0,8.0,,26 / 27,,5015,2021-05-04 15:50:32:983
-0.124502,-0.507586,9.775824,-0.310016,-0.553786,9.786093,-0.022425,-0.029527,0.749956,-4.2,-7.38,-42.36,145.9795,3.3579,1.8825,55.813995,37.500248,201.7492,NaN,0.0,8.0,,26 / 27,,5025,2021-05-04 15:50:32:993
-0.124502,-0.507586,9.775824,-0.310016,-0.553786,9.786093,-0.022425,-0.029527,0.749956,-4.2,-7.38,-42.36,145.9795,3.3579,1.8825,55.813995,37.500248,201.7492,NaN,0.0,8.0,,26 / 27,,5036,2021-05-04 15:50:33:004
-0.117319,-0.529135,9.754275,-0.30449,-0.549465,9.786509,-0.021815,-0.027694,0.743237,-4.14,-7.14,-42.36,150.3304,3.2372,1.8145,55.813995,37.500248,201.7492,NaN,0.0,8.0,,26 / 27,,5045,2021-05-04 15:50:33:013
-0.399844,-0.445335,9.737515,-0.30449,-0.549465,9.786509,-0.023036,-0.040522,0.756065,-4.14,-7.14,-42.36,150.3304,3.2372,1.8145,55.813995,37.500248,201.7492,NaN,0.0,8.0,,26 / 27,,5055,2021-05-04 15:50:33:023
-0.409421,-0.507586,9.794978,-0.301246,-0.534552,9.787436,-0.02548,-0.042966,0.760952,-5.1,-6.9,-42.3,150.3304,3.2372,1.8145,55.813995,37.500248,201.7492,NaN,0.0,8.0,,26 / 27,,5065,2021-05-04 15:50:33:033
-0.409421,-0.507586,9.794978,-0.301246,-0.534552,9.787436,-0.022425,-0.041744,0.762174,-5.1,-6.9,-42.3,150.3304,3.2372,1.8145,55.813995,37.500248,201.7492,NaN,0.0,8.0,,26 / 27,,5075,2021-05-04 15:50:33:043
-0.416604,-0.524346,9.826104,-0.310032,-0.530237,9.787395,-0.01876,-0.026472,0.76645,-4.98,-6.3,-41.58,142.7486,3.1247,1.7629,55.813995,37.500248,201.7492,NaN,0.0,8.0,,26 / 27,,5085,2021-05-04 15:50:33:053
-0.462095,-0.507586,9.888355,-0.310032,-0.530237,9.787395,-0.013873,-0.026472,0.764006,-4.98,-6.3,-41.58,142.7486,3.1247,1.7629,55.813995,37.500248,201.7492,NaN,0.0,8.0,,26 / 27,,5095,2021-05-04 15:50:33:063
-0.390267,-0.531529,9.785401,-0.318433,-0.526002,9.787354,-0.012652,-0.031359,0.771337,-4.74,-6.6,-42.06,142.7486,3.1247,1.7629,55.813995,37.500248,201.7492,NaN,0.0,8.0,,26 / 27,,5105,2021-05-04 15:50:33:073
-0.323227,-0.505192,9.703996,-0.318433,-0.526002,9.787354,-0.015706,-0.03869,0.770115,-4.74,-6.6,-42.06,142.7486,3.1247,1.7629,55.813995,37.500248,201.7492,NaN,0.0,8.0,,26 / 27,,5115,2021-05-04 15:50:33:083
-0.323227,-0.505192,9.703996,-0.325171,-0.522188,9.787337,-0.026091,-0.034414,0.770115,-4.92,-6.54,-41.94,145.4259,3.0747,1.8635,55.813995,37.500248,201.7492,NaN,0.0,8.0,,26 / 27,,5125,2021-05-04 15:50:33:093
-0.306467,-0.519558,9.742304,-0.325171,-0.522188,9.787337,-0.026091,-0.034414,0.770115,-4.92,-6.54,-41.94,145.4259,3.0747,1.8635,55.813995,37.500248,201.7492,NaN,0.0,8.0,,26 / 27,,5135,2021-05-04 15:50:33:103
-0.328016,-0.541106,9.885961,-0.329587,-0.520591,9.787274,-0.022425,-0.033803,0.772558,-4.62,-6.54,-41.46,145.4259,3.0747,1.8635,55.813995,37.500248,201.7492,NaN,0.0,8.0,,26 / 27,,5145,2021-05-04 15:50:33:113
-0.301679,-0.512375,9.878778,-0.329587,-0.520591,9.787274,-0.021204,-0.03197,0.771337,-4.62,-6.54,-41.46,145.4259,3.0747,1.8635,55.813995,37.500248,201.7492,NaN,0.0,8.0,,26 / 27,,5155,2021-05-04 15:50:33:123
-0.217879,-0.495615,9.763853,-0.332126,-0.519582,9.787242,-0.012652,-0.034414,0.772558,-4.74,-5.52,-42.54,142.0524,3.043,1.9287,55.813995,37.500248,201.7492,NaN,0.0,8.0,,26 / 27,,5165,2021-05-04 15:50:33:133
-0.217879,-0.495615,9.763853,-0.332126,-0.519582,9.787242,-0.01143,-0.030749,0.771337,-4.74,-5.52,-42.54,142.0524,3.043,1.9287,55.813995,37.500248,201.7492,NaN,0.0,8.0,,26 / 27,,5175,2021-05-04 15:50:33:143
-0.222668,-0.481249,9.718362,-0.331693,-0.516328,9.787429,-0.017539,-0.026472,0.76706,-4.68,-5.16,-43.26,142.0524,3.043,1.9287,55.813995,37.500248,201.7492,NaN,0.0,8.0,,26 / 27,,5185,2021-05-04 15:50:33:153
-0.222668,-0.481249,9.718362,-0.331693,-0.516328,9.787429,-0.017539,-0.026472,0.76706,-4.68,-5.16,-43.26,142.0524,3.043,1.9287,55.813995,37.500248,201.7492,NaN,0.0,8.0,,26 / 27,,5196,2021-05-04 15:50:33:164
-0.222668,-0.481249,9.718362,-0.331693,-0.516328,9.787429,-0.017539,-0.026472,0.76706,-4.68,-5.16,-43.26,142.0524,3.043,1.9287,55.813995,37.500248,201.7492,NaN,0.0,8.0,,26 / 27,,5205,2021-05-04 15:50:33:173
-0.222668,-0.481249,9.718362,-0.331693,-0.516328,9.787429,-0.017539,-0.026472,0.76706,-4.68,-5.16,-43.26,142.0524,3.043,1.9287,55.813995,37.500248,201.7492,NaN,0.0,8.0,,26 / 27,,5215,2021-05-04 15:50:33:183
-0.222668,-0.481249,9.718362,-0.331693,-0.516328,9.787429,-0.017539,-0.026472,0.76706,-4.68,-5.16,-43.26,142.0524,3.043,1.9287,55.813995,37.500248,201.7492,NaN,0.0,8.0,,26 / 27,,5225,2021-05-04 15:50:33:193
-0.222668,-0.481249,9.718362,-0.331693,-0.516328,9.787429,-0.017539,-0.026472,0.76706,-4.68,-5.16,-43.26,142.0524,3.043,1.9287,55.813995,37.500248,201.7492,NaN,0.0,8.0,,26 / 27,,5235,2021-05-04 15:50:33:203
-0.222668,-0.481249,9.718362,-0.331693,-0.516328,9.787429,-0.017539,-0.026472,0.76706,-4.68,-5.16,-43.26,142.0524,3.043,1.9287,55.813995,37.500248,201.7492,NaN,0.0,8.0,,26 / 27,,5246,2021-05-04 15:50:33:214
-0.222668,-0.481249,9.718362,-0.331693,-0.516328,9.787429,-0.017539,-0.026472,0.76706,-4.68,-5.16,-43.26,142.0524,3.043,1.9287,55.813995,37.500248,201.7492,NaN,0.0,8.0,,26 / 27,,5255,2021-05-04 15:50:33:223
-0.222668,-0.481249,9.718362,-0.331693,-0.516328,9.787429,-0.017539,-0.026472,0.76706,-4.68,-5.16,-43.26,142.0524,3.043,1.9287,55.813995,37.500248,201.7492,NaN,0.0,8.0,,26 / 27,,5265,2021-05-04 15:50:33:233
-0.222668,-0.481249,9.718362,-0.331693,-0.516328,9.787429,-0.017539,-0.026472,0.76706,-4.68,-5.16,-43.26,142.0524,3.043,1.9287,55.813995,37.500248,201.7492,NaN,0.0,8.0,,26 / 27,,5276,2021-05-04 15:50:33:244
-0.222668,-0.481249,9.718362,-0.331693,-0.516328,9.787429,-0.017539,-0.026472,0.76706,-4.68,-5.16,-43.26,142.0524,3.043,1.9287,55.813995,37.500248,201.7492,NaN,0.0,8.0,,26 / 27,,5285,2021-05-04 15:50:33:253
-0.222668,-0.481249,9.718362,-0.331693,-0.516328,9.787429,-0.017539,-0.026472,0.76706,-4.68,-5.16,-43.26,142.0524,3.043,1.9287,55.813995,37.500248,201.7492,NaN,0.0,8.0,,26 / 27,,5295,2021-05-04 15:50:33:263
-0.222668,-0.481249,9.718362,-0.331693,-0.516328,9.787429,-0.017539,-0.026472,0.76706,-4.68,-5.16,-43.26,142.0524,3.043,1.9287,55.813995,37.500248,201.7492,NaN,0.0,8.0,,26 / 27,,5305,2021-05-04 15:50:33:273
-0.222668,-0.481249,9.718362,-0.331693,-0.516328,9.787429,-0.017539,-0.026472,0.76706,-4.68,-5.16,-43.26,142.0524,3.043,1.9287,55.813995,37.500248,201.7492,NaN,0.0,8.0,,26 / 27,,5315,2021-05-04 15:50:33:283
-0.222668,-0.481249,9.718362,-0.331693,-0.516328,9.787429,-0.017539,-0.026472,0.76706,-4.68,-5.16,-43.26,142.0524,3.043,1.9287,55.813995,37.500248,201.7492,NaN,0.0,8.0,,26 / 27,,5326,2021-05-04 15:50:33:294
-0.222668,-0.481249,9.718362,-0.331693,-0.516328,9.787429,-0.017539,-0.026472,0.76706,-4.68,-5.16,-43.26,142.0524,3.043,1.9287,55.813995,37.500248,201.7492,NaN,0.0,8.0,,26 / 27,,5335,2021-05-04 15:50:33:303
-0.205908,-0.500403,9.689631,-0.330022,-0.51494,9.78756,-0.015706,-0.025251,0.765228,-4.32,-5.7,-43.26,146.5222,3.0181,1.941,55.813995,37.500248,201.7492,NaN,0.0,8.0,,26 / 27,,5346,2021-05-04 15:50:33:314
-0.205908,-0.500403,9.689631,-0.330022,-0.51494,9.78756,-0.023036,-0.030749,0.803712,-4.32,-5.7,-43.26,146.5222,3.0181,1.941,55.813995,37.500248,201.7492,NaN,0.0,8.0,,27 / 29,,5355,2021-05-04 15:50:33:323
-0.366324,-0.498009,9.672871,-0.347254,-0.50128,9.787672,-0.023036,-0.030749,0.803712,-3.36,-5.7,-42.18,146.5222,3.0181,1.941,55.813995,37.500248,201.7492,NaN,0.0,8.0,,27 / 29,,5365,2021-05-04 15:50:33:333
-0.308861,-0.529135,9.838076,-0.347254,-0.50128,9.787672,-0.032199,-0.040522,0.808599,-3.36,-5.7,-42.18,146.5222,3.0181,1.941,55.813995,37.500248,201.7492,NaN,0.0,8.0,,27 / 29,,5375,2021-05-04 15:50:33:343
-0.22985,-0.5435,9.912297,-0.35446,-0.500006,9.787478,-0.027312,-0.041744,0.811654,-3.24,-5.4,-42.78,146.5222,3.0181,1.941,55.813995,37.500248,201.7492,NaN,0.0,8.0,,27 / 29,,5386,2021-05-04 15:50:33:354
-0.22985,-0.5435,9.912297,-0.35446,-0.500006,9.787478,-0.019371,-0.030138,0.817151,-3.24,-5.4,-42.78,146.5222,3.0181,1.941,55.813995,37.500248,201.7492,NaN,0.0,8.0,,27 / 29,,5395,2021-05-04 15:50:33:363
-0.337593,-0.52674,9.883567,-0.356691,-0.500518,9.787372,-0.016317,-0.033192,0.812264,-2.82,-4.56,-42.42,147.6313,2.9226,2.0741,55.813995,37.500248,201.7492,NaN,0.0,8.0,,27 / 29,,5405,2021-05-04 15:50:33:373
-0.39745,-0.5435,9.766247,-0.35628,-0.500474,9.787389,-0.019371,-0.035025,0.818984,-3.06,-4.68,-42.6,147.6313,2.9226,2.0741,55.813995,37.500248,201.7492,NaN,0.0,8.0,,27 / 29,,5415,2021-05-04 15:50:33:383
-0.440547,-0.517163,9.766247,-0.35628,-0.500474,9.787389,-0.015706,-0.033192,0.822649,-3.06,-4.68,-42.6,147.6313,2.9226,2.0741,55.813995,37.500248,201.7492,NaN,0.0,8.0,,27 / 29,,5425,2021-05-04 15:50:33:393
-0.459701,-0.519558,9.838076,-0.357788,-0.500698,9.787322,-0.019982,-0.030138,0.825093,-2.52,-4.86,-41.94,147.6313,2.9226,2.0741,55.813995,37.500248,201.7492,NaN,0.0,8.0,,27 / 29,,5435,2021-05-04 15:50:33:403
-0.459701,-0.519558,9.838076,-0.357788,-0.500698,9.787322,-0.019982,-0.030138,0.825093,-2.52,-4.86,-41.94,147.6313,2.9226,2.0741,55.813995,37.500248,201.7492,NaN,0.0,8.0,,27 / 29,,5445,2021-05-04 15:50:33:413
-0.41421,-0.545895,9.835681,-0.35754,-0.50178,9.787275,-0.021204,-0.035635,0.829369,-2.82,-5.34,-42.06,147.5601,2.9266,2.0936,55.813995,37.500248,201.7492,NaN,0.0,8.0,,27 / 29,,5455,2021-05-04 15:50:33:423
-0.395055,-0.541106,9.799767,-0.35754,-0.50178,9.787275,-0.016928,-0.03869,0.831812,-2.82,-5.34,-42.06,147.5601,2.9266,2.0936,55.813995,37.500248,201.7492,NaN,0.0,8.0,,27 / 29,,5465,2021-05-04 15:50:33:433
-0.316044,-0.57702,9.783007,-0.360405,-0.503366,9.787089,-0.018149,-0.046631,0.833645,-3.36,-4.98,-42.54,147.5601,2.9266,2.0936,55.813995,37.500248,201.7492,NaN,0.0,8.0,,27 / 29,,5475,2021-05-04 15:50:33:443
-0.316044,-0.57702,9.783007,-0.360405,-0.503366,9.787089,-0.018149,-0.046631,0.833645,-3.36,-4.98,-42.54,147.5601,2.9266,2.0936,55.813995,37.500248,201.7492,NaN,0.0,8.0,,27 / 29,,5485,2021-05-04 15:50:33:453
-0.308861,-0.519558,9.802161,-0.357448,-0.50483,9.787122,-0.013262,-0.034414,0.839143,-2.94,-4.8,-42.48,147.5369,2.9422,2.1089,55.813995,37.500248,201.7492,NaN,0.0,8.0,,27 / 29,,5496,2021-05-04 15:50:33:464
-0.320833,-0.402238,9.811738,-0.35582,-0.504841,9.787182,-0.015095,-0.029527,0.839753,-2.76,-4.44,-42.3,147.5369,2.9422,2.1089,55.813995,37.500248,201.7492,NaN,0.0,8.0,,27 / 29,,5505,2021-05-04 15:50:33:473
-0.407027,-0.493221,9.761458,-0.35582,-0.504841,9.787182,-0.016317,-0.027083,0.845251,-2.76,-4.44,-42.3,147.5369,2.9422,2.1089,55.813995,37.500248,201.7492,NaN,0.0,8.0,,27 / 29,,5515,2021-05-04 15:50:33:483
-0.476461,-0.498009,9.742304,-0.353567,-0.501298,9.787445,-0.020593,-0.027083,0.856247,-2.82,-4.26,-42.12,147.5369,2.9422,2.1089,55.813995,37.500248,201.7492,NaN,0.0,8.0,,27 / 29,,5525,2021-05-04 15:50:33:493
-0.476461,-0.498009,9.742304,-0.353567,-0.501298,9.787445,-0.021815,-0.030749,0.862355,-2.82,-4.26,-42.12,147.5369,2.9422,2.1089,55.813995,37.500248,201.7492,NaN,0.0,8.0,,27 / 29,,5535,2021-05-04 15:50:33:503
-0.476461,-0.517163,9.759064,-0.356839,-0.49873,9.787457,-0.024869,-0.041133,0.864799,-2.76,-4.14,-42.3,143.6525,2.9301,2.0689,55.813995,37.500248,201.7492,NaN,0.0,8.0,,27 / 29,,5546,2021-05-04 15:50:33:514
-0.41421,-0.483643,9.821315,-0.356839,-0.49873,9.787457,-0.024869,-0.041133,0.864799,-2.76,-4.14,-42.3,143.6525,2.9301,2.0689,55.813995,37.500248,201.7492,NaN,0.0,8.0,,27 / 29,,5555,2021-05-04 15:50:33:523
-0.277736,-0.452518,9.766247,-0.362899,-0.497697,9.787288,-0.023036,-0.04602,0.86541,-2.34,-4.26,-42.0,143.6525,2.9301,2.0689,55.813995,37.500248,201.7492,NaN,0.0,8.0,,27 / 29,,5565,2021-05-04 15:50:33:533
-0.277736,-0.452518,9.766247,-0.362899,-0.497697,9.787288,-0.027312,-0.047853,0.863577,-2.34,-4.26,-42.0,143.6525,2.9301,2.0689,55.813995,37.500248,201.7492,NaN,0.0,8.0,,27 / 29,,5575,2021-05-04 15:50:33:543
-0.165205,-0.486038,9.699207,-0.363275,-0.494531,9.787434,-0.027923,-0.048464,0.864188,-2.46,-4.5,-41.52,149.8542,2.9091,2.1235,55.813995,37.500248,201.7492,NaN,0.0,8.0,,27 / 29,,5585,2021-05-04 15:50:33:553
-0.122108,-0.447729,9.869201,-0.363275,-0.494531,9.787434,-0.029756,-0.041744,0.856858,-2.46,-4.5,-41.52,149.8542,2.9091,2.1235,55.813995,37.500248,201.7492,NaN,0.0,8.0,,27 / 29,,5596,2021-05-04 15:50:33:564
-0.129291,-0.742225,9.900327,-0.353045,-0.492271,9.787922,-0.024869,-0.030749,0.85136,-2.76,-4.86,-42.6,149.8542,2.9091,2.1235,55.813995,37.500248,201.7492,NaN,0.0,8.0,,27 / 29,,5605,2021-05-04 15:50:33:573
-0.129291,-0.742225,9.900327,-0.353045,-0.492271,9.787922,-0.020593,-0.029527,0.849527,-2.76,-4.86,-42.6,149.8542,2.9091,2.1235,55.813995,37.500248,201.7492,NaN,0.0,8.0,,27 / 29,,5616,2021-05-04 15:50:33:584
-0.107742,-0.519558,9.900327,-0.336708,-0.495464,9.788337,-0.014484,-0.036246,0.836699,-1.8,-3.6,-42.66,150.0079,2.8773,2.0657,55.813995,37.500248,201.7492,NaN,0.0,8.0,,27 / 29,,5625,2021-05-04 15:50:33:593
-0.129291,-0.476461,9.917087,-0.336708,-0.495464,9.788337,-0.003489,-0.032581,0.831201,-1.8,-3.6,-42.66,150.0079,2.8773,2.0657,55.813995,37.500248,201.7492,NaN,0.0,8.0,,27 / 29,,5635,2021-05-04 15:50:33:603
-0.129291,-0.476461,9.917087,-0.316573,-0.498704,9.788844,-0.003489,-0.032581,0.831201,-1.44,-3.3,-41.94,150.0079,2.8773,2.0657,55.813995,37.500248,201.7492,NaN,0.0,8.0,,27 / 29,,5645,2021-05-04 15:50:33:613
-0.177176,-0.533923,9.668081,-0.316573,-0.498704,9.788844,-0.006543,-0.023418,0.826314,-1.44,-3.3,-41.94,150.0079,2.8773,2.0657,55.813995,37.500248,201.7492,NaN,0.0,8.0,,27 / 29,,5655,2021-05-04 15:50:33:623
-0.136474,-0.428575,9.555551,-0.304369,-0.498787,9.789227,-0.021815,-0.04602,0.828147,-1.8,-4.26,-42.18,151.6615,2.9154,1.7809,55.813995,37.500248,201.7492,NaN,0.0,8.0,,27 / 29,,5665,2021-05-04 15:50:33:633
-0.24661,-0.399844,9.984126,-0.304369,-0.498787,9.789227,-0.032199,-0.035635,0.824482,-1.8,-4.26,-42.18,151.6615,2.9154,1.7809,55.813995,37.500248,201.7492,NaN,0.0,8.0,,27 / 29,,5675,2021-05-04 15:50:33:643
-0.24661,-0.399844,9.984126,-0.289697,-0.498673,9.789678,-0.030367,-0.024029,0.820817,-1.56,-3.66,-42.18,151.6615,2.9154,1.7809,55.813995,37.500248,201.7492,NaN,0.0,8.0,,27 / 29,,5685,2021-05-04 15:50:33:653
-0.158022,-0.447729,9.929058,-0.289697,-0.498673,9.789678,-0.014484,-0.042355,0.81593,-1.56,-3.66,-42.18,151.6615,2.9154,1.7809,55.813995,37.500248,201.7492,NaN,0.0,8.0,,27 / 29,,5695,2021-05-04 15:50:33:663
-0.102954,-0.438152,9.62259,-0.282947,-0.494452,9.790089,-0.010819,-0.064346,0.811654,-1.44,-3.6,-41.88,159.9056,2.9148,1.695,55.813995,37.500248,201.7492,NaN,0.0,8.0,,27 / 29,,5705,2021-05-04 15:50:33:673
-0.172388,-0.450124,9.665688,-0.282947,-0.494452,9.790089,-0.027312,-0.03197,0.802491,-1.44,-3.6,-41.88,159.9056,2.9148,1.695,55.813995,37.500248,201.7492,NaN,0.0,8.0,,27 / 29,,5715,2021-05-04 15:50:33:683
-0.193936,-0.636877,9.859624,-0.269076,-0.488601,9.790774,-0.03281,-0.014255,0.801269,-2.1,-3.48,-41.88,159.9056,2.9148,1.695,55.813995,37.500248,201.7492,NaN,0.0,8.0,,27 / 29,,5726,2021-05-04 15:50:33:694
-0.193936,-0.636877,9.859624,-0.265496,-0.487984,9.790902,-0.026091,-0.033803,0.798215,-1.92,-3.3,-41.58,159.9056,2.9148,1.695,55.813995,37.500248,201.7492,NaN,0.0,8.0,,27 / 29,,5735,2021-05-04 15:50:33:703
-0.146051,-0.486038,9.976943,-0.265496,-0.487984,9.790902,-0.015706,-0.054572,0.793328,-1.92,-3.3,-41.58,159.9056,2.9148,1.695,55.813995,37.500248,201.7492,NaN,0.0,8.0,,27 / 29,,5745,2021-05-04 15:50:33:713
-0.193936,-0.545895,10.008069,-0.255395,-0.490363,9.791053,-0.003489,-0.029527,0.791495,-1.14,-3.42,-41.52,157.1909,2.8522,1.5533,55.813995,37.500248,201.7492,NaN,0.0,8.0,,27 / 29,,5755,2021-05-04 15:50:33:723
-0.196331,-0.445335,9.797373,-0.255395,-0.490363,9.791053,-0.006543,0.001016,0.785997,-1.14,-3.42,-41.52,157.1909,2.8522,1.5533,55.813995,37.500248,201.7492,NaN,0.0,8.0,,27 / 29,,5766,2021-05-04 15:50:33:734
-0.196331,-0.445335,9.797373,-0.242589,-0.490176,9.791388,-0.006543,0.001016,0.785997,-0.9,-3.48,-42.42,157.1909,2.8522,1.5533,55.813995,37.500248,201.7492,NaN,0.0,8.0,,27 / 29,,5775,2021-05-04 15:50:33:743
-0.215485,-0.332804,9.514848,-0.242589,-0.490176,9.791388,-0.015706,-0.033192,0.784776,-0.9,-3.48,-42.42,157.1909,2.8522,1.5533,55.813995,37.500248,201.7492,NaN,0.0,8.0,,27 / 29,,5785,2021-05-04 15:50:33:753
