ACCELEROMETER X (m/s²),ACCELEROMETER Y (m/s²),ACCELEROMETER Z (m/s²),GRAVITY X (m/s²),GRAVITY Y (m/s²),GRAVITY Z (m/s²),GYROSCOPE X (rad/s),GYROSCOPE Y (rad/s),GYROSCOPE Z (rad/s),MAGNETIC FIELD X (μT),MAGNETIC FIELD Y (μT),MAGNETIC FIELD Z (μT),ORIENTATION Z (azimuth °),ORIENTATION X (pitch °),ORIENTATION Y (roll °),LOCATION Latitude : ,LOCATION Longitude : ,LOCATION Altitude ( m),LOCATION Altitude-google ( m),LOCATION Speed ( m/s),LOCATION Accuracy ( m),LOCATION ORIENTATION (°),Satellites in range,GPS NMEA,Time since start in ms ,YYYY-MO-DD HH-MI-SS_SSS
-0.488432,-0.023943,9.783007,-0.486627,-0.043658,9.794472,-0.01876,-0.00387,-0.008128,12.06,-19.32,-45.6,206.7987,0.2693,2.8384,55.813984,37.500217,203.7595,NaN,0.0,8.0,,20 / 21,,19,2021-05-04 15:53:49:429
-0.478855,-0.040703,9.828498,-0.485085,-0.045257,9.79454,-0.013262,-0.006925,-0.003241,12.12,-18.9,-45.84,206.7987,0.2693,2.8384,55.813984,37.500217,203.7595,NaN,0.0,8.0,,20 / 21,,29,2021-05-04 15:53:49:439
-0.493221,-0.062251,9.900327,-0.484263,-0.04582,9.794579,-0.002878,-0.005092,-0.005073,11.88,-18.12,-45.12,206.7987,0.2693,2.8384,55.813984,37.500217,203.7595,NaN,0.0,8.0,,20 / 21,,39,2021-05-04 15:53:49:449
-0.493221,-0.062251,9.900327,-0.484263,-0.04582,9.794579,0.007507,0.002238,-0.003241,11.88,-18.12,-45.12,206.7987,0.2693,2.8384,55.813984,37.500217,203.7595,NaN,0.0,8.0,,20 / 21,,50,2021-05-04 15:53:49:460
-0.493221,-0.071828,9.905115,-0.483387,-0.046914,9.794617,0.007507,0.002238,-0.003241,12.06,-18.06,-44.94,208.1944,0.2677,2.8305,55.813984,37.500217,203.7595,NaN,0.0,8.0,,20 / 21,,59,2021-05-04 15:53:49:469
-0.488432,-0.047885,9.850046,-0.483387,-0.046914,9.794617,0.011783,0.005903,-7.97E-4,12.06,-18.06,-44.94,208.1944,0.2677,2.8305,55.813984,37.500217,203.7595,NaN,0.0,8.0,,20 / 21,,70,2021-05-04 15:53:49:480
-0.488432,-0.021548,9.785401,-0.484365,-0.044836,9.794579,0.011783,0.005903,-7.97E-4,11.94,-18.18,-45.66,208.1944,0.2677,2.8305,55.813984,37.500217,203.7595,NaN,0.0,8.0,,20 / 21,,79,2021-05-04 15:53:49:489
-0.464489,-0.026337,9.75667,-0.484365,-0.044836,9.794579,0.001398,-0.00326,-0.002019,11.94,-18.18,-45.66,208.1944,0.2677,2.8305,55.813984,37.500217,203.7595,NaN,0.0,8.0,,20 / 21,,89,2021-05-04 15:53:49:499
-0.464489,-0.026337,9.75667,-0.484264,-0.044237,9.794586,-0.005932,-0.004481,-0.002019,11.76,-18.72,-45.72,206.8199,0.262,2.8311,55.813984,37.500217,203.7595,NaN,0.0,8.0,,20 / 21,,99,2021-05-04 15:53:49:509
-0.488432,-0.031126,9.780613,-0.484264,-0.044237,9.794586,-0.010819,-0.005092,-0.003852,11.76,-18.72,-45.72,206.8199,0.262,2.8311,55.813984,37.500217,203.7595,NaN,0.0,8.0,,20 / 21,,109,2021-05-04 15:53:49:519
-0.512375,-0.031126,9.864412,-0.483323,-0.044998,9.794629,-0.010208,-0.00326,-0.004462,12.66,-18.9,-44.88,206.8199,0.262,2.8311,55.813984,37.500217,203.7595,NaN,0.0,8.0,,20 / 21,,120,2021-05-04 15:53:49:530
-0.512375,-0.031126,9.864412,-0.483323,-0.044998,9.794629,-0.001045,-2.05E-4,-0.004462,12.66,-18.9,-44.88,206.8199,0.262,2.8311,55.813984,37.500217,203.7595,NaN,0.0,8.0,,20 / 21,,129,2021-05-04 15:53:49:539
-0.493221,-0.064645,9.909904,-0.483505,-0.04455,9.794621,0.006896,4.06E-4,-0.003852,13.08,-18.54,-44.46,209.3876,0.2629,2.825,55.813984,37.500217,203.7595,NaN,0.0,8.0,,20 / 21,,139,2021-05-04 15:53:49:549
-0.488432,-0.038308,9.845258,-0.483505,-0.04455,9.794621,0.006896,0.001627,-0.003241,13.08,-18.54,-44.46,209.3876,0.2629,2.825,55.813984,37.500217,203.7595,NaN,0.0,8.0,,20 / 21,,149,2021-05-04 15:53:49:559
-0.495615,-0.004789,9.783007,-0.484492,-0.043186,9.79458,0.005063,0.002238,-0.004462,12.36,-19.08,-44.76,209.3876,0.2629,2.825,55.813984,37.500217,203.7595,NaN,0.0,8.0,,20 / 21,,159,2021-05-04 15:53:49:569
-0.483643,-0.045491,9.763853,-0.484492,-0.043186,9.79458,-0.001045,-8.16E-4,-0.003852,12.36,-19.08,-44.76,209.3876,0.2629,2.825,55.813984,37.500217,203.7595,NaN,0.0,8.0,,20 / 21,,169,2021-05-04 15:53:49:579
-0.493221,-0.031126,9.802161,-0.485367,-0.041175,9.794545,-0.00471,-8.16E-4,-0.003852,12.48,-19.08,-45.12,206.9504,0.2523,2.8318,55.813984,37.500217,203.7595,NaN,0.0,8.0,,20 / 21,,180,2021-05-04 15:53:49:590
-0.493221,-0.031126,9.802161,-0.485367,-0.041175,9.794545,-0.007154,-0.002649,-0.003852,12.48,-19.08,-45.12,206.9504,0.2523,2.8318,55.813984,37.500217,203.7595,NaN,0.0,8.0,,20 / 21,,189,2021-05-04 15:53:49:599
-0.493221,-0.045491,9.866806,-0.485231,-0.041229,9.794551,-0.007765,-0.002649,-0.003241,12.6,-18.54,-45.6,206.9504,0.2523,2.8318,55.813984,37.500217,203.7595,NaN,0.0,8.0,,20 / 21,,200,2021-05-04 15:53:49:610
-0.483643,-0.05028,9.876384,-0.485231,-0.041229,9.794551,1.77E-4,-0.002649,-0.002019,12.6,-18.54,-45.6,206.9504,0.2523,2.8318,55.813984,37.500217,203.7595,NaN,0.0,8.0,,20 / 21,,209,2021-05-04 15:53:49:619
-0.478855,-0.043097,9.864412,-0.485039,-0.041951,9.794559,0.003231,4.06E-4,-0.004462,12.12,-18.84,-45.18,206.9532,0.2409,2.8362,55.813984,37.500217,203.7595,NaN,0.0,8.0,,20 / 21,,219,2021-05-04 15:53:49:629
-0.495615,-0.043097,9.802161,-0.485039,-0.041951,9.794559,0.008118,-2.05E-4,-0.003241,12.12,-18.84,-45.18,206.9532,0.2409,2.8362,55.813984,37.500217,203.7595,NaN,0.0,8.0,,20 / 21,,229,2021-05-04 15:53:49:639
-0.495615,-0.043097,9.802161,-0.485105,-0.041546,9.794556,0.001398,0.001016,-0.003241,12.12,-19.32,-44.88,206.9532,0.2409,2.8362,55.813984,37.500217,203.7595,NaN,0.0,8.0,,20 / 21,,239,2021-05-04 15:53:49:649
-0.490826,-0.043097,9.794978,-0.485105,-0.041546,9.794556,-0.002267,-0.00326,-0.005684,12.12,-19.32,-44.88,206.9532,0.2409,2.8362,55.813984,37.500217,203.7595,NaN,0.0,8.0,,20 / 21,,249,2021-05-04 15:53:49:659
-0.490826,-0.043097,9.816526,-0.485249,-0.041014,9.794552,-0.006543,-0.006925,-0.00263,12.24,-19.62,-45.42,205.7948,0.2427,2.8354,55.813984,37.500217,203.7595,NaN,0.0,8.0,,20 / 21,,259,2021-05-04 15:53:49:669
-0.407027,-0.047885,9.838076,-0.485249,-0.041014,9.794552,-0.005321,-0.004481,-0.004462,12.24,-19.62,-45.42,205.7948,0.2427,2.8354,55.813984,37.500217,203.7595,NaN,0.0,8.0,,20 / 21,,270,2021-05-04 15:53:49:680
-0.502798,-0.045491,9.948212,-0.484349,-0.041708,9.794593,-0.006543,-8.16E-4,-0.003852,12.96,-19.44,-45.54,205.7948,0.2427,2.8354,55.813984,37.500217,203.7595,NaN,0.0,8.0,,20 / 21,,279,2021-05-04 15:53:49:689
-0.502798,-0.045491,9.948212,-0.484349,-0.041708,9.794593,7.87E-4,0.019342,-0.005073,12.96,-19.44,-45.54,205.7948,0.2427,2.8354,55.813984,37.500217,203.7595,NaN,0.0,8.0,,20 / 21,,290,2021-05-04 15:53:49:700
-0.550683,-0.074223,9.857229,-0.484934,-0.043579,9.794556,0.006285,0.01079,-1.86E-4,12.96,-19.26,-45.72,209.1609,0.2437,2.831,55.813984,37.500217,203.7595,NaN,0.0,8.0,,20 / 21,,299,2021-05-04 15:53:49:709
-0.579414,0.002394,9.718362,-0.484934,-0.043579,9.794556,0.008118,-0.00326,0.001646,12.96,-19.26,-45.72,209.1609,0.2437,2.831,55.813984,37.500217,203.7595,NaN,0.0,8.0,,20 / 21,,309,2021-05-04 15:53:49:719
-0.459701,-0.014366,9.70639,-0.490517,-0.042846,9.794281,0.00262,-0.022196,4.25E-4,12.48,-19.5,-45.42,209.1609,0.2437,2.831,55.813984,37.500217,203.7595,NaN,0.0,8.0,,20 / 21,,319,2021-05-04 15:53:49:729
-0.481249,-0.06704,9.888355,-0.490517,-0.042846,9.794281,-0.008986,-0.01059,4.25E-4,12.48,-19.5,-45.42,209.1609,0.2437,2.831,55.813984,37.500217,203.7595,NaN,0.0,8.0,,20 / 21,,329,2021-05-04 15:53:49:739
-0.481249,-0.06704,9.888355,-0.490205,-0.041019,9.794305,-0.015095,0.006514,0.004701,12.42,-19.68,-45.6,205.6101,0.2503,2.8671,55.813984,37.500217,203.7595,NaN,0.0,8.0,,20 / 21,,339,2021-05-04 15:53:49:749
-0.462095,-0.055068,9.926663,-0.490205,-0.041019,9.794305,-0.010208,0.004682,0.005922,12.42,-19.68,-45.6,205.6101,0.2503,2.8671,55.813984,37.500217,203.7595,NaN,0.0,8.0,,20 / 21,,349,2021-05-04 15:53:49:759
-0.454912,-0.057463,9.857229,-0.493558,-0.043738,9.794125,-0.002267,0.001016,0.007144,12.96,-18.48,-45.66,205.6101,0.2503,2.8671,55.813984,37.500217,203.7595,NaN,0.0,8.0,,20 / 21,,360,2021-05-04 15:53:49:770
-0.430969,-0.05028,9.826104,-0.493558,-0.043738,9.794125,0.008729,0.004682,0.004701,12.96,-18.48,-45.66,205.6101,0.2503,2.8671,55.813984,37.500217,203.7595,NaN,0.0,8.0,,20 / 21,,370,2021-05-04 15:53:49:780
-0.524346,-0.045491,9.818921,-0.491772,-0.04449,9.794211,0.010561,0.024229,0.003479,13.14,-18.0,-45.36,210.4911,0.2555,2.8849,55.813984,37.500217,203.7595,NaN,0.0,8.0,,20 / 21,,379,2021-05-04 15:53:49:789
-0.524346,-0.06704,9.747093,-0.491772,-0.04449,9.794211,0.008729,0.018732,0.007144,13.14,-18.0,-45.36,210.4911,0.2555,2.8849,55.813984,37.500217,203.7595,NaN,0.0,8.0,,20 / 21,,389,2021-05-04 15:53:49:799
-0.574626,-0.06704,9.747093,-0.495093,-0.043912,9.794046,0.006896,-0.00387,0.010809,12.3,-18.48,-45.36,210.4911,0.2555,2.8849,55.813984,37.500217,203.7595,NaN,0.0,8.0,,20 / 21,,400,2021-05-04 15:53:49:810
-0.600963,-0.047885,9.785401,-0.495093,-0.043912,9.794046,7.87E-4,-0.012423,0.014474,12.3,-18.48,-45.36,210.4911,0.2555,2.8849,55.813984,37.500217,203.7595,NaN,0.0,8.0,,20 / 21,,409,2021-05-04 15:53:49:819
-0.596174,-0.007183,9.859624,-0.498969,-0.044592,9.793847,-0.009597,-0.005092,0.019972,11.94,-18.0,-45.12,208.0826,0.2566,2.8939,55.813984,37.500217,203.7595,NaN,0.0,8.0,,20 / 21,,420,2021-05-04 15:53:49:830
-0.670397,-0.045491,9.775824,-0.498969,-0.044592,9.793847,-0.01143,0.01751,0.028524,11.94,-18.0,-45.12,208.0826,0.2566,2.8939,55.813984,37.500217,203.7595,NaN,0.0,8.0,,20 / 21,,429,2021-05-04 15:53:49:839
-0.670397,-0.045491,9.775824,-0.507444,-0.046065,9.793405,-0.010208,0.008958,0.033411,11.88,-18.18,-45.48,208.0826,0.2566,2.8939,55.813984,37.500217,203.7595,NaN,0.0,8.0,,20 / 21,,439,2021-05-04 15:53:49:849
-0.684763,0.086194,9.672871,-0.507444,-0.046065,9.793405,-0.007765,-0.011201,0.041963,11.88,-18.18,-45.48,208.0826,0.2566,2.8939,55.813984,37.500217,203.7595,NaN,0.0,8.0,,20 / 21,,449,2021-05-04 15:53:49:859
-0.656031,0.0,9.677659,-0.523291,-0.044198,9.792579,-0.012652,-0.016088,0.04685,11.7,-18.72,-45.18,206.6806,0.2691,2.9661,55.813984,37.500217,203.7595,NaN,0.0,8.0,,20 / 21,,459,2021-05-04 15:53:49:869
-0.629694,-0.086194,9.893144,-0.523291,-0.044198,9.792579,-0.018149,-0.006925,0.056624,11.7,-18.72,-45.18,206.6806,0.2691,2.9661,55.813984,37.500217,203.7595,NaN,0.0,8.0,,20 / 21,,471,2021-05-04 15:53:49:881
-0.605751,-0.112531,10.032011,-0.536575,-0.040975,9.791874,-0.018149,-0.006925,0.056624,12.24,-19.2,-45.12,206.6806,0.2691,2.9661,55.813984,37.500217,203.7595,NaN,0.0,8.0,,20 / 21,,480,2021-05-04 15:53:49:890
-0.572232,-0.126897,9.96976,-0.536575,-0.040975,9.791874,-0.010208,-0.007536,0.072507,12.24,-19.2,-45.12,206.6806,0.2691,2.9661,55.813984,37.500217,203.7595,NaN,0.0,8.0,,20 / 21,,490,2021-05-04 15:53:49:900
-0.572232,-0.126897,9.96976,-0.546453,-0.044337,9.791313,-0.010208,-0.007536,0.072507,12.48,-19.32,-45.12,206.3848,0.2394,3.1366,55.813984,37.500217,203.7595,NaN,0.0,8.0,,20 / 21,,499,2021-05-04 15:53:49:909
-0.57702,-0.071828,9.783007,-0.546453,-0.044337,9.791313,-0.005321,-8.16E-4,0.079226,12.48,-19.32,-45.12,206.3848,0.2394,3.1366,55.813984,37.500217,203.7595,NaN,0.0,8.0,,20 / 21,,509,2021-05-04 15:53:49:919
-0.620117,-0.057463,9.75667,-0.554312,-0.048515,9.790852,-0.001656,0.004682,0.089,12.06,-19.02,-44.52,206.3848,0.2394,3.1366,55.813984,37.500217,203.7595,NaN,0.0,8.0,,20 / 21,,519,2021-05-04 15:53:49:929
-0.6273,-0.090982,9.826104,-0.554312,-0.048515,9.790852,-0.002267,-2.05E-4,0.092054,12.06,-19.02,-44.52,206.3848,0.2394,3.1366,55.813984,37.500217,203.7595,NaN,0.0,8.0,,20 / 21,,529,2021-05-04 15:53:49:939
-0.603357,-0.035914,9.852441,-0.563232,-0.051428,9.790327,7.87E-4,0.002238,0.11038,12.12,-19.5,-44.46,206.2865,0.2835,3.2404,55.813984,37.500217,203.7595,NaN,0.0,8.0,,20 / 21,,540,2021-05-04 15:53:49:950
-0.603357,-0.035914,9.852441,-0.563232,-0.051428,9.790327,-0.006543,0.004682,0.116489,12.12,-19.5,-44.46,206.2865,0.2835,3.2404,55.813984,37.500217,203.7595,NaN,0.0,8.0,,20 / 21,,550,2021-05-04 15:53:49:960
-0.636877,-0.01676,9.787795,-0.563021,-0.050052,9.790347,-0.006543,0.004682,0.116489,12.12,-19.44,-45.12,206.2865,0.2835,3.2404,55.813984,37.500217,203.7595,NaN,0.0,8.0,,20 / 21,,559,2021-05-04 15:53:49:969
-0.679974,-0.004789,9.754275,-0.563021,-0.050052,9.790347,-0.012041,0.004682,0.127485,12.12,-19.44,-45.12,206.2865,0.2835,3.2404,55.813984,37.500217,203.7595,NaN,0.0,8.0,,20 / 21,,570,2021-05-04 15:53:49:980
-0.684763,0.004789,9.771035,-0.56428,-0.050488,9.790272,-0.010819,-0.006925,0.132982,11.94,-18.72,-44.94,206.0392,0.2924,3.2913,55.813984,37.500217,203.7595,NaN,0.0,8.0,,20 / 21,,579,2021-05-04 15:53:49:989
-0.684763,0.004789,9.771035,-0.56428,-0.050488,9.790272,-0.014484,-0.009979,0.142145,11.94,-18.72,-44.94,206.0392,0.2924,3.2913,55.813984,37.500217,203.7595,NaN,0.0,8.0,,20 / 21,,589,2021-05-04 15:53:49:999
-0.658426,-0.007183,9.783007,-0.563256,-0.051482,9.790325,-0.015706,0.002849,0.15925,12.54,-19.14,-45.42,206.0392,0.2924,3.2913,55.813984,37.500217,203.7595,NaN,0.0,8.0,,20 / 21,,600,2021-05-04 15:53:50:010
-0.668003,-0.019154,9.775824,-0.563256,-0.051482,9.790325,-0.015706,0.002849,0.15925,12.54,-19.14,-45.42,206.0392,0.2924,3.2913,55.813984,37.500217,203.7595,NaN,0.0,8.0,,20 / 21,,609,2021-05-04 15:53:50:019
-0.665608,-0.076617,9.802161,-0.56332,-0.052391,9.790318,-0.016928,-0.00387,0.167802,12.12,-19.08,-46.02,205.8843,0.3008,3.2927,55.813984,37.500217,203.7595,NaN,0.0,8.0,,20 / 21,,619,2021-05-04 15:53:50:029
-0.67758,-0.10056,9.897932,-0.56332,-0.052391,9.790318,-0.021204,-0.011201,0.178797,12.12,-19.08,-46.02,205.8843,0.3008,3.2927,55.813984,37.500217,203.7595,NaN,0.0,8.0,,20 / 21,,630,2021-05-04 15:53:50:040
-0.67758,-0.10056,9.897932,-0.561427,-0.053883,9.790418,-0.018149,-0.011201,0.189793,11.7,-18.96,-45.24,205.8843,0.3008,3.2927,55.813984,37.500217,203.7595,NaN,0.0,8.0,,20 / 21,,639,2021-05-04 15:53:50:049
-0.598569,-0.146051,9.895537,-0.561427,-0.053883,9.790418,-0.017539,-0.008146,0.200788,11.7,-18.96,-45.24,205.8843,0.3008,3.2927,55.813984,37.500217,203.7595,NaN,0.0,8.0,,20 / 21,,649,2021-05-04 15:53:50:059
-0.651243,-0.038308,9.917087,-0.559945,-0.055183,9.790496,-0.012041,0.00346,0.212395,12.0,-19.26,-45.6,205.892,0.3148,3.282,55.813984,37.500217,203.7595,NaN,0.0,8.0,,20 / 21,,659,2021-05-04 15:53:50:069
-0.622511,-0.074223,9.759064,-0.559945,-0.055183,9.790496,-0.007154,0.006514,0.222169,12.0,-19.26,-45.6,205.892,0.3148,3.282,55.813984,37.500217,203.7595,NaN,0.0,8.0,,20 / 21,,669,2021-05-04 15:53:50:079
-0.672791,-0.028731,9.684841,-0.561319,-0.054778,9.790419,-0.007154,0.004682,0.232553,11.64,-18.84,-46.14,205.892,0.3148,3.282,55.813984,37.500217,203.7595,NaN,0.0,8.0,,20 / 21,,679,2021-05-04 15:53:50:089
-0.672791,-0.028731,9.684841,-0.561319,-0.054778,9.790419,-0.014484,0.001016,0.242938,11.64,-18.84,-46.14,205.892,0.3148,3.282,55.813984,37.500217,203.7595,NaN,0.0,8.0,,20 / 21,,689,2021-05-04 15:53:50:099
-0.675185,-0.007183,9.715967,-0.561893,-0.054253,9.790389,-0.024869,-0.00387,0.253323,11.94,-18.42,-46.14,207.1078,0.32,3.2814,55.813984,37.500217,203.7595,NaN,0.0,8.0,,20 / 21,,699,2021-05-04 15:53:50:109
-0.718282,-0.057463,9.809344,-0.561893,-0.054253,9.790389,-0.027923,0.002238,0.261875,11.94,-18.42,-46.14,207.1078,0.32,3.2814,55.813984,37.500217,203.7595,NaN,0.0,8.0,,20 / 21,,709,2021-05-04 15:53:50:119
-0.718282,-0.028731,9.900327,-0.56234,-0.056199,9.790353,-0.027312,-0.00326,0.276536,12.48,-18.6,-45.54,207.1078,0.32,3.2814,55.813984,37.500217,203.7595,NaN,0.0,8.0,,20 / 21,,719,2021-05-04 15:53:50:129
-0.718282,-0.028731,9.900327,-0.56234,-0.056199,9.790353,-0.027312,-0.005092,0.291196,12.48,-18.6,-45.54,207.1078,0.32,3.2814,55.813984,37.500217,203.7595,NaN,0.0,8.0,,20 / 21,,729,2021-05-04 15:53:50:139
-0.699128,-0.069434,9.794978,-0.562089,-0.058725,9.790352,-0.023647,-0.008757,0.305857,12.78,-19.08,-44.88,208.3621,0.3283,3.2874,55.813984,37.500217,203.7595,NaN,0.0,8.0,,20 / 21,,739,2021-05-04 15:53:50:149
-0.670397,-0.088588,9.804555,-0.562089,-0.058725,9.790352,-0.023647,-0.011201,0.313188,12.78,-19.08,-44.88,208.3621,0.3283,3.2874,55.813984,37.500217,203.7595,NaN,0.0,8.0,,20 / 21,,749,2021-05-04 15:53:50:159
-0.620117,-0.107742,9.835681,-0.560803,-0.059818,9.79042,-0.024869,-0.00387,0.320518,12.42,-19.5,-44.46,208.3621,0.3283,3.2874,55.813995,37.500217,205.0514,NaN,0.0,8.0,,20 / 21,,759,2021-05-04 15:53:50:169
-0.617723,-0.093377,9.873989,-0.560803,-0.059818,9.79042,-0.022425,0.001016,0.333957,12.42,-19.5,-44.46,208.3621,0.3283,3.2874,55.813995,37.500217,205.0514,NaN,0.0,8.0,,20 / 21,,769,2021-05-04 15:53:50:179
-0.656031,-0.112531,9.862018,-0.560535,-0.060519,9.79043,-0.020593,0.004071,0.346174,11.52,-19.8,-44.64,204.8867,0.3495,3.2784,55.813995,37.500217,205.0514,NaN,0.0,8.0,,20 / 21,,780,2021-05-04 15:53:50:190
-0.656031,-0.112531,9.862018,-0.560535,-0.060519,9.79043,-0.019982,0.002849,0.357781,11.52,-19.8,-44.64,204.8867,0.3495,3.2784,55.813995,37.500217,205.0514,NaN,0.0,8.0,,20 / 21,,789,2021-05-04 15:53:50:199
-0.706311,-0.098165,9.838076,-0.562181,-0.060706,9.790335,-0.020593,-2.05E-4,0.365722,11.58,-19.8,-45.54,204.8867,0.3495,3.2784,55.813995,37.500217,205.0514,NaN,0.0,8.0,,20 / 21,,799,2021-05-04 15:53:50:209
-0.720677,-0.088588,9.802161,-0.562181,-0.060706,9.790335,-0.017539,0.002849,0.379772,11.58,-19.8,-45.54,204.8867,0.3495,3.2784,55.813995,37.500217,205.0514,NaN,0.0,8.0,,20 / 21,,810,2021-05-04 15:53:50:220
-0.713494,-0.062251,9.799767,-0.563039,-0.060836,9.790285,-0.019982,-8.16E-4,0.388935,11.88,-19.38,-45.3,205.9906,0.3547,3.2864,55.813995,37.500217,205.0514,NaN,0.0,8.0,,20 / 21,,819,2021-05-04 15:53:50:229
-0.713494,-0.062251,9.799767,-0.563039,-0.060836,9.790285,-0.024258,-0.007536,0.401763,11.88,-19.38,-45.3,205.9906,0.3547,3.2864,55.813995,37.500217,205.0514,NaN,0.0,8.0,,20 / 21,,830,2021-05-04 15:53:50:240
-0.646454,-0.059857,9.783007,-0.563419,-0.060582,9.790265,-0.022425,-0.007536,0.412759,11.46,-18.72,-45.06,205.9906,0.3547,3.2864,55.813995,37.500217,205.0514,NaN,0.0,8.0,,20 / 21,,841,2021-05-04 15:53:50:251
-0.598569,-0.031126,9.761458,-0.563419,-0.060582,9.790265,-0.034032,-0.006314,0.421311,11.46,-18.72,-45.06,205.9906,0.3547,3.2864,55.813995,37.500217,205.0514,NaN,0.0,8.0,,20 / 21,,850,2021-05-04 15:53:50:260
-0.67758,-0.062251,9.802161,-0.562247,-0.061127,9.790329,-0.034032,-0.006314,0.421311,11.22,-18.84,-45.72,203.3815,0.354,3.2937,55.813995,37.500217,205.0514,NaN,0.0,8.0,,20 / 21,,860,2021-05-04 15:53:50:270
-0.735042,-0.143656,9.809344,-0.562247,-0.061127,9.790329,-0.03953,0.004682,0.434139,11.22,-18.84,-45.72,203.3815,0.354,3.2937,55.813995,37.500217,205.0514,NaN,0.0,8.0,,20 / 21,,870,2021-05-04 15:53:50:280
-0.703917,-0.0838,9.857229,-0.563308,-0.063009,9.790256,-0.03281,0.001627,0.458574,11.94,-19.86,-45.78,203.3815,0.354,3.2937,55.813995,37.500217,205.0514,NaN,0.0,8.0,,20 / 21,,880,2021-05-04 15:53:50:290
-0.703917,-0.0838,9.857229,-0.563308,-0.063009,9.790256,-0.026702,-0.005092,0.473845,11.94,-19.86,-45.78,203.3815,0.354,3.2937,55.813995,37.500217,205.0514,NaN,0.0,8.0,,20 / 21,,890,2021-05-04 15:53:50:300
-0.730254,-0.10056,9.900327,-0.56438,-0.064471,9.790184,-0.026702,-0.005092,0.473845,12.54,-20.1,-45.6,206.9845,0.3681,3.293,55.813995,37.500217,205.0514,NaN,0.0,8.0,,20 / 21,,899,2021-05-04 15:53:50:309
-0.730254,-0.10056,9.900327,-0.56438,-0.064471,9.790184,-0.026702,-0.005092,0.473845,12.54,-20.1,-45.6,206.9845,0.3681,3.293,55.813995,37.500217,205.0514,NaN,0.0,8.0,,20 / 21,,909,2021-05-04 15:53:50:319
-0.730254,-0.10056,9.897932,-0.564612,-0.064373,9.790172,-0.026702,-0.00326,0.480565,12.36,-20.04,-45.54,206.9845,0.3681,3.293,55.813995,37.500217,205.0514,NaN,0.0,8.0,,20 / 21,,919,2021-05-04 15:53:50:329
-0.730254,-0.10056,9.897932,-0.564612,-0.064373,9.790172,-0.034032,-0.008146,0.520882,12.36,-20.04,-45.54,206.9845,0.3681,3.293,55.813995,37.500217,205.0514,NaN,0.0,8.0,,20 / 21,,929,2021-05-04 15:53:50:339
-0.588992,-0.059857,9.744699,-0.564891,-0.064204,9.790156,-0.038308,-0.008757,0.532488,12.12,-19.92,-45.0,204.8226,0.3761,3.3007,55.813995,37.500217,205.0514,NaN,0.0,8.0,,20 / 21,,939,2021-05-04 15:53:50:349
-0.59378,-0.081405,9.79019,-0.564891,-0.064204,9.790156,-0.037697,0.004071,0.538597,12.12,-19.92,-45.0,204.8226,0.3761,3.3007,55.813995,37.500217,205.0514,NaN,0.0,8.0,,20 / 21,,950,2021-05-04 15:53:50:360
-0.646454,-0.064645,9.79019,-0.564192,-0.065465,9.790189,-0.03953,0.008958,0.548982,12.42,-20.04,-45.42,204.8226,0.3761,3.3007,55.813995,37.500217,205.0514,NaN,0.0,8.0,,20 / 21,,959,2021-05-04 15:53:50:369
-0.663214,-0.090982,9.742304,-0.564192,-0.065465,9.790189,-0.043806,0.004682,0.556312,12.42,-20.04,-45.42,204.8226,0.3761,3.3007,55.813995,37.500217,205.0514,NaN,0.0,8.0,,20 / 21,,969,2021-05-04 15:53:50:379
-0.663214,-0.090982,9.742304,-0.566378,-0.067203,9.790051,-0.041362,-0.004481,0.564253,11.82,-19.8,-45.48,204.8217,0.3825,3.2982,55.813995,37.500217,205.0514,NaN,0.0,8.0,,20 / 21,,979,2021-05-04 15:53:50:389
-0.646454,-0.117319,9.792584,-0.566378,-0.067203,9.790051,-0.043806,-0.008146,0.572805,11.82,-19.8,-45.48,204.8217,0.3825,3.2982,55.813995,37.500217,205.0514,NaN,0.0,8.0,,20 / 21,,989,2021-05-04 15:53:50:399
-0.679974,-0.136474,9.888355,-0.566865,-0.069387,9.790007,-0.043806,-0.008146,0.572805,11.64,-19.56,-44.94,204.8217,0.3825,3.2982,55.813995,37.500217,205.0514,NaN,0.0,8.0,,20 / 21,,999,2021-05-04 15:53:50:409
-0.622511,-0.174782,9.912297,-0.566865,-0.069387,9.790007,-0.045027,-0.008757,0.582579,11.64,-19.56,-44.94,204.8217,0.3825,3.2982,55.813995,37.500217,205.0514,NaN,0.0,8.0,,20 / 21,,1009,2021-05-04 15:53:50:419
-0.61054,-0.148445,9.897932,-0.566346,-0.071939,9.790019,-0.043195,-0.014866,0.586855,11.76,-19.98,-44.94,204.7732,0.4054,3.3139,55.813995,37.500217,205.0514,NaN,0.0,8.0,,20 / 21,,1019,2021-05-04 15:53:50:429
-0.56026,-0.150839,9.845258,-0.566346,-0.071939,9.790019,-0.035865,-0.00387,0.596629,11.76,-19.98,-44.94,204.7732,0.4054,3.3139,55.813995,37.500217,205.0514,NaN,0.0,8.0,,20 / 21,,1029,2021-05-04 15:53:50:439
-0.565049,-0.181965,9.763853,-0.565408,-0.072955,9.790066,-0.034643,-0.00387,0.60457,11.4,-20.52,-44.88,204.7732,0.4054,3.3139,55.813995,37.500217,205.0514,NaN,0.0,8.0,,20 / 21,,1040,2021-05-04 15:53:50:450
-0.565049,-0.181965,9.763853,-0.565408,-0.072955,9.790066,-0.033421,-0.005092,0.609457,11.4,-20.52,-44.88,204.7732,0.4054,3.3139,55.813995,37.500217,205.0514,NaN,0.0,8.0,,20 / 21,,1050,2021-05-04 15:53:50:460
-0.548289,-0.162811,9.826104,-0.565816,-0.073081,9.790041,-0.033421,-0.005092,0.609457,11.58,-20.76,-45.66,203.6042,0.4262,3.3053,55.813995,37.500217,205.0514,NaN,0.0,8.0,,20 / 21,,1059,2021-05-04 15:53:50:469
-0.59378,-0.148445,9.864412,-0.565816,-0.073081,9.790041,-0.035865,-0.004481,0.614955,11.58,-20.76,-45.66,203.6042,0.4262,3.3053,55.813995,37.500217,205.0514,NaN,0.0,8.0,,20 / 21,,1070,2021-05-04 15:53:50:480
-0.64406,-0.136474,9.842864,-0.565819,-0.072805,9.790043,-0.037697,0.004071,0.622285,12.0,-20.94,-46.14,203.6042,0.4262,3.3053,55.813995,37.500217,205.0514,NaN,0.0,8.0,,20 / 21,,1079,2021-05-04 15:53:50:489
-0.64406,-0.136474,9.842864,-0.565819,-0.072805,9.790043,-0.038919,0.00346,0.633281,12.0,-20.94,-46.14,203.6042,0.4262,3.3053,55.813995,37.500217,205.0514,NaN,0.0,8.0,,20 / 21,,1090,2021-05-04 15:53:50:500
-0.653637,-0.098165,9.785401,-0.567783,-0.073313,9.789925,-0.037697,-0.002038,0.641833,11.04,-20.82,-45.72,201.3126,0.4254,3.3078,55.813995,37.500217,205.0514,NaN,0.0,8.0,,20 / 21,,1099,2021-05-04 15:53:50:509
-0.636877,-0.110137,9.751882,-0.567783,-0.073313,9.789925,-0.040141,-0.006925,0.647942,11.04,-20.82,-45.72,201.3126,0.4254,3.3078,55.813995,37.500217,205.0514,NaN,0.0,8.0,,20 / 21,,1109,2021-05-04 15:53:50:519
-0.634483,-0.134079,9.780613,-0.567953,-0.073734,9.789912,-0.042584,-0.002038,0.658937,10.68,-20.64,-46.2,201.3126,0.4254,3.3078,55.813995,37.500217,205.0514,NaN,0.0,8.0,,20 / 21,,1119,2021-05-04 15:53:50:529
-0.624906,-0.158022,9.816526,-0.567953,-0.073734,9.789912,-0.045638,-0.006925,0.666268,10.68,-20.64,-46.2,201.3126,0.4254,3.3078,55.813995,37.500217,205.0514,NaN,0.0,8.0,,20 / 21,,1129,2021-05-04 15:53:50:539
-0.624906,-0.158022,9.816526,-0.568096,-0.075614,9.789889,-0.048693,-0.014255,0.674209,10.68,-21.18,-46.02,201.285,0.4308,3.3202,55.813995,37.500217,205.0514,NaN,0.0,8.0,,20 / 21,,1140,2021-05-04 15:53:50:550
-0.586597,-0.186753,9.883567,-0.568096,-0.075614,9.789889,-0.048082,-0.011812,0.683983,10.68,-21.18,-46.02,201.285,0.4308,3.3202,55.813995,37.500217,205.0514,NaN,0.0,8.0,,20 / 21,,1149,2021-05-04 15:53:50:559
-0.603357,-0.186753,9.924269,-0.566742,-0.077591,9.789952,-0.043806,0.002849,0.693757,10.86,-21.18,-45.18,201.285,0.4308,3.3202,55.813995,37.500217,205.0514,NaN,0.0,8.0,,20 / 21,,1159,2021-05-04 15:53:50:569
-0.612934,-0.181965,9.842864,-0.566742,-0.077591,9.789952,-0.040141,0.001627,0.70353,10.86,-21.18,-45.18,201.285,0.4308,3.3202,55.813995,37.500217,205.0514,NaN,0.0,8.0,,20 / 21,,1170,2021-05-04 15:53:50:580
-0.605751,-0.153234,9.766247,-0.568302,-0.078038,9.789859,-0.037086,-0.00387,0.709028,10.98,-20.64,-45.6,201.2818,0.4533,3.3132,55.813995,37.500217,205.0514,NaN,0.0,8.0,,20 / 21,,1179,2021-05-04 15:53:50:589
-0.605751,-0.153234,9.766247,-0.568302,-0.078038,9.789859,-0.040141,0.002238,0.716359,10.98,-20.64,-45.6,201.2818,0.4533,3.3132,55.813995,37.500217,205.0514,NaN,0.0,8.0,,20 / 21,,1189,2021-05-04 15:53:50:599
-0.596174,-0.158022,9.751882,-0.569193,-0.077194,9.789814,-0.046249,0.007125,0.725522,10.74,-20.76,-45.96,201.2818,0.4533,3.3132,55.813995,37.500217,205.0514,NaN,0.0,8.0,,20 / 21,,1199,2021-05-04 15:53:50:609
-0.612934,-0.143656,9.744699,-0.569193,-0.077194,9.789814,-0.046249,0.007125,0.725522,10.74,-20.76,-45.96,201.2818,0.4533,3.3132,55.813995,37.500217,205.0514,NaN,0.0,8.0,,20 / 21,,1209,2021-05-04 15:53:50:619
-0.636877,-0.129291,9.785401,-0.571171,-0.077576,9.789696,-0.050525,0.005903,0.731019,11.58,-21.36,-45.48,203.6823,0.451,3.3275,55.813995,37.500217,205.0514,NaN,0.0,8.0,,20 / 21,,1219,2021-05-04 15:53:50:629
-0.603357,-0.160416,9.842864,-0.571171,-0.077576,9.789696,-0.052358,-0.006925,0.741404,11.58,-21.36,-45.48,203.6823,0.451,3.3275,55.813995,37.500217,205.0514,NaN,0.0,8.0,,20 / 21,,1229,2021-05-04 15:53:50:639
-0.603357,-0.160416,9.842864,-0.571482,-0.079554,9.789661,-0.056023,-0.006314,0.749345,11.16,-21.24,-45.3,203.6823,0.451,3.3275,55.813995,37.500217,205.0514,NaN,0.0,8.0,,20 / 21,,1239,2021-05-04 15:53:50:649
-0.584203,-0.165205,9.871595,-0.571482,-0.079554,9.789661,-0.05358,4.06E-4,0.755454,11.16,-21.24,-45.3,203.6823,0.451,3.3275,55.813995,37.500217,205.0514,NaN,0.0,8.0,,20 / 21,,1249,2021-05-04 15:53:50:659
-0.584203,-0.201119,9.845258,-0.57221,-0.081842,9.789599,-0.051136,-0.00326,0.757287,10.8,-21.24,-44.94,201.3639,0.4648,3.3409,55.813995,37.500217,205.0514,NaN,0.0,8.0,,20 / 21,,1259,2021-05-04 15:53:50:669
-0.562655,-0.203513,9.80695,-0.57221,-0.081842,9.789599,-0.048693,-0.008757,0.764617,10.8,-21.24,-44.94,201.3639,0.4648,3.3409,55.813995,37.500217,205.0514,NaN,0.0,8.0,,20 / 21,,1269,2021-05-04 15:53:50:679
-0.569837,-0.22985,9.826104,-0.572348,-0.083199,9.78958,-0.049304,-0.006925,0.770726,11.1,-21.6,-44.88,201.3639,0.4648,3.3409,55.813995,37.500217,205.0514,NaN,0.0,8.0,,20 / 21,,1280,2021-05-04 15:53:50:690
-0.569837,-0.22985,9.826104,-0.572348,-0.083199,9.78958,-0.049914,-0.006314,0.771337,11.1,-21.6,-44.88,201.3639,0.4648,3.3409,55.813995,37.500217,205.0514,NaN,0.0,8.0,,20 / 21,,1289,2021-05-04 15:53:50:699
-0.572232,-0.220273,9.857229,-0.571969,-0.083694,9.789598,-0.05358,-0.009368,0.775613,10.2,-21.78,-44.46,198.3334,0.4861,3.346,55.813995,37.500217,205.0514,NaN,0.0,8.0,,20 / 21,,1299,2021-05-04 15:53:50:709
-0.52674,-0.220273,9.876384,-0.571969,-0.083694,9.789598,-0.051747,-0.008146,0.775613,10.2,-21.78,-44.46,198.3334,0.4861,3.346,55.813995,37.500217,205.0514,NaN,0.0,8.0,,20 / 21,,1310,2021-05-04 15:53:50:720
-0.486038,-0.174782,9.838076,-0.572177,-0.084647,9.789578,-0.04686,-0.004481,0.780499,10.08,-21.96,-44.16,198.3334,0.4861,3.346,55.813995,37.500217,205.0514,NaN,0.0,8.0,,20 / 21,,1319,2021-05-04 15:53:50:729
-0.486038,-0.160416,9.742304,-0.572177,-0.084647,9.789578,-0.048693,0.006514,0.784165,10.08,-21.96,-44.16,198.3334,0.4861,3.346,55.813995,37.500217,205.0514,NaN,0.0,8.0,,20 / 21,,1329,2021-05-04 15:53:50:739
-0.533923,-0.172388,9.751882,-0.573308,-0.085542,9.789504,-0.049914,0.006514,0.785997,10.08,-22.44,-44.22,198.3301,0.4946,3.345,55.813995,37.500217,205.0514,NaN,0.0,8.0,,20 / 21,,1339,2021-05-04 15:53:50:749
-0.533923,-0.172388,9.751882,-0.573308,-0.085542,9.789504,-0.050525,-0.002649,0.790273,10.26,-22.56,-43.86,198.3301,0.4946,3.345,55.813995,37.500217,205.0514,NaN,0.0,8.0,,20 / 21,,1349,2021-05-04 15:53:50:759
-0.572232,-0.184359,9.830893,-0.573442,-0.096022,9.789398,-0.051136,-0.013644,0.793328,10.26,-22.56,-43.86,198.3301,0.4946,3.345,55.813995,37.500217,205.0514,NaN,0.0,8.0,,20 / 21,,1360,2021-05-04 15:53:50:770
-0.617723,-0.179571,9.907509,-0.573442,-0.096022,9.789398,-0.050525,-0.005703,0.800658,10.44,-22.74,-43.74,198.3301,0.4946,3.345,55.813995,37.500217,205.0514,NaN,0.0,8.0,,20 / 21,,1369,2021-05-04 15:53:50:779
-0.56026,-0.203513,9.823709,-0.571169,-0.112866,9.789351,-0.05419,-0.005092,0.804934,10.44,-22.74,-43.74,198.3301,0.4946,3.345,55.813995,37.500217,205.0514,NaN,0.0,8.0,,20 / 21,,1380,2021-05-04 15:53:50:790
-0.541106,-0.205908,9.761458,-0.571169,-0.112866,9.789351,-0.056023,-0.01059,0.810432,10.74,-22.14,-44.04,200.504,0.6594,3.3392,55.813995,37.500217,205.0514,NaN,0.0,8.0,,20 / 21,,1389,2021-05-04 15:53:50:799
-0.541106,-0.205908,9.761458,-0.570812,-0.127637,9.789191,-0.058467,-0.008757,0.814097,10.74,-22.14,-44.04,200.504,0.6594,3.3392,55.813995,37.500217,205.0514,NaN,0.0,8.0,,20 / 21,,1399,2021-05-04 15:53:50:809
-0.567443,-0.253793,9.783007,-0.570812,-0.127637,9.789191,-0.054801,-0.002649,0.820206,10.62,-21.84,-44.46,200.504,0.6594,3.3392,55.813995,37.500217,205.0514,NaN,0.0,8.0,,20 / 21,,1410,2021-05-04 15:53:50:820
-0.581809,-0.239427,9.857229,-0.57036,-0.142252,9.789017,-0.051136,0.001627,0.825704,10.62,-21.84,-44.46,200.504,0.6594,3.3392,55.813995,37.500217,205.0514,NaN,0.0,8.0,,20 / 21,,1419,2021-05-04 15:53:50:829
-0.57702,-0.220273,9.871595,-0.57036,-0.142252,9.789017,-0.048082,-0.00326,0.831812,10.08,-22.44,-44.28,198.152,0.8311,3.3346,55.813995,37.500217,205.0514,NaN,0.0,8.0,,20 / 21,,1429,2021-05-04 15:53:50:839
-0.57702,-0.201119,9.826104,-0.571607,-0.15556,9.788741,-0.049914,0.001016,0.833645,10.08,-22.44,-44.28,198.152,0.8311,3.3346,55.813995,37.500217,205.0514,NaN,0.0,8.0,,20 / 21,,1439,2021-05-04 15:53:50:849
-0.57702,-0.201119,9.826104,-0.571607,-0.15556,9.788741,-0.052969,0.002238,0.845251,9.96,-22.8,-44.58,198.152,0.8311,3.3346,55.813995,37.500217,205.0514,NaN,0.0,8.0,,20 / 21,,1449,2021-05-04 15:53:50:859
-0.569837,-0.21309,9.780613,-0.572583,-0.166258,9.788508,-0.058467,-8.16E-4,0.846473,9.96,-22.8,-44.58,198.152,0.8311,3.3346,55.813995,37.500217,205.0514,NaN,0.0,8.0,,20 / 21,,1459,2021-05-04 15:53:50:869
-0.600963,-0.205908,9.79019,-0.572583,-0.166258,9.788508,-0.058467,-0.009368,0.855025,9.72,-22.86,-45.12,197.1948,0.9714,3.3477,55.813995,37.500217,205.0514,NaN,0.0,8.0,,20 / 21,,1469,2021-05-04 15:53:50:879
-0.579414,-0.244216,9.845258,-0.574192,-0.175788,9.788248,-0.059688,-0.01059,0.860523,9.72,-22.86,-45.12,197.1948,0.9714,3.3477,55.813995,37.500217,205.0514,NaN,0.0,8.0,,20 / 21,,1479,2021-05-04 15:53:50:889
-0.579414,-0.244216,9.845258,-0.574192,-0.175788,9.788248,-0.055412,-8.16E-4,0.862966,9.42,-22.86,-44.76,197.1948,0.9714,3.3477,55.813995,37.500217,205.0514,NaN,0.0,8.0,,20 / 21,,1489,2021-05-04 15:53:50:899
-0.562655,-0.249005,9.859624,-0.57543,-0.184824,9.788008,-0.055412,-0.002649,0.87274,9.42,-22.86,-44.76,197.1948,0.9714,3.3477,55.813995,37.500217,205.0514,NaN,0.0,8.0,,20 / 21,,1499,2021-05-04 15:53:50:909
-0.555472,-0.22985,9.847652,-0.57543,-0.184824,9.788008,-0.052969,-0.00387,0.875184,9.42,-22.8,-44.04,195.0359,1.0799,3.3645,55.813995,37.500217,205.0514,NaN,0.0,8.0,,20 / 21,,1510,2021-05-04 15:53:50:920
-0.476461,-0.260976,9.811738,-0.577996,-0.19317,9.787696,-0.051747,-0.006925,0.876405,9.42,-22.8,-44.04,195.0359,1.0799,3.3645,55.813995,37.500217,205.0514,NaN,0.0,8.0,,20 / 21,,1519,2021-05-04 15:53:50:929
-0.466884,-0.220273,9.783007,-0.577996,-0.19317,9.787696,-0.05358,0.005293,0.881903,9.36,-22.92,-44.1,195.0359,1.0799,3.3645,55.813995,37.500217,205.0514,NaN,0.0,8.0,,20 / 21,,1530,2021-05-04 15:53:50:940
-0.466884,-0.220273,9.783007,-0.57809,-0.201119,9.787531,-0.05358,0.005293,0.881903,9.36,-22.92,-44.1,195.0359,1.0799,3.3645,55.813995,37.500217,205.0514,NaN,0.0,8.0,,20 / 21,,1539,2021-05-04 15:53:50:949
-0.524346,-0.217879,9.775824,-0.57809,-0.201119,9.787531,-0.059688,0.00346,0.887401,9.0,-23.04,-44.22,194.9647,1.1751,3.3802,55.813995,37.500217,205.0514,NaN,0.0,8.0,,20 / 21,,1549,2021-05-04 15:53:50:959
-0.615329,-0.275342,9.842864,-0.57746,-0.20887,9.787405,-0.059688,-0.006925,0.889844,9.0,-23.04,-44.22,194.9647,1.1751,3.3802,55.813995,37.500217,205.0514,NaN,0.0,8.0,,20 / 21,,1559,2021-05-04 15:53:50:969
-0.600963,-0.232245,9.914692,-0.57746,-0.20887,9.787405,-0.058467,-0.013644,0.891066,9.24,-23.1,-44.28,194.9647,1.1751,3.3802,55.813995,37.500217,205.0514,NaN,0.0,8.0,,20 / 21,,1569,2021-05-04 15:53:50:979
-0.600963,-0.232245,9.914692,-0.576201,-0.215964,9.787325,-0.056634,-0.006314,0.897786,9.24,-23.1,-44.28,194.9647,1.1751,3.3802,55.813995,37.500217,205.0514,NaN,0.0,8.0,,20 / 21,,1579,2021-05-04 15:53:50:989
-0.572232,-0.256187,9.840469,-0.576201,-0.215964,9.787325,-0.054801,0.004071,0.898397,9.18,-23.7,-44.58,194.2324,1.2619,3.3692,55.813995,37.500217,205.0514,NaN,0.0,8.0,,20 / 21,,1589,2021-05-04 15:53:50:999
-0.490826,-0.253793,9.742304,-0.575822,-0.2212,9.787231,-0.05358,-0.005703,0.90084,9.18,-23.7,-44.58,194.2324,1.2619,3.3692,55.813995,37.500217,205.0514,NaN,0.0,8.0,,20 / 21,,1600,2021-05-04 15:53:51:010
-0.514769,-0.241822,9.799767,-0.575822,-0.2212,9.787231,-0.056634,-0.015477,0.902062,8.82,-23.82,-44.52,194.2324,1.2619,3.3692,55.813995,37.500217,205.0514,NaN,0.0,8.0,,20 / 21,,1609,2021-05-04 15:53:51:019
-0.450124,-0.342381,9.873989,-0.571831,-0.226158,9.787352,-0.059077,-0.014866,0.900229,8.82,-23.82,-44.52,194.2324,1.2619,3.3692,55.813995,37.500217,205.0514,NaN,0.0,8.0,,20 / 21,,1620,2021-05-04 15:53:51:030
-0.450124,-0.342381,9.873989,-0.571831,-0.226158,9.787352,-0.063353,-0.006314,0.900229,9.3,-23.7,-44.34,194.3884,1.3215,3.3437,55.813995,37.500217,205.0514,NaN,0.0,8.0,,20 / 21,,1629,2021-05-04 15:53:51:039
-0.548289,-0.249005,9.917087,-0.564567,-0.232554,9.787623,-0.058467,0.004071,0.904505,9.3,-23.7,-44.34,194.3884,1.3215,3.3437,55.813995,37.500217,205.0514,NaN,0.0,8.0,,20 / 21,,1639,2021-05-04 15:53:51:049
-0.538712,-0.284919,9.838076,-0.564567,-0.232554,9.787623,-0.051747,-0.005092,0.907559,9.24,-23.64,-43.86,194.3884,1.3215,3.3437,55.813995,37.500217,205.0514,NaN,0.0,8.0,,20 / 21,,1649,2021-05-04 15:53:51:059
-0.502798,-0.251399,9.826104,-0.558485,-0.238305,9.787834,-0.051747,-0.002649,0.903283,9.24,-23.64,-43.86,194.3884,1.3215,3.3437,55.813995,37.500217,205.0514,NaN,0.0,8.0,,20 / 21,,1659,2021-05-04 15:53:51:069
-0.572232,-0.232245,9.761458,-0.558485,-0.238305,9.787834,-0.051747,0.010179,0.907559,8.7,-23.64,-43.68,194.4884,1.3924,3.2657,55.813995,37.500217,205.0514,NaN,0.0,8.0,,20 / 21,,1669,2021-05-04 15:53:51:079
-0.572232,-0.232245,9.761458,-0.553087,-0.24216,9.788046,-0.059077,0.004682,0.909392,8.7,-23.64,-43.68,194.4884,1.3924,3.2657,55.813995,37.500217,205.0514,NaN,0.0,8.0,,20 / 21,,1679,2021-05-04 15:53:51:089
-0.555472,-0.253793,9.675264,-0.553087,-0.24216,9.788046,-0.059077,0.004682,0.909392,8.4,-23.94,-43.74,194.4884,1.3924,3.2657,55.813995,37.500217,205.0514,NaN,0.0,8.0,,20 / 21,,1690,2021-05-04 15:53:51:100
-0.469278,-0.244216,9.811738,-0.55151,-0.245629,9.788049,-0.062132,-0.030138,0.910003,8.4,-23.94,-43.74,194.4884,1.3924,3.2657,55.813995,37.500217,205.0514,NaN,0.0,8.0,,20 / 21,,1699,2021-05-04 15:53:51:109
-0.452518,-0.272947,9.998491,-0.55151,-0.245629,9.788049,-0.065186,0.015066,0.915501,7.98,-23.7,-43.32,192.5184,1.4352,3.2249,55.813995,37.500217,205.0514,NaN,0.0,8.0,,20 / 21,,1710,2021-05-04 15:53:51:120
-0.452518,-0.272947,9.998491,-0.544659,-0.250288,9.788314,-0.065186,0.015066,0.915501,7.98,-23.7,-43.32,192.5184,1.4352,3.2249,55.813995,37.500217,205.0514,NaN,0.0,8.0,,20 / 21,,1719,2021-05-04 15:53:51:129
-0.5435,-0.287313,9.828498,-0.544659,-0.250288,9.788314,-0.060299,0.012623,0.918555,7.38,-23.82,-43.5,192.5184,1.4352,3.2249,55.813995,37.500217,205.0514,NaN,0.0,8.0,,20 / 21,,1730,2021-05-04 15:53:51:140
-0.533923,-0.265764,9.749487,-0.544961,-0.254104,9.788199,-0.049304,-0.01792,0.916112,7.38,-23.82,-43.5,192.5184,1.4352,3.2249,55.813995,37.500217,205.0514,NaN,0.0,8.0,,20 / 21,,1739,2021-05-04 15:53:51:149
-0.541106,-0.28013,9.802161,-0.542885,-0.255124,9.788288,-0.046249,-0.025251,0.916722,7.44,-24.6,-43.92,189.8598,1.4848,3.1867,55.813995,37.500217,205.0514,NaN,0.0,8.0,,20 / 21,,1749,2021-05-04 15:53:51:159
-0.553077,-0.282524,9.835681,-0.542885,-0.255124,9.788288,-0.055412,0.008347,0.923442,7.44,-24.6,-43.92,189.8598,1.4848,3.1867,55.814,37.500225,205.4035,NaN,0.0,8.0,,20 / 21,,1759,2021-05-04 15:53:51:169
-0.52674,-0.260976,9.754275,-0.54258,-0.257545,9.788241,-0.06091,0.012012,0.924053,7.38,-24.36,-43.8,189.8598,1.4848,3.1867,55.814,37.500225,205.4035,NaN,0.0,8.0,,20 / 21,,1769,2021-05-04 15:53:51:179
-0.52674,-0.260976,9.754275,-0.54258,-0.257545,9.788241,-0.060299,-0.019142,0.924664,7.38,-24.36,-43.8,189.8598,1.4848,3.1867,55.814,37.500225,205.4035,NaN,0.0,8.0,,20 / 21,,1779,2021-05-04 15:53:51:189
-0.512375,-0.29689,9.809344,-0.544781,-0.261313,9.788019,-0.063964,-0.02464,0.926496,7.26,-24.06,-44.04,190.2613,1.5049,3.1728,55.814,37.500225,205.4035,NaN,0.0,8.0,,20 / 21,,1789,2021-05-04 15:53:51:199
-0.533923,-0.306467,9.941029,-0.544781,-0.261313,9.788019,-0.062743,0.005903,0.928329,7.26,-24.06,-44.04,190.2613,1.5049,3.1728,55.814,37.500225,205.4035,NaN,0.0,8.0,,20 / 21,,1799,2021-05-04 15:53:51:209
-0.608146,-0.28013,9.847652,-0.540478,-0.265851,9.788136,-0.055412,0.009569,0.926496,7.44,-24.48,-44.28,190.2613,1.5049,3.1728,55.814,37.500225,205.4035,NaN,0.0,8.0,,20 / 21,,1809,2021-05-04 15:53:51:219
-0.608146,-0.28013,9.847652,-0.540478,-0.265851,9.788136,-0.048082,-0.007536,0.927107,7.44,-24.48,-44.28,190.2613,1.5049,3.1728,55.814,37.500225,205.4035,NaN,0.0,8.0,,20 / 21,,1819,2021-05-04 15:53:51:229
-0.555472,-0.234639,9.744699,-0.539247,-0.267488,9.788158,-0.049914,-0.013644,0.931994,6.78,-24.48,-43.92,190.2674,1.5534,3.1605,55.814,37.500225,205.4035,NaN,0.0,8.0,,20 / 21,,1829,2021-05-04 15:53:51:239
-0.493221,-0.28013,9.754275,-0.539247,-0.267488,9.788158,-0.06091,0.001016,0.933216,6.78,-24.48,-43.92,190.2674,1.5534,3.1605,55.814,37.500225,205.4035,NaN,0.0,8.0,,20 / 21,,1840,2021-05-04 15:53:51:250
-0.483643,-0.251399,9.785401,-0.536625,-0.267803,9.788294,-0.06824,0.018121,0.93627,6.72,-24.24,-43.74,190.2674,1.5534,3.1605,55.814,37.500225,205.4035,NaN,0.0,8.0,,20 / 21,,1849,2021-05-04 15:53:51:259
-0.567443,-0.294496,9.794978,-0.536625,-0.267803,9.788294,-0.06824,-0.005092,0.945433,6.72,-24.24,-43.74,190.2674,1.5534,3.1605,55.814,37.500225,205.4035,NaN,0.0,8.0,,20 / 21,,1859,2021-05-04 15:53:51:269
-0.567443,-0.294496,9.794978,-0.540604,-0.270885,9.787991,-0.070073,-0.016088,0.943601,6.78,-24.06,-43.74,190.3023,1.5648,3.138,55.814,37.500225,205.4035,NaN,0.0,8.0,,20 / 21,,1869,2021-05-04 15:53:51:279
-0.557866,-0.356747,9.909904,-0.540604,-0.270885,9.787991,-0.064575,-0.006925,0.947266,6.78,-24.06,-43.74,190.3023,1.5648,3.138,55.814,37.500225,205.4035,NaN,0.0,8.0,,20 / 21,,1879,2021-05-04 15:53:51:289
-0.586597,-0.342381,9.98652,-0.541866,-0.275226,9.787799,-0.057856,-8.16E-4,0.947266,5.94,-24.54,-44.16,190.3023,1.5648,3.138,55.814,37.500225,205.4035,NaN,0.0,8.0,,20 / 21,,1890,2021-05-04 15:53:51:300
-0.495615,-0.332804,9.931452,-0.541866,-0.275226,9.787799,-0.057856,-8.16E-4,0.947266,5.94,-24.54,-44.16,190.3023,1.5648,3.138,55.814,37.500225,205.4035,NaN,0.0,8.0,,20 / 21,,1899,2021-05-04 15:53:51:309
-0.507586,-0.320833,9.852441,-0.544156,-0.280112,9.787534,-0.045638,-0.013033,0.952764,6.06,-25.14,-44.4,187.7255,1.6082,3.1687,55.814,37.500225,205.4035,NaN,0.0,8.0,,20 / 21,,1909,2021-05-04 15:53:51:319
-0.524346,-0.270553,9.751882,-0.544156,-0.280112,9.787534,-0.043195,-8.16E-4,0.953985,6.06,-25.14,-44.4,187.7255,1.6082,3.1687,55.814,37.500225,205.4035,NaN,0.0,8.0,,20 / 21,,1919,2021-05-04 15:53:51:329
-0.524346,-0.270553,9.751882,-0.544896,-0.283076,9.787407,-0.051136,0.008958,0.955818,6.3,-24.42,-43.74,187.7255,1.6082,3.1687,55.814,37.500225,205.4035,NaN,0.0,8.0,,20 / 21,,1929,2021-05-04 15:53:51:339
-0.562655,-0.265764,9.615408,-0.544896,-0.283076,9.787407,-0.059688,0.001016,0.960705,6.3,-24.42,-43.74,187.7255,1.6082,3.1687,55.814,37.500225,205.4035,NaN,0.0,8.0,,20 / 21,,1939,2021-05-04 15:53:51:349
-0.574626,-0.222668,9.677659,-0.548816,-0.285098,9.787129,-0.068851,-0.006314,0.961926,5.58,-23.64,-43.56,187.9861,1.6541,3.1865,55.814,37.500225,205.4035,NaN,0.0,8.0,,20 / 21,,1949,2021-05-04 15:53:51:359
-0.562655,-0.272947,9.821315,-0.548816,-0.285098,9.787129,-0.074349,-0.009979,0.96437,5.58,-23.64,-43.56,187.9861,1.6541,3.1865,55.814,37.500225,205.4035,NaN,0.0,8.0,,20 / 21,,1959,2021-05-04 15:53:51:369
-0.56026,-0.332804,9.941029,-0.55106,-0.286455,9.786964,-0.073738,-0.005092,0.966813,5.22,-24.0,-43.86,187.9861,1.6541,3.1865,55.814,37.500225,205.4035,NaN,0.0,8.0,,20 / 21,,1969,2021-05-04 15:53:51:379
-0.529135,-0.325621,9.972155,-0.55106,-0.286455,9.786964,-0.069462,-0.005092,0.968035,5.22,-24.0,-43.86,187.9861,1.6541,3.1865,55.814,37.500225,205.4035,NaN,0.0,8.0,,20 / 21,,1980,2021-05-04 15:53:51:390
-0.529135,-0.325621,9.972155,-0.554081,-0.289433,9.786706,-0.063964,-0.014255,0.969868,5.34,-24.3,-43.68,185.6892,1.6739,3.2227,55.814,37.500225,205.4035,NaN,0.0,8.0,,20 / 21,,1989,2021-05-04 15:53:51:399
-0.538712,-0.375901,9.91948,-0.554081,-0.289433,9.786706,-0.055412,-0.008146,0.974144,5.34,-24.3,-43.68,185.6892,1.6739,3.2227,55.814,37.500225,205.4035,NaN,0.0,8.0,,20 / 21,,1999,2021-05-04 15:53:51:409
-0.555472,-0.316044,9.823709,-0.553748,-0.292227,9.786642,-0.052969,0.002849,0.975365,4.98,-24.6,-42.96,185.6892,1.6739,3.2227,55.814,37.500225,205.4035,NaN,0.0,8.0,,20 / 21,,2009,2021-05-04 15:53:51:419
-0.574626,-0.294496,9.694419,-0.553748,-0.292227,9.786642,-0.050525,0.004071,0.979031,4.98,-24.6,-42.96,185.6892,1.6739,3.2227,55.814,37.500225,205.4035,NaN,0.0,8.0,,20 / 21,,2020,2021-05-04 15:53:51:430
-0.61054,-0.301679,9.670476,-0.557231,-0.294551,9.786374,-0.057856,-0.002649,0.984528,4.74,-24.6,-43.26,185.5707,1.7076,3.2385,55.814,37.500225,205.4035,NaN,0.0,8.0,,20 / 21,,2029,2021-05-04 15:53:51:439
-0.61054,-0.301679,9.670476,-0.557231,-0.294551,9.786374,-0.067629,-0.00387,0.990026,4.74,-24.6,-43.26,185.5707,1.7076,3.2385,55.814,37.500225,205.4035,NaN,0.0,8.0,,20 / 21,,2039,2021-05-04 15:53:51:449
-0.624906,-0.31365,9.735122,-0.562755,-0.297559,9.785968,-0.076182,-0.009979,0.994913,4.44,-24.06,-43.68,185.5707,1.7076,3.2385,55.814,37.500225,205.4035,NaN,0.0,8.0,,20 / 21,,2050,2021-05-04 15:53:51:460
-0.615329,-0.332804,9.883567,-0.562755,-0.297559,9.785968,-0.07496,-0.011812,0.997968,4.44,-24.06,-43.68,185.5707,1.7076,3.2385,55.814,37.500225,205.4035,NaN,0.0,8.0,,20 / 21,,2059,2021-05-04 15:53:51:469
-0.574626,-0.342381,9.950606,-0.568753,-0.302988,9.785454,-0.068851,-0.007536,1.004076,3.48,-24.48,-44.1,181.0608,1.7388,3.2912,55.814,37.500225,205.4035,NaN,0.0,8.0,,20 / 21,,2069,2021-05-04 15:53:51:479
-0.541106,-0.323227,9.91948,-0.568753,-0.302988,9.785454,-0.058467,-0.005092,1.008963,3.48,-24.48,-44.1,181.0608,1.7388,3.2912,55.814,37.500225,205.4035,NaN,0.0,8.0,,20 / 21,,2080,2021-05-04 15:53:51:490
-0.514769,-0.33041,9.811738,-0.572883,-0.3074,9.785075,-0.05419,-0.00326,1.012628,3.12,-24.9,-44.04,181.0608,1.7388,3.2912,55.814,37.500225,205.4035,NaN,0.0,8.0,,20 / 21,,2090,2021-05-04 15:53:51:500
-0.557866,-0.318439,9.763853,-0.572883,-0.3074,9.785075,-0.052358,-0.001427,1.016293,3.12,-24.9,-44.04,181.0608,1.7388,3.2912,55.814,37.500225,205.4035,NaN,0.0,8.0,,20 / 21,,2100,2021-05-04 15:53:51:510
-0.557866,-0.318439,9.763853,-0.57517,-0.309317,9.784881,-0.057856,-0.00387,1.019959,2.94,-24.54,-44.04,180.9195,1.7963,3.3506,55.814,37.500225,205.4035,NaN,0.0,8.0,,20 / 21,,2109,2021-05-04 15:53:51:519
-0.600963,-0.323227,9.735122,-0.57517,-0.309317,9.784881,-0.063964,0.002238,1.026678,2.94,-24.54,-44.04,180.9195,1.7963,3.3506,55.814,37.500225,205.4035,NaN,0.0,8.0,,20 / 21,,2119,2021-05-04 15:53:51:529
-0.632089,-0.332804,9.75667,-0.5774,-0.311512,9.784679,-0.069462,0.002849,1.028511,3.06,-24.6,-44.04,180.9195,1.7963,3.3506,55.814,37.500225,205.4035,NaN,0.0,8.0,,20 / 21,,2129,2021-05-04 15:53:51:539
-0.622511,-0.368718,9.811738,-0.5774,-0.311512,9.784679,-0.069462,0.002849,1.028511,3.06,-24.6,-44.04,180.9195,1.7963,3.3506,55.814,37.500225,205.4035,NaN,0.0,8.0,,20 / 21,,2140,2021-05-04 15:53:51:550
-0.622511,-0.342381,9.897932,-0.582909,-0.316128,9.784205,-0.073127,-0.00387,1.037063,3.42,-24.48,-43.74,180.909,1.8203,3.3771,55.814,37.500225,205.4035,NaN,0.0,8.0,,20 / 21,,2150,2021-05-04 15:53:51:560
-0.622511,-0.342381,9.897932,-0.582909,-0.316128,9.784205,-0.069462,-0.009979,1.040117,3.42,-24.48,-43.74,180.909,1.8203,3.3771,55.814,37.500225,205.4035,NaN,0.0,8.0,,20 / 21,,2159,2021-05-04 15:53:51:569
-0.588992,-0.36393,9.897932,-0.588662,-0.321542,9.783685,-0.062743,-0.006925,1.046837,3.06,-24.36,-44.16,180.909,1.8203,3.3771,55.814,37.500225,205.4035,NaN,0.0,8.0,,20 / 21,,2170,2021-05-04 15:53:51:580
-0.557866,-0.328016,9.830893,-0.588662,-0.321542,9.783685,-0.057245,-0.002649,1.049891,3.06,-24.36,-44.16,180.909,1.8203,3.3771,55.814,37.500225,205.4035,NaN,0.0,8.0,,20 / 21,,2179,2021-05-04 15:53:51:589
-0.550683,-0.325621,9.766247,-0.593517,-0.324142,9.783305,-0.063964,-0.002649,1.056,2.64,-25.32,-44.22,180.7629,1.879,3.4432,55.814,37.500225,205.4035,NaN,0.0,8.0,,20 / 21,,2189,2021-05-04 15:53:51:599
-0.550683,-0.325621,9.766247,-0.593517,-0.324142,9.783305,-0.064575,-0.00387,1.055389,2.64,-25.32,-44.22,180.7629,1.879,3.4432,55.814,37.500225,205.4035,NaN,0.0,8.0,,20 / 21,,2199,2021-05-04 15:53:51:609
-0.584203,-0.344776,9.794978,-0.595852,-0.325781,9.783109,-0.06824,-0.00387,1.062719,2.7,-25.38,-43.74,180.7629,1.879,3.4432,55.814,37.500225,205.4035,NaN,0.0,8.0,,20 / 21,,2210,2021-05-04 15:53:51:620
-0.608146,-0.371113,9.857229,-0.595852,-0.325781,9.783109,-0.070684,-0.006925,1.064552,2.7,-25.38,-43.74,180.7629,1.879,3.4432,55.814,37.500225,205.4035,NaN,0.0,8.0,,20 / 21,,2220,2021-05-04 15:53:51:630
-0.629694,-0.356747,9.838076,-0.596846,-0.32882,9.782946,-0.069462,-0.002649,1.068217,2.76,-24.3,-43.32,180.8572,1.9037,3.4854,55.814,37.500225,205.4035,NaN,0.0,8.0,,20 / 21,,2230,2021-05-04 15:53:51:640
-0.629694,-0.390267,9.809344,-0.596846,-0.32882,9.782946,-0.067019,-0.002649,1.073104,2.76,-24.3,-43.32,180.8572,1.9037,3.4854,55.814,37.500225,205.4035,NaN,0.0,8.0,,20 / 21,,2239,2021-05-04 15:53:51:649
-0.629694,-0.390267,9.809344,-0.599902,-0.332569,9.782633,-0.065186,-0.00326,1.074326,1.98,-23.7,-43.14,180.8572,1.9037,3.4854,55.814,37.500225,205.4035,NaN,0.0,8.0,,20 / 21,,2250,2021-05-04 15:53:51:660
-0.600963,-0.387873,9.778218,-0.599902,-0.332569,9.782633,-0.067019,-0.011201,1.079824,1.98,-23.7,-43.14,180.8572,1.9037,3.4854,55.814,37.500225,205.4035,NaN,0.0,8.0,,20 / 21,,2259,2021-05-04 15:53:51:669
-0.591386,-0.373507,9.840469,-0.603983,-0.336449,9.782249,-0.067629,-0.008757,1.085321,1.86,-24.06,-42.96,178.5689,1.9434,3.5092,55.814,37.500225,205.4035,NaN,0.0,8.0,,20 / 21,,2269,2021-05-04 15:53:51:679
-0.557866,-0.366324,9.873989,-0.603983,-0.336449,9.782249,-0.067629,-0.004481,1.090819,1.86,-24.06,-42.96,178.5689,1.9434,3.5092,55.814,37.500225,205.4035,NaN,0.0,8.0,,20 / 21,,2279,2021-05-04 15:53:51:689
-0.569837,-0.359141,9.826104,-0.607464,-0.340696,9.781887,-0.070073,-0.005703,1.090819,1.8,-23.76,-43.74,178.5689,1.9434,3.5092,55.814,37.500225,205.4035,NaN,0.0,8.0,,20 / 21,,2290,2021-05-04 15:53:51:700
-0.569837,-0.359141,9.826104,-0.607464,-0.340696,9.781887,-0.067629,-0.005092,1.093262,1.8,-23.76,-43.74,178.5689,1.9434,3.5092,55.814,37.500225,205.4035,NaN,0.0,8.0,,20 / 21,,2300,2021-05-04 15:53:51:710
-0.579414,-0.359141,9.761458,-0.609441,-0.343838,9.781653,-0.073127,-0.006314,1.098149,1.62,-23.46,-43.32,178.4346,1.9909,3.5536,55.814,37.500225,205.4035,NaN,0.0,8.0,,20 / 21,,2310,2021-05-04 15:53:51:720
-0.591386,-0.375901,9.809344,-0.609441,-0.343838,9.781653,-0.071906,-0.002038,1.10548,1.62,-23.46,-43.32,178.4346,1.9909,3.5536,55.814,37.500225,205.4035,NaN,0.0,8.0,,20 / 21,,2319,2021-05-04 15:53:51:729
-0.584203,-0.36393,9.847652,-0.610791,-0.346879,9.781462,-0.072516,-0.006314,1.104258,1.86,-23.94,-42.78,178.4346,1.9909,3.5536,55.814,37.500225,205.4035,NaN,0.0,8.0,,20 / 21,,2329,2021-05-04 15:53:51:739
-0.596174,-0.399844,9.826104,-0.610791,-0.346879,9.781462,-0.071295,0.004071,1.112199,1.86,-23.94,-42.78,178.4346,1.9909,3.5536,55.814,37.500225,205.4035,NaN,0.0,8.0,,20 / 21,,2339,2021-05-04 15:53:51:749
-0.596174,-0.399844,9.826104,-0.613188,-0.349978,9.781201,-0.071906,0.004682,1.115254,1.14,-23.82,-43.2,176.2274,2.0271,3.5731,55.814,37.500225,205.4035,NaN,0.0,8.0,,20 / 21,,2349,2021-05-04 15:53:51:759
-0.59378,-0.402238,9.828498,-0.613188,-0.349978,9.781201,-0.071295,-0.00387,1.122584,1.14,-23.82,-43.2,176.2274,2.0271,3.5731,55.814,37.500225,205.4035,NaN,0.0,8.0,,20 / 21,,2359,2021-05-04 15:53:51:769
-0.596174,-0.423787,9.864412,-0.618169,-0.354211,9.780735,-0.070684,-0.009368,1.125027,0.66,-23.94,-43.74,176.2274,2.0271,3.5731,55.814,37.500225,205.4035,NaN,0.0,8.0,,20 / 21,,2369,2021-05-04 15:53:51:779
-0.581809,-0.416604,9.857229,-0.618169,-0.354211,9.780735,-0.070073,-0.005092,1.136023,0.66,-23.94,-43.74,176.2274,2.0271,3.5731,55.814,37.500225,205.4035,NaN,0.0,8.0,,20 / 21,,2379,2021-05-04 15:53:51:789
-0.581809,-0.416604,9.857229,-0.621895,-0.359891,9.780293,-0.069462,-0.007536,1.134191,0.78,-24.48,-43.92,176.0242,2.0699,3.6164,55.814,37.500225,205.4035,NaN,0.0,8.0,,20 / 21,,2389,2021-05-04 15:53:51:799
-0.586597,-0.383084,9.830893,-0.621895,-0.359891,9.780293,-0.068851,-0.00326,1.139688,0.78,-24.48,-43.92,176.0242,2.0699,3.6164,55.814,37.500225,205.4035,NaN,0.0,8.0,,20 / 21,,2399,2021-05-04 15:53:51:809
-0.581809,-0.385478,9.816526,-0.624498,-0.364928,9.77994,-0.06824,-8.16E-4,1.142132,0.78,-24.06,-43.68,176.0242,2.0699,3.6164,55.814,37.500225,205.4035,NaN,0.0,8.0,,20 / 21,,2409,2021-05-04 15:53:51:819
-0.64406,-0.368718,9.785401,-0.624498,-0.364928,9.77994,-0.068851,0.002849,1.14824,0.78,-24.06,-43.68,176.0242,2.0699,3.6164,55.814,37.500225,205.4035,NaN,0.0,8.0,,20 / 21,,2419,2021-05-04 15:53:51:829
-0.670397,-0.375901,9.735122,-0.626807,-0.368275,9.779666,-0.069462,0.001627,1.148851,0.6,-24.12,-43.26,176.1041,2.1326,3.6537,55.814,37.500225,205.4035,NaN,0.0,8.0,,20 / 21,,2429,2021-05-04 15:53:51:839
-0.66082,-0.383084,9.761458,-0.626807,-0.368275,9.779666,-0.07496,-0.007536,1.153738,0.6,-24.12,-43.26,176.1041,2.1326,3.6537,55.814,37.500225,205.4035,NaN,0.0,8.0,,20 / 21,,2439,2021-05-04 15:53:51:849
-0.6273,-0.433364,9.869201,-0.629605,-0.371668,9.779358,-0.076792,-0.017309,1.156182,1.26,-23.94,-43.68,176.1041,2.1326,3.6537,55.814,37.500225,205.4035,NaN,0.0,8.0,,20 / 21,,2450,2021-05-04 15:53:51:860
-0.6273,-0.433364,9.869201,-0.629605,-0.371668,9.779358,-0.079847,-0.011201,1.158014,1.26,-23.94,-43.68,176.1041,2.1326,3.6537,55.814,37.500225,205.4035,NaN,0.0,8.0,,20 / 21,,2459,2021-05-04 15:53:51:869
-0.557866,-0.435758,9.945818,-0.630111,-0.376603,9.779137,-0.072516,-0.008146,1.162901,1.02,-23.28,-44.58,175.6148,2.172,3.6837,55.814,37.500225,205.4035,NaN,0.0,8.0,,20 / 21,,2469,2021-05-04 15:53:51:879
-0.538712,-0.383084,9.907509,-0.630111,-0.376603,9.779137,-0.063964,-0.002649,1.164123,1.02,-23.28,-44.58,175.6148,2.172,3.6837,55.814,37.500225,205.4035,NaN,0.0,8.0,,20 / 21,,2480,2021-05-04 15:53:51:890
-0.545895,-0.390267,9.699207,-0.629302,-0.380757,9.779028,-0.060299,0.001016,1.167177,-0.36,-23.1,-44.1,175.6148,2.172,3.6837,55.814,37.500225,205.4035,NaN,0.0,8.0,,20 / 21,,2489,2021-05-04 15:53:51:899
-0.545895,-0.390267,9.699207,-0.629302,-0.380757,9.779028,-0.065186,4.06E-4,1.167177,-0.36,-23.1,-44.1,175.6148,2.172,3.6837,55.814,37.500225,205.4035,NaN,0.0,8.0,,20 / 21,,2499,2021-05-04 15:53:51:909
-0.603357,-0.383084,9.601042,-0.630046,-0.381828,9.778938,-0.070684,-0.002649,1.169621,-1.14,-23.22,-43.56,171.1951,2.2251,3.682,55.814,37.500225,205.4035,NaN,0.0,8.0,,20 / 21,,2509,2021-05-04 15:53:51:919
-0.653637,-0.409421,9.72315,-0.630046,-0.381828,9.778938,-0.080458,-0.011201,1.173286,-1.14,-23.22,-43.56,171.1951,2.2251,3.682,55.814,37.500225,205.4035,NaN,0.0,8.0,,20 / 21,,2519,2021-05-04 15:53:51:929
-0.620117,-0.450124,9.917087,-0.631145,-0.384483,9.778763,-0.085955,-0.019142,1.176951,-0.9,-23.22,-43.5,171.1951,2.2251,3.682,55.814,37.500225,205.4035,NaN,0.0,8.0,,20 / 21,,2529,2021-05-04 15:53:51:939
-0.553077,-0.416604,10.027223,-0.631145,-0.384483,9.778763,-0.081069,-0.017309,1.179395,-0.9,-23.22,-43.5,171.1951,2.2251,3.682,55.814,37.500225,205.4035,NaN,0.0,8.0,,20 / 21,,2539,2021-05-04 15:53:51:949
-0.507586,-0.418998,9.864412,-0.62958,-0.389587,9.778662,-0.074349,-2.05E-4,1.182449,-0.42,-22.56,-43.32,173.5932,2.2469,3.6929,55.814,37.500225,205.4035,NaN,0.0,8.0,,20 / 21,,2549,2021-05-04 15:53:51:959
-0.507586,-0.418998,9.864412,-0.62958,-0.389587,9.778662,-0.065797,4.06E-4,1.183671,-0.42,-22.56,-43.32,173.5932,2.2469,3.6929,55.814,37.500225,205.4035,NaN,0.0,8.0,,20 / 21,,2559,2021-05-04 15:53:51:969
-0.509981,-0.375901,9.72315,-0.628281,-0.392685,9.778622,-0.063353,-0.005092,1.180005,-0.42,-22.08,-43.38,173.5932,2.2469,3.6929,55.814,37.500225,205.4035,NaN,0.0,8.0,,20 / 21,,2569,2021-05-04 15:53:51:979
-0.5435,-0.402238,9.708784,-0.628281,-0.392685,9.778622,-0.063353,-0.005092,1.180005,-0.42,-22.08,-43.38,173.5932,2.2469,3.6929,55.814,37.500225,205.4035,NaN,0.0,8.0,,20 / 21,,2579,2021-05-04 15:53:51:989
-0.588992,-0.423787,9.783007,-0.623736,-0.393516,9.778879,-0.067629,-0.004481,1.187336,-0.24,-22.62,-43.38,173.6308,2.2949,3.6762,55.814,37.500225,205.4035,NaN,0.0,8.0,,20 / 21,,2590,2021-05-04 15:53:52:000
-0.572232,-0.404632,9.842864,-0.623736,-0.393516,9.778879,-0.074349,0.00346,1.189168,-0.24,-22.62,-43.38,173.6308,2.2949,3.6762,55.814,37.500225,205.4035,NaN,0.0,8.0,,20 / 21,,2599,2021-05-04 15:53:52:009
-0.591386,-0.409421,9.862018,-0.620908,-0.396164,9.778953,-0.079236,-8.16E-4,1.189779,-0.96,-22.68,-43.68,173.6308,2.2949,3.6762,55.814,37.500225,205.4035,NaN,0.0,8.0,,20 / 21,,2609,2021-05-04 15:53:52:019
-0.591386,-0.409421,9.862018,-0.620908,-0.396164,9.778953,-0.078014,-0.002649,1.191001,-0.96,-22.68,-43.68,173.6308,2.2949,3.6762,55.814,37.500225,205.4035,NaN,0.0,8.0,,20 / 21,,2619,2021-05-04 15:53:52:029
-0.615329,-0.418998,9.828498,-0.621505,-0.399581,9.778776,-0.076792,-0.00387,1.195277,-1.44,-22.08,-43.68,170.9436,2.3152,3.6331,55.814,37.500225,205.4035,NaN,0.0,8.0,,20 / 21,,2630,2021-05-04 15:53:52:040
-0.658426,-0.392661,9.797373,-0.621505,-0.399581,9.778776,-0.073127,-0.008146,1.196499,-1.44,-22.08,-43.68,170.9436,2.3152,3.6331,55.814,37.500225,205.4035,NaN,0.0,8.0,,20 / 21,,2639,2021-05-04 15:53:52:049
-0.6273,-0.421392,9.77343,-0.622191,-0.401799,9.778642,-0.071295,-0.006314,1.195888,-1.38,-21.54,-43.02,170.9436,2.3152,3.6331,55.814,37.500225,205.4035,NaN,0.0,8.0,,20 / 21,,2649,2021-05-04 15:53:52:059
-0.529135,-0.416604,9.828498,-0.622191,-0.401799,9.778642,-0.072516,-0.01059,1.19772,-1.38,-21.54,-43.02,170.9436,2.3152,3.6331,55.814,37.500225,205.4035,NaN,0.0,8.0,,20 / 21,,2660,2021-05-04 15:53:52:070
-0.529135,-0.416604,9.828498,-0.621936,-0.403002,9.778607,-0.077403,-0.005092,1.19711,-1.14,-21.48,-43.38,170.6879,2.3482,3.6407,55.814,37.500225,205.4035,NaN,0.0,8.0,,20 / 21,,2669,2021-05-04 15:53:52:079
-0.517163,-0.41421,9.840469,-0.621936,-0.403002,9.778607,-0.078625,0.002238,1.195888,-1.14,-21.48,-43.38,170.6879,2.3482,3.6407,55.814,37.500225,205.4035,NaN,0.0,8.0,,20 / 21,,2679,2021-05-04 15:53:52:089
-0.567443,-0.423787,9.804555,-0.621158,-0.404801,9.778584,-0.075571,-2.05E-4,1.201386,-1.26,-21.78,-44.34,170.6879,2.3482,3.6407,55.814,37.500225,205.4035,NaN,0.0,8.0,,20 / 21,,2689,2021-05-04 15:53:52:099
-0.569837,-0.469278,9.761458,-0.621158,-0.404801,9.778584,-0.07496,-0.006925,1.206273,-1.26,-21.78,-44.34,170.6879,2.3482,3.6407,55.814,37.500225,205.4035,NaN,0.0,8.0,,20 / 21,,2700,2021-05-04 15:53:52:110
-0.591386,-0.426181,9.862018,-0.619221,-0.407205,9.778606,-0.071295,-0.004481,1.205662,-1.86,-21.6,-44.22,168.6261,2.3657,3.6347,55.814,37.500225,205.4035,NaN,0.0,8.0,,20 / 21,,2709,2021-05-04 15:53:52:119
-0.591386,-0.426181,9.862018,-0.619221,-0.407205,9.778606,-0.069462,-0.002649,1.209327,-1.86,-21.6,-44.22,168.6261,2.3657,3.6347,55.814,37.500225,205.4035,NaN,0.0,8.0,,20 / 21,,2719,2021-05-04 15:53:52:129
-0.598569,-0.435758,9.893144,-0.619027,-0.409298,9.778531,-0.065186,4.06E-4,1.208716,-2.28,-21.54,-43.8,168.6261,2.3657,3.6347,55.814,37.500225,205.4035,NaN,0.0,8.0,,20 / 21,,2729,2021-05-04 15:53:52:139
-0.636877,-0.440547,9.814133,-0.619027,-0.409298,9.778531,-0.070073,-8.16E-4,1.207494,-2.28,-21.54,-43.8,168.6261,2.3657,3.6347,55.814,37.500225,205.4035,NaN,0.0,8.0,,20 / 21,,2739,2021-05-04 15:53:52:149
-0.646454,-0.373507,9.699207,-0.622054,-0.410446,9.778291,-0.076182,-0.004481,1.21177,-2.7,-21.0,-43.86,165.7931,2.392,3.6223,55.814,37.500225,205.4035,NaN,0.0,8.0,,21 / 21,,2750,2021-05-04 15:53:52:160
-0.670397,-0.435758,9.747093,-0.622054,-0.410446,9.778291,-0.078014,-0.004481,1.214214,-2.7,-21.0,-43.86,165.7931,2.392,3.6223,55.814,37.50023,205.5777,NaN,0.0,8.0,,21 / 21,,2759,2021-05-04 15:53:52:169
-0.670397,-0.435758,9.747093,-0.626879,-0.410627,9.777975,-0.081069,-0.009979,1.219101,-2.58,-20.64,-43.92,165.7931,2.392,3.6223,55.814,37.50023,205.5777,NaN,0.0,8.0,,21 / 21,,2770,2021-05-04 15:53:52:180
-0.651243,-0.433364,9.852441,-0.626879,-0.410627,9.777975,-0.081069,-0.009979,1.219101,-2.58,-20.64,-43.92,165.7931,2.392,3.6223,55.814,37.50023,205.5777,NaN,0.0,8.0,,21 / 21,,2779,2021-05-04 15:53:52:189
-0.605751,-0.395055,9.895537,-0.631426,-0.411527,9.777644,-0.079847,-0.013644,1.220933,-2.52,-20.7,-43.74,165.7136,2.3998,3.6683,55.814,37.50023,205.5777,NaN,0.0,8.0,,21 / 21,,2789,2021-05-04 15:53:52:199
-0.603357,-0.438152,9.771035,-0.631426,-0.411527,9.777644,-0.076182,-0.001427,1.225209,-2.52,-20.7,-43.74,165.7136,2.3998,3.6683,55.814,37.50023,205.5777,NaN,0.0,8.0,,21 / 21,,2799,2021-05-04 15:53:52:209
-0.612934,-0.426181,9.718362,-0.635736,-0.411743,9.777356,-0.076182,-0.001427,1.225209,-3.18,-20.22,-43.32,165.7136,2.3998,3.6683,55.814,37.50023,205.5777,NaN,0.0,8.0,,21 / 21,,2809,2021-05-04 15:53:52:219
-0.565049,-0.498009,9.785401,-0.635736,-0.411743,9.777356,-0.079847,-0.008146,1.23254,-3.18,-20.22,-43.32,165.7136,2.3998,3.6683,55.814,37.50023,205.5777,NaN,0.0,8.0,,21 / 21,,2820,2021-05-04 15:53:52:230
-0.565049,-0.498009,9.785401,-0.64019,-0.413176,9.777005,-0.079847,-0.008146,1.23254,-2.94,-19.98,-43.32,165.1255,2.4063,3.7202,55.814,37.50023,205.5777,NaN,0.0,8.0,,21 / 21,,2829,2021-05-04 15:53:52:239
-0.605751,-0.447729,9.962578,-0.64019,-0.413176,9.777005,-0.079847,-0.004481,1.234983,-2.94,-19.98,-43.32,165.1255,2.4063,3.7202,55.814,37.50023,205.5777,NaN,0.0,8.0,,21 / 21,,2839,2021-05-04 15:53:52:249
-0.591386,-0.478855,9.964972,-0.641854,-0.417512,9.776712,-0.076182,0.002238,1.236205,-2.76,-19.92,-43.68,165.1255,2.4063,3.7202,55.814,37.50023,205.5777,NaN,0.0,8.0,,21 / 21,,2849,2021-05-04 15:53:52:259
-0.600963,-0.490826,9.809344,-0.641854,-0.417512,9.776712,-0.064575,0.001627,1.236205,-2.76,-19.92,-43.68,165.1255,2.4063,3.7202,55.814,37.50023,205.5777,NaN,0.0,8.0,,21 / 21,,2859,2021-05-04 15:53:52:269
-0.6273,-0.430969,9.732727,-0.642824,-0.420071,9.776539,-0.067629,-0.005703,1.237427,-3.12,-19.62,-43.68,164.9431,2.4401,3.7562,55.814,37.50023,205.5777,NaN,0.0,8.0,,21 / 21,,2869,2021-05-04 15:53:52:279
-0.6273,-0.430969,9.732727,-0.642824,-0.420071,9.776539,-0.067629,-0.00326,1.242314,-3.12,-19.62,-43.68,164.9431,2.4401,3.7562,55.814,37.50023,205.5777,NaN,0.0,8.0,,21 / 21,,2879,2021-05-04 15:53:52:289
-0.689551,-0.445335,9.787795,-0.644307,-0.421914,9.776361,-0.073127,0.001627,1.242314,-3.36,-19.68,-43.74,164.9431,2.4401,3.7562,55.814,37.50023,205.5777,NaN,0.0,8.0,,21 / 21,,2890,2021-05-04 15:53:52:300
-0.670397,-0.442941,9.797373,-0.644307,-0.421914,9.776361,-0.073127,-0.00387,1.244757,-3.36,-19.68,-43.74,164.9431,2.4401,3.7562,55.814,37.50023,205.5777,NaN,0.0,8.0,,21 / 21,,2899,2021-05-04 15:53:52:309
-0.653637,-0.368718,9.809344,-0.648086,-0.424085,9.776018,-0.074349,-0.011201,1.244146,-3.54,-19.44,-43.62,161.7345,2.4658,3.7706,55.814,37.50023,205.5777,NaN,0.0,8.0,,21 / 21,,2909,2021-05-04 15:53:52:319
-0.6273,-0.426181,9.775824,-0.648086,-0.424085,9.776018,-0.077403,-0.006314,1.245368,-3.54,-19.44,-43.62,161.7345,2.4658,3.7706,55.814,37.50023,205.5777,NaN,0.0,8.0,,21 / 21,,2920,2021-05-04 15:53:52:330
-0.6273,-0.426181,9.775824,-0.649872,-0.424408,9.775885,-0.078625,-8.16E-4,1.242925,-3.06,-18.78,-43.2,161.7345,2.4658,3.7706,55.814,37.50023,205.5777,NaN,0.0,8.0,,21 / 21,,2929,2021-05-04 15:53:52:339
-0.608146,-0.395055,9.787795,-0.649872,-0.424408,9.775885,-0.077403,-0.005703,1.247201,-3.06,-18.78,-43.2,161.7345,2.4658,3.7706,55.814,37.50023,205.5777,NaN,0.0,8.0,,21 / 21,,2940,2021-05-04 15:53:52:350
-0.59378,-0.402238,9.75667,-0.653478,-0.42318,9.775698,-0.078014,-0.01792,1.247811,-3.12,-18.66,-43.14,164.3244,2.4804,3.8033,55.814,37.50023,205.5777,NaN,0.0,8.0,,21 / 21,,2949,2021-05-04 15:53:52:359
-0.624906,-0.457306,9.826104,-0.653478,-0.42318,9.775698,-0.081069,-0.00326,1.249033,-3.12,-18.66,-43.14,164.3244,2.4804,3.8033,55.814,37.50023,205.5777,NaN,0.0,8.0,,21 / 21,,2959,2021-05-04 15:53:52:369
-0.624906,-0.457306,9.826104,-0.655143,-0.422224,9.775628,-0.085345,0.004682,1.249644,-3.06,-18.96,-43.2,164.3244,2.4804,3.8033,55.814,37.50023,205.5777,NaN,0.0,8.0,,21 / 21,,2969,2021-05-04 15:53:52:379
-0.632089,-0.442941,9.893144,-0.655143,-0.422224,9.775628,-0.079847,-0.011812,1.250255,-3.06,-18.96,-43.2,164.3244,2.4804,3.8033,55.814,37.50023,205.5777,NaN,0.0,8.0,,21 / 21,,2979,2021-05-04 15:53:52:389
-0.584203,-0.447729,9.845258,-0.657287,-0.42335,9.775435,-0.076182,-0.017309,1.25392,-3.42,-18.3,-43.38,163.5077,2.4676,3.8341,55.814,37.50023,205.5777,NaN,0.0,8.0,,21 / 21,,2989,2021-05-04 15:53:52:399
-0.555472,-0.452518,9.775824,-0.657287,-0.42335,9.775435,-0.076182,-0.005092,1.255142,-3.42,-18.3,-43.38,163.5077,2.4676,3.8341,55.814,37.50023,205.5777,NaN,0.0,8.0,,21 / 21,,2999,2021-05-04 15:53:52:409
-0.574626,-0.471672,9.77343,-0.655911,-0.424153,9.775493,-0.080458,0.015066,1.255142,-3.18,-18.12,-43.26,163.5077,2.4676,3.8341,55.814,37.50023,205.5777,NaN,0.0,8.0,,21 / 21,,3010,2021-05-04 15:53:52:420
-0.574626,-0.471672,9.77343,-0.655911,-0.424153,9.775493,-0.078014,-8.16E-4,1.25392,-3.18,-18.12,-43.26,163.5077,2.4676,3.8341,55.814,37.50023,205.5777,NaN,0.0,8.0,,21 / 21,,3020,2021-05-04 15:53:52:430
-0.565049,-0.483643,9.917087,-0.655944,-0.427627,9.77534,-0.071906,-0.007536,1.256974,-3.78,-18.48,-43.2,160.8898,2.4789,3.8386,55.814,37.50023,205.5777,NaN,0.0,8.0,,21 / 21,,3029,2021-05-04 15:53:52:439
-0.574626,-0.471672,9.957788,-0.653686,-0.429343,9.775415,-0.071906,-0.008146,1.255753,-4.26,-18.06,-42.78,160.8898,2.4789,3.8386,55.814,37.50023,205.5777,NaN,0.0,8.0,,21 / 21,,3039,2021-05-04 15:53:52:449
-0.517163,-0.418998,9.854836,-0.653686,-0.429343,9.775415,-0.065797,0.019953,1.25392,-4.26,-18.06,-42.78,160.8898,2.4789,3.8386,55.814,37.50023,205.5777,NaN,0.0,8.0,,21 / 21,,3049,2021-05-04 15:53:52:459
-0.517163,-0.418998,9.854836,-0.649063,-0.4307,9.775664,-0.067019,0.012012,1.248422,-4.32,-16.92,-43.5,160.8898,2.4789,3.8386,55.814,37.50023,205.5777,NaN,0.0,8.0,,21 / 21,,3059,2021-05-04 15:53:52:469
-0.493221,-0.452518,9.713573,-0.649063,-0.4307,9.775664,-0.067019,0.00346,1.242925,-4.32,-16.92,-43.5,160.8898,2.4789,3.8386,55.814,37.50023,205.5777,NaN,0.0,8.0,,21 / 21,,3069,2021-05-04 15:53:52:479
-0.438152,-0.402238,9.811738,-0.639796,-0.430707,9.776275,-0.070684,0.013234,1.240481,-4.14,-16.98,-44.16,159.9275,2.5172,3.7986,55.814,37.50023,205.5777,NaN,0.0,8.0,,21 / 21,,3079,2021-05-04 15:53:52:489
-0.306467,-0.409421,9.953,-0.639796,-0.430707,9.776275,-0.067629,0.018121,1.229486,-4.14,-16.98,-44.16,159.9275,2.5172,3.7986,55.814,37.50023,205.5777,NaN,0.0,8.0,,21 / 21,,3089,2021-05-04 15:53:52:499
-0.268159,-0.407027,9.953,-0.623513,-0.429798,9.777367,-0.059077,0.012012,1.216046,-4.62,-16.74,-43.68,159.9275,2.5172,3.7986,55.814,37.50023,205.5777,NaN,0.0,8.0,,21 / 21,,3100,2021-05-04 15:53:52:510
-0.349564,-0.356747,9.866806,-0.623513,-0.429798,9.777367,-0.054801,0.023008,1.206883,-4.62,-16.74,-43.68,159.9275,2.5172,3.7986,55.814,37.50023,205.5777,NaN,0.0,8.0,,21 / 21,,3109,2021-05-04 15:53:52:519
-0.349564,-0.356747,9.866806,-0.604205,-0.425785,9.778754,-0.054801,0.023008,1.206883,-4.74,-16.56,-44.1,157.5936,2.5119,3.6489,55.814,37.50023,205.5777,NaN,0.0,8.0,,21 / 21,,3119,2021-05-04 15:53:52:529
-0.500403,-0.316044,9.629773,-0.604205,-0.425785,9.778754,-0.059688,0.050497,1.193444,-4.74,-16.56,-44.1,157.5936,2.5119,3.6489,55.814,37.50023,205.5777,NaN,0.0,8.0,,21 / 21,,3130,2021-05-04 15:53:52:540
-0.802082,-0.29689,9.500483,-0.590167,-0.418428,9.779929,-0.067019,0.051718,1.189168,-4.38,-17.04,-43.8,157.5936,2.5119,3.6489,55.814,37.50023,205.5777,NaN,0.0,8.0,,21 / 21,,3139,2021-05-04 15:53:52:549
-0.955316,-0.361535,9.653716,-0.591251,-0.41365,9.780066,-0.078625,0.040112,1.179395,-4.32,-16.98,-43.98,157.5936,2.5119,3.6489,55.814,37.50023,205.5777,NaN,0.0,8.0,,21 / 21,,3149,2021-05-04 15:53:52:559
-0.955316,-0.361535,9.653716,-0.591251,-0.41365,9.780066,-0.084734,-8.16E-4,1.17634,-4.32,-16.98,-43.98,157.5936,2.5119,3.6489,55.814,37.50023,205.5777,NaN,0.0,8.0,,21 / 21,,3159,2021-05-04 15:53:52:569
-0.837996,-0.565049,10.161303,-0.59715,-0.407296,9.779975,-0.086566,-0.041744,1.170232,-3.84,-16.68,-44.28,160.552,2.4175,3.4596,55.814,37.50023,205.5777,NaN,0.0,8.0,,21 / 21,,3169,2021-05-04 15:53:52:579
-0.423787,-0.507586,10.482135,-0.59715,-0.407296,9.779975,-0.068851,-0.065568,1.156182,-3.84,-16.68,-44.28,160.552,2.4175,3.4596,55.814,37.50023,205.5777,NaN,0.0,8.0,,21 / 21,,3179,2021-05-04 15:53:52:589
-0.387873,-0.249005,10.024829,-0.5985,-0.408169,9.779856,-0.043195,-0.059459,1.145797,-3.96,-16.14,-43.68,160.552,2.4175,3.4596,55.814,37.50023,205.5777,NaN,0.0,8.0,,21 / 21,,3189,2021-05-04 15:53:52:599
-0.387873,-0.249005,10.024829,-0.5985,-0.408169,9.779856,-0.030367,0.012623,1.129304,-3.96,-16.14,-43.68,160.552,2.4175,3.4596,55.814,37.50023,205.5777,NaN,0.0,8.0,,21 / 21,,3200,2021-05-04 15:53:52:610
-0.237033,-0.129291,8.942616,-0.604631,-0.401207,9.779767,-0.040141,0.054773,1.11953,-3.66,-15.96,-43.38,159.5622,2.3854,3.502,55.814,37.50023,205.5777,NaN,0.0,8.0,,21 / 21,,3209,2021-05-04 15:53:52:619
-0.220273,-0.177176,8.909097,-0.604631,-0.401207,9.779767,-0.057245,0.037058,1.102426,-3.66,-15.96,-43.38,159.5622,2.3854,3.502,55.814,37.50023,205.5777,NaN,0.0,8.0,,21 / 21,,3219,2021-05-04 15:53:52:629
-0.210696,-0.402238,9.900327,-0.618956,-0.399139,9.778955,-0.114055,-0.043577,1.059665,-3.78,-16.02,-43.8,159.5622,2.3854,3.502,55.814,37.50023,205.5777,NaN,0.0,8.0,,21 / 21,,3230,2021-05-04 15:53:52:640
-0.234639,-0.442941,10.721562,-0.618956,-0.399139,9.778955,-0.114055,-0.043577,1.059665,-3.78,-16.02,-43.8,159.5622,2.3854,3.502,55.814,37.50023,205.5777,NaN,0.0,8.0,,21 / 21,,3239,2021-05-04 15:53:52:649
-0.234639,-0.442941,10.721562,-0.619694,-0.407174,9.778578,-0.107336,-0.015477,1.048059,-4.56,-15.6,-43.2,156.4969,2.3326,3.6217,55.814,37.50023,205.5777,NaN,0.0,8.0,,21 / 21,,3249,2021-05-04 15:53:52:659
-0.311256,-0.351958,10.609032,-0.619694,-0.407174,9.778578,-0.066408,0.021175,1.026678,-4.56,-15.6,-43.2,156.4969,2.3326,3.6217,55.814,37.50023,205.5777,NaN,0.0,8.0,,21 / 21,,3260,2021-05-04 15:53:52:670
-0.359141,-0.33041,9.833286,-0.629485,-0.410811,9.7778,-0.030978,0.015677,1.016904,-4.44,-15.06,-42.78,156.4969,2.3326,3.6217,55.814,37.50023,205.5777,NaN,0.0,8.0,,21 / 21,,3269,2021-05-04 15:53:52:679
-0.500403,-0.215485,9.225141,-0.629485,-0.410811,9.7778,-0.016317,0.018732,0.997357,-4.44,-15.06,-42.78,156.4969,2.3326,3.6217,55.814,37.50023,205.5777,NaN,0.0,8.0,,21 / 21,,3279,2021-05-04 15:53:52:689
-0.450124,-0.241822,9.198804,-0.640266,-0.402487,9.777447,-0.034032,0.043166,0.983918,-4.26,-15.12,-43.02,158.0666,2.4009,3.6836,55.814,37.50023,205.5777,NaN,0.0,8.0,,21 / 21,,3289,2021-05-04 15:53:52:699
-0.450124,-0.241822,9.198804,-0.640266,-0.402487,9.777447,-0.064575,0.025451,0.977809,-4.26,-15.12,-43.02,158.0666,2.4009,3.6836,55.814,37.50023,205.5777,NaN,0.0,8.0,,21 / 21,,3299,2021-05-04 15:53:52:709
-0.648848,-0.277736,9.703996,-0.654404,-0.397988,9.776694,-0.090232,-0.006925,0.966813,-4.2,-14.64,-43.26,158.0666,2.4009,3.6836,55.814,37.50023,205.5777,NaN,0.0,8.0,,21 / 21,,3310,2021-05-04 15:53:52:720
-0.845179,-0.385478,10.307353,-0.654404,-0.397988,9.776694,-0.090842,-0.019753,0.962537,-4.2,-14.64,-43.26,158.0666,2.4009,3.6836,55.814,37.50023,205.5777,NaN,0.0,8.0,,21 / 21,,3319,2021-05-04 15:53:52:729
-0.749408,-0.349564,10.273833,-0.660225,-0.402315,9.776126,-0.076792,-0.026472,0.95032,-3.96,-14.52,-42.72,157.6815,2.3259,3.8294,55.814,37.50023,205.5777,NaN,0.0,8.0,,21 / 21,,3329,2021-05-04 15:53:52:739
-0.438152,-0.22985,9.883567,-0.660225,-0.402315,9.776126,-0.048693,-0.031359,0.944822,-3.96,-14.52,-42.72,157.6815,2.3259,3.8294,55.814,37.50023,205.5777,NaN,0.0,8.0,,21 / 21,,3339,2021-05-04 15:53:52:749
-0.337593,-0.169993,9.557945,-0.662653,-0.40374,9.775903,-0.034032,-0.021586,0.937492,-4.02,-14.4,-42.78,157.6815,2.3259,3.8294,55.814,37.50023,205.5777,NaN,0.0,8.0,,21 / 21,,3350,2021-05-04 15:53:52:760
-0.337593,-0.169993,9.557945,-0.662653,-0.40374,9.775903,-0.029756,0.001016,0.921609,-4.02,-14.4,-42.78,157.6815,2.3259,3.8294,55.814,37.50023,205.5777,NaN,0.0,8.0,,21 / 21,,3359,2021-05-04 15:53:52:769
-0.402238,-0.098165,9.435837,-0.666654,-0.39778,9.775875,-0.047471,0.032781,0.915501,-4.5,-14.58,-43.38,157.6054,2.3595,3.8778,55.814,37.50023,205.5777,NaN,0.0,8.0,,21 / 21,,3369,2021-05-04 15:53:52:779
-0.442941,-0.225062,9.502876,-0.666654,-0.39778,9.775875,-0.06824,0.018121,0.904505,-4.5,-14.58,-43.38,157.6054,2.3595,3.8778,55.814,37.50023,205.5777,NaN,0.0,8.0,,21 / 21,,3379,2021-05-04 15:53:52:789
-0.442941,-0.225062,9.502876,-0.678514,-0.394859,9.775177,-0.087177,-0.028916,0.892288,-4.92,-14.76,-43.44,157.6054,2.3595,3.8778,55.814,37.50023,205.5777,NaN,0.0,8.0,,21 / 21,,3389,2021-05-04 15:53:52:799
-0.500403,-0.409421,10.065532,-0.678514,-0.394859,9.775177,-0.085345,-0.036246,0.885568,-4.92,-14.76,-43.44,157.6054,2.3595,3.8778,55.814,37.50023,205.5777,NaN,0.0,8.0,,21 / 21,,3399,2021-05-04 15:53:52:809
-0.52674,-0.378295,10.386364,-0.68014,-0.399283,9.774885,-0.069462,-0.00387,0.878849,-4.74,-14.4,-43.68,152.9602,2.3076,3.9706,55.814,37.50023,205.5777,NaN,0.0,8.0,,21 / 21,,3409,2021-05-04 15:53:52:819
-0.59378,-0.33041,10.1206,-0.68014,-0.399283,9.774885,-0.044417,0.013234,0.87274,-4.74,-14.4,-43.68,152.9602,2.3076,3.9706,55.814,37.50023,205.5777,NaN,0.0,8.0,,21 / 21,,3420,2021-05-04 15:53:52:830
-0.713494,-0.160416,9.677659,-0.685242,-0.400726,9.774469,-0.022425,0.016288,0.866631,-4.14,-13.86,-43.56,152.9602,2.3076,3.9706,55.814,37.50023,205.5777,NaN,0.0,8.0,,21 / 21,,3429,2021-05-04 15:53:52:839
-0.713494,-0.160416,9.677659,-0.685242,-0.400726,9.774469,-0.018149,-0.018531,0.861745,-4.14,-13.86,-43.56,152.9602,2.3076,3.9706,55.814,37.50023,205.5777,NaN,0.0,8.0,,21 / 21,,3439,2021-05-04 15:53:52:849
-0.66082,-0.227456,9.481328,-0.692497,-0.393603,9.774247,-0.032199,-0.006314,0.85136,-4.38,-13.98,-43.98,155.8612,2.3419,4.0102,55.814,37.50023,205.5777,NaN,0.0,8.0,,21 / 21,,3449,2021-05-04 15:53:52:859
-0.67758,-0.241822,9.70639,-0.692497,-0.393603,9.774247,-0.057245,0.019342,0.847695,-4.38,-13.98,-43.98,155.8612,2.3419,4.0102,55.814,37.50023,205.5777,NaN,0.0,8.0,,21 / 21,,3459,2021-05-04 15:53:52:869
-0.505192,-0.21309,9.890749,-0.697602,-0.387511,9.774128,-0.071906,-0.005703,0.841586,-4.62,-14.04,-44.04,155.8612,2.3419,4.0102,55.814,37.50023,205.5777,NaN,0.0,8.0,,21 / 21,,3469,2021-05-04 15:53:52:879
-0.536318,-0.217879,9.984126,-0.697602,-0.387511,9.774128,-0.077403,-0.015477,0.83059,-4.62,-14.04,-44.04,155.8612,2.3419,4.0102,55.814,37.50023,205.5777,NaN,0.0,8.0,,21 / 21,,3479,2021-05-04 15:53:52:889
-0.536318,-0.217879,9.984126,-0.703637,-0.388624,9.773651,-0.065186,-0.020975,0.827536,-4.2,-13.2,-43.02,154.3342,2.2646,4.0824,55.814,37.50023,205.5777,NaN,0.0,8.0,,21 / 21,,3489,2021-05-04 15:53:52:899
-0.481249,-0.196331,9.955395,-0.703637,-0.388624,9.773651,-0.049914,-0.002038,0.820206,-4.2,-13.2,-43.02,154.3342,2.2646,4.0824,55.814,37.50023,205.5777,NaN,0.0,8.0,,21 / 21,,3499,2021-05-04 15:53:52:909
-0.605751,-0.208302,9.878778,-0.706346,-0.38954,9.773419,-0.034643,0.019342,0.814097,-4.02,-12.9,-42.72,154.3342,2.2646,4.0824,55.814,37.50023,205.5777,NaN,0.0,8.0,,21 / 21,,3510,2021-05-04 15:53:52:920
-0.553077,-0.189148,9.670476,-0.706346,-0.38954,9.773419,-0.027923,0.012012,0.808599,-4.02,-12.9,-42.72,154.3342,2.2646,4.0824,55.814,37.50023,205.5777,NaN,0.0,8.0,,21 / 21,,3519,2021-05-04 15:53:52:929
-0.703917,-0.150839,9.579494,-0.714829,-0.385052,9.77298,-0.03953,0.012623,0.806767,-4.2,-12.78,-42.96,154.2262,2.2765,4.1337,55.814,37.50023,205.5777,NaN,0.0,8.0,,21 / 21,,3529,2021-05-04 15:53:52:939
-0.684763,-0.22985,9.658504,-0.714829,-0.385052,9.77298,-0.059077,0.002849,0.803102,-4.2,-12.78,-42.96,154.2262,2.2765,4.1337,55.814,37.50023,205.5777,NaN,0.0,8.0,,21 / 21,,3539,2021-05-04 15:53:52:949
-0.684763,-0.22985,9.658504,-0.722933,-0.380919,9.772546,-0.071295,-0.016699,0.803712,-4.08,-12.12,-43.08,154.2262,2.2765,4.1337,55.814,37.50023,205.5777,NaN,0.0,8.0,,21 / 21,,3550,2021-05-04 15:53:52:960
-0.730254,-0.270553,9.960183,-0.722933,-0.380919,9.772546,-0.071906,-0.029527,0.801269,-4.08,-12.12,-43.08,154.2262,2.2765,4.1337,55.814,37.50023,205.5777,NaN,0.0,8.0,,21 / 21,,3560,2021-05-04 15:53:52:970
-0.574626,-0.301679,10.130177,-0.72629,-0.382246,9.772245,-0.061521,-0.02464,0.796993,-3.72,-12.06,-43.32,152.3082,2.2261,4.2308,55.814,37.50023,205.5777,NaN,0.0,8.0,,21 / 21,,3569,2021-05-04 15:53:52:979
-0.498009,-0.227456,9.972155,-0.72629,-0.382246,9.772245,-0.043806,-0.002038,0.78783,-3.72,-12.06,-43.32,152.3082,2.2261,4.2308,55.814,37.50023,205.5777,NaN,0.0,8.0,,21 / 21,,3579,2021-05-04 15:53:52:989
-0.466884,-0.167599,9.680053,-0.727794,-0.382529,9.772122,-0.028534,4.06E-4,0.781721,-4.02,-12.9,-43.62,152.3082,2.2261,4.2308,55.814,37.50023,205.5777,NaN,0.0,8.0,,21 / 21,,3590,2021-05-04 15:53:53:000
-0.466884,-0.167599,9.680053,-0.727794,-0.382529,9.772122,-0.028534,4.06E-4,0.781721,-4.02,-12.9,-43.62,152.3082,2.2261,4.2308,55.814,37.50023,205.5777,NaN,0.0,8.0,,21 / 21,,3599,2021-05-04 15:53:53:009
-0.52674,-0.179571,9.680053,-0.702073,-0.348321,9.775283,-0.026091,-8.16E-4,0.779278,-3.6,-13.02,-43.26,153.8841,2.2355,4.2593,55.814,37.50023,205.5777,NaN,0.0,8.0,,21 / 21,,3609,2021-05-04 15:53:53:019
-0.603357,-0.191542,9.811738,-0.702073,-0.348321,9.775283,-0.030367,-0.002649,0.778056,-3.6,-13.02,-43.26,153.8841,2.2355,4.2593,55.814,37.50023,205.5777,NaN,0.0,8.0,,21 / 21,,3619,2021-05-04 15:53:53:029
-0.586597,-0.189148,9.783007,-0.67796,-0.318501,9.778002,-0.047471,0.011401,0.77378,-3.18,-13.08,-43.38,153.8841,2.2355,4.2593,55.814,37.50023,205.5777,NaN,0.0,8.0,,21 / 21,,3629,2021-05-04 15:53:53:039
-0.57702,-0.162811,9.799767,-0.67796,-0.318501,9.778002,-0.060299,0.013234,0.764617,-3.18,-13.08,-43.38,153.8841,2.2355,4.2593,55.814,37.50023,205.5777,NaN,0.0,8.0,,21 / 21,,3640,2021-05-04 15:53:53:050
-0.57702,-0.162811,9.799767,-0.666032,-0.297518,9.779482,-0.061521,-0.014866,0.761563,-4.02,-12.66,-42.96,154.1535,1.8612,3.9663,55.814,37.50023,205.5777,NaN,0.0,8.0,,21 / 21,,3649,2021-05-04 15:53:53:059
-0.598569,-0.198725,9.895537,-0.666032,-0.297518,9.779482,-0.047471,-0.021586,0.758508,-4.02,-12.66,-42.96,154.1535,1.8612,3.9663,55.814,37.50023,205.5777,NaN,0.0,8.0,,21 / 21,,3659,2021-05-04 15:53:53:069
-0.617723,-0.162811,9.900327,-0.654454,-0.279926,9.780784,-0.03953,-0.019142,0.753621,-4.02,-12.06,-43.02,154.1535,1.8612,3.9663,55.814,37.50023,205.5777,NaN,0.0,8.0,,21 / 21,,3669,2021-05-04 15:53:53:079
-0.603357,-0.186753,9.797373,-0.654454,-0.279926,9.780784,-0.034032,4.06E-4,0.747513,-4.02,-12.06,-43.02,154.1535,1.8612,3.9663,55.814,37.50023,205.5777,NaN,0.0,8.0,,21 / 21,,3679,2021-05-04 15:53:53:089
-0.603357,-0.186753,9.797373,-0.647143,-0.261919,9.781768,-0.033421,0.00346,0.747513,-3.6,-11.76,-43.56,152.3776,1.6357,3.8281,55.814,37.50023,205.5777,NaN,0.0,8.0,,21 / 21,,3689,2021-05-04 15:53:53:099
-0.632089,-0.146051,9.682447,-0.647143,-0.261919,9.781768,-0.042584,0.007125,0.742626,-3.6,-11.76,-43.56,152.3776,1.6357,3.8281,55.814,37.50023,205.5777,NaN,0.0,8.0,,21 / 21,,3699,2021-05-04 15:53:53:109
-0.605751,-0.177176,9.732727,-0.638423,-0.244092,9.782803,-0.056634,0.005293,0.735906,-3.78,-11.4,-42.48,152.3776,1.6357,3.8281,55.814,37.50023,205.5777,NaN,0.0,8.0,,21 / 21,,3710,2021-05-04 15:53:53:120
-0.612934,-0.186753,9.845258,-0.638423,-0.244092,9.782803,-0.057245,-0.00326,0.733463,-3.78,-11.4,-42.48,152.3776,1.6357,3.8281,55.814,37.50023,205.5777,NaN,0.0,8.0,,21 / 21,,3719,2021-05-04 15:53:53:129
-0.622511,-0.193936,9.912297,-0.632135,-0.232361,9.783497,-0.056634,-0.00326,0.731019,-3.42,-11.46,-42.54,154.3391,1.4263,3.7338,55.814,37.50023,205.5777,NaN,0.0,8.0,,21 / 21,,3729,2021-05-04 15:53:53:139
-0.622511,-0.193936,9.912297,-0.632135,-0.232361,9.783497,-0.052969,-0.011812,0.728576,-3.42,-11.46,-42.54,154.3391,1.4263,3.7338,55.814,37.50023,205.5777,NaN,0.0,8.0,,21 / 21,,3739,2021-05-04 15:53:53:149
-0.64406,-0.210696,9.897932,-0.629483,-0.22405,9.783861,-0.043195,-0.006925,0.726743,-3.66,-11.52,-43.2,154.3391,1.4263,3.7338,55.814,37.50024,206.0188,NaN,0.0,8.0,,21 / 21,,3750,2021-05-04 15:53:53:160
-0.72786,-0.172388,9.852441,-0.629483,-0.22405,9.783861,-0.038308,0.010179,0.728576,-3.66,-11.52,-43.2,154.3391,1.4263,3.7338,55.814,37.50024,206.0188,NaN,0.0,8.0,,21 / 21,,3759,2021-05-04 15:53:53:169
-0.758985,-0.162811,9.751882,-0.630628,-0.21502,9.78399,-0.035254,-0.002649,0.729187,-3.96,-11.4,-43.56,150.3891,1.3091,3.6813,55.814,37.50024,206.0188,NaN,0.0,8.0,,21 / 21,,3769,2021-05-04 15:53:53:179
-0.691945,-0.162811,9.703996,-0.630628,-0.21502,9.78399,-0.040141,4.06E-4,0.726743,-3.96,-11.4,-43.56,150.3891,1.3091,3.6813,55.814,37.50024,206.0188,NaN,0.0,8.0,,21 / 21,,3779,2021-05-04 15:53:53:189
-0.600963,-0.143656,9.766247,-0.635729,-0.206132,9.783852,-0.051136,-0.006925,0.729798,-3.54,-11.22,-43.8,150.3891,1.3091,3.6813,55.814,37.50024,206.0188,NaN,0.0,8.0,,21 / 21,,3789,2021-05-04 15:53:53:199
-0.600963,-0.143656,9.766247,-0.635729,-0.206132,9.783852,-0.05419,-0.006314,0.725522,-3.54,-11.22,-43.8,150.3891,1.3091,3.6813,55.814,37.50024,206.0188,NaN,0.0,8.0,,21 / 21,,3799,2021-05-04 15:53:53:209
-0.598569,-0.205908,9.857229,-0.640099,-0.20067,9.78368,-0.060299,-0.008757,0.724911,-3.54,-11.28,-43.5,150.3164,1.2044,3.7177,55.814,37.50024,206.0188,NaN,0.0,8.0,,21 / 21,,3810,2021-05-04 15:53:53:220
-0.615329,-0.169993,9.943423,-0.640099,-0.20067,9.78368,-0.051747,-0.015477,0.724911,-3.54,-11.28,-43.5,150.3164,1.2044,3.7177,55.814,37.50024,206.0188,NaN,0.0,8.0,,21 / 21,,3819,2021-05-04 15:53:53:229
-0.603357,-0.21309,9.917087,-0.64145,-0.197307,9.78366,-0.040751,-0.004481,0.7243,-4.02,-11.04,-43.08,150.3164,1.2044,3.7177,55.814,37.50024,206.0188,NaN,0.0,8.0,,21 / 21,,3829,2021-05-04 15:53:53:239
-0.656031,-0.172388,9.802161,-0.64145,-0.197307,9.78366,-0.031588,0.004682,0.724911,-4.02,-11.04,-43.08,150.3164,1.2044,3.7177,55.814,37.50024,206.0188,NaN,0.0,8.0,,21 / 21,,3839,2021-05-04 15:53:53:249
-0.656031,-0.172388,9.802161,-0.642665,-0.192819,9.783669,-0.029756,0.012623,0.727354,-3.9,-10.74,-43.14,150.1464,1.1529,3.7511,55.814,37.50024,206.0188,NaN,0.0,8.0,,21 / 21,,3849,2021-05-04 15:53:53:259
-0.739831,-0.134079,9.672871,-0.642665,-0.192819,9.783669,-0.036475,0.005903,0.724911,-3.9,-10.74,-43.14,150.1464,1.1529,3.7511,55.814,37.50024,206.0188,NaN,0.0,8.0,,21 / 21,,3859,2021-05-04 15:53:53:269
-0.782928,-0.131685,9.660899,-0.648167,-0.18695,9.783421,-0.046249,-0.007536,0.723078,-3.48,-10.62,-43.32,150.1464,1.1529,3.7511,55.814,37.50024,206.0188,NaN,0.0,8.0,,21 / 21,,3870,2021-05-04 15:53:53:280
-0.766168,-0.155628,9.809344,-0.648167,-0.18695,9.783421,-0.056634,-0.011812,0.727354,-3.48,-10.62,-43.32,150.1464,1.1529,3.7511,55.814,37.50024,206.0188,NaN,0.0,8.0,,21 / 21,,3879,2021-05-04 15:53:53:289
-0.766168,-0.155628,9.809344,-0.656143,-0.182434,9.782974,-0.06091,-0.021586,0.729798,-3.54,-10.62,-43.5,149.9461,1.0923,3.7904,55.814,37.50024,206.0188,NaN,0.0,8.0,,21 / 21,,3889,2021-05-04 15:53:53:299
-0.682368,-0.203513,10.024829,-0.656143,-0.182434,9.782974,-0.055412,-0.01792,0.730409,-3.54,-10.62,-43.5,149.9461,1.0923,3.7904,55.814,37.50024,206.0188,NaN,0.0,8.0,,21 / 21,,3899,2021-05-04 15:53:53:309
-0.574626,-0.179571,9.976943,-0.662058,-0.18111,9.7826,-0.040751,-0.008146,0.732241,-3.36,-10.32,-43.74,149.9461,1.0923,3.7904,55.814,37.50024,206.0188,NaN,0.0,8.0,,21 / 21,,3909,2021-05-04 15:53:53:319
-0.562655,-0.153234,9.785401,-0.662058,-0.18111,9.7826,-0.034643,0.007736,0.73163,-3.36,-10.32,-43.74,149.9461,1.0923,3.7904,55.814,37.50024,206.0188,NaN,0.0,8.0,,21 / 21,,3920,2021-05-04 15:53:53:330
-0.586597,-0.141262,9.651321,-0.662761,-0.177491,9.782619,-0.034643,0.013234,0.727354,-3.42,-10.08,-43.38,151.3368,1.0582,3.8717,55.814,37.50024,206.0188,NaN,0.0,8.0,,21 / 21,,3929,2021-05-04 15:53:53:339
-0.586597,-0.141262,9.651321,-0.662761,-0.177491,9.782619,-0.034643,0.013234,0.727354,-3.42,-10.08,-43.38,151.3368,1.0582,3.8717,55.814,37.50024,206.0188,NaN,0.0,8.0,,21 / 21,,3939,2021-05-04 15:53:53:349
-0.758985,-0.150839,9.751882,-0.661161,-0.172121,9.782824,-0.041362,0.006514,0.729187,-3.66,-10.62,-43.38,151.3368,1.0582,3.8717,55.814,37.50024,206.0188,NaN,0.0,8.0,,21 / 21,,3949,2021-05-04 15:53:53:359
-0.814053,-0.234639,9.912297,-0.661161,-0.172121,9.782824,-0.049914,-0.008757,0.73163,-3.66,-10.62,-43.38,151.3368,1.0582,3.8717,55.814,37.50024,206.0188,NaN,0.0,8.0,,21 / 21,,3960,2021-05-04 15:53:53:370
-0.797293,-0.196331,9.912297,-0.663955,-0.170696,9.782659,-0.049914,-0.008757,0.73163,-3.06,-10.38,-43.32,151.2657,1.0057,3.8664,55.814,37.50024,206.0188,NaN,0.0,8.0,,21 / 21,,3969,2021-05-04 15:53:53:379
-0.797293,-0.196331,9.912297,-0.663955,-0.170696,9.782659,-0.049914,-0.006314,0.73835,-3.06,-10.38,-43.32,151.2657,1.0057,3.8664,55.814,37.50024,206.0188,NaN,0.0,8.0,,21 / 21,,3980,2021-05-04 15:53:53:390
-0.66082,-0.146051,9.816526,-0.669948,-0.171233,9.782241,-0.047471,-0.011201,0.735906,-2.94,-9.78,-43.2,151.2657,1.0057,3.8664,55.814,37.50024,206.0188,NaN,0.0,8.0,,21 / 21,,3990,2021-05-04 15:53:53:400
-0.617723,-0.134079,9.759064,-0.669948,-0.171233,9.782241,-0.035865,-0.008757,0.738961,-2.94,-9.78,-43.2,151.2657,1.0057,3.8664,55.814,37.50024,206.0188,NaN,0.0,8.0,,21 / 21,,4001,2021-05-04 15:53:53:411
-0.639271,-0.088588,9.754275,-0.673626,-0.168212,9.782042,-0.037697,-0.005092,0.736517,-3.42,-9.96,-43.32,151.0999,1.0005,3.9179,55.814,37.50024,206.0188,NaN,0.0,8.0,,21 / 21,,4009,2021-05-04 15:53:53:419
-0.632089,-0.131685,9.730332,-0.673626,-0.168212,9.782042,-0.037697,0.006514,0.73163,-3.42,-9.96,-43.32,151.0999,1.0005,3.9179,55.814,37.50024,206.0188,NaN,0.0,8.0,,21 / 21,,4020,2021-05-04 15:53:53:430
-0.632089,-0.131685,9.730332,-0.675075,-0.163186,9.782026,-0.050525,0.002238,0.734685,-2.82,-10.38,-43.14,151.0999,1.0005,3.9179,55.814,37.50024,206.0188,NaN,0.0,8.0,,21 / 21,,4029,2021-05-04 15:53:53:439
-0.624906,-0.122108,9.783007,-0.675075,-0.163186,9.782026,-0.056023,-0.005703,0.735906,-2.82,-10.38,-43.14,151.0999,1.0005,3.9179,55.814,37.50024,206.0188,NaN,0.0,8.0,,21 / 21,,4040,2021-05-04 15:53:53:450
-0.646454,-0.146051,9.871595,-0.675296,-0.160262,9.78206,-0.059688,-0.002038,0.734685,-2.64,-9.72,-42.96,150.9295,0.9535,3.9478,55.814,37.50024,206.0188,NaN,0.0,8.0,,21 / 21,,4050,2021-05-04 15:53:53:460
-0.691945,-0.172388,9.857229,-0.675296,-0.160262,9.78206,-0.052969,0.009569,0.737128,-2.64,-9.72,-42.96,150.9295,0.9535,3.9478,55.814,37.50024,206.0188,NaN,0.0,8.0,,21 / 21,,4059,2021-05-04 15:53:53:469
-0.715888,-0.131685,9.778218,-0.675974,-0.158243,9.782045,-0.046249,0.010179,0.740793,-3.06,-8.7,-43.56,150.9295,0.9535,3.9478,55.814,37.50024,206.0188,NaN,0.0,8.0,,21 / 21,,4069,2021-05-04 15:53:53:479
-0.715888,-0.131685,9.778218,-0.675974,-0.158243,9.782045,-0.044417,-0.005092,0.745069,-3.06,-8.7,-43.56,150.9295,0.9535,3.9478,55.814,37.50024,206.0188,NaN,0.0,8.0,,21 / 21,,4080,2021-05-04 15:53:53:490
-0.816448,-0.167599,9.783007,-0.682789,-0.155693,9.781612,-0.045027,-0.01059,0.74568,-2.94,-9.12,-43.74,148.1592,0.9246,3.9531,55.814,37.50024,206.0188,NaN,0.0,8.0,,21 / 21,,4089,2021-05-04 15:53:53:499
-0.881093,-0.186753,9.833286,-0.682789,-0.155693,9.781612,-0.051136,-0.002038,0.756676,-2.94,-9.12,-43.74,148.1592,0.9246,3.9531,55.814,37.50024,206.0188,NaN,0.0,8.0,,21 / 21,,4099,2021-05-04 15:53:53:509
-0.84039,-0.186753,9.862018,-0.691215,-0.153787,9.781051,-0.054801,-0.006314,0.757897,-2.88,-9.9,-43.26,148.1592,0.9246,3.9531,55.814,37.50024,206.0188,NaN,0.0,8.0,,21 / 21,,4110,2021-05-04 15:53:53:520
-0.718282,-0.174782,9.876384,-0.691215,-0.153787,9.781051,-0.052969,-0.016088,0.762174,-2.88,-9.9,-43.26,148.1592,0.9246,3.9531,55.814,37.50024,206.0188,NaN,0.0,8.0,,21 / 21,,4120,2021-05-04 15:53:53:530
-0.718282,-0.174782,9.876384,-0.700621,-0.153995,9.780378,-0.049304,-0.013644,0.768282,-2.94,-9.72,-43.38,150.5488,0.8985,4.0423,55.814,37.50024,206.0188,NaN,0.0,8.0,,21 / 21,,4129,2021-05-04 15:53:53:539
-0.658426,-0.155628,9.876384,-0.700621,-0.153995,9.780378,-0.049304,-0.013644,0.768282,-2.94,-9.72,-43.38,150.5488,0.8985,4.0423,55.814,37.50024,206.0188,NaN,0.0,8.0,,21 / 21,,4140,2021-05-04 15:53:53:550
-0.634483,-0.146051,9.778218,-0.70595,-0.154654,9.779984,-0.041973,-0.00387,0.773169,-3.18,-9.54,-43.08,150.5488,0.8985,4.0423,55.814,37.50024,206.0188,NaN,0.0,8.0,,21 / 21,,4150,2021-05-04 15:53:53:560
-0.651243,-0.162811,9.759064,-0.70595,-0.154654,9.779984,-0.040751,0.001016,0.771947,-3.18,-9.54,-43.08,150.5488,0.8985,4.0423,55.814,37.50024,206.0188,NaN,0.0,8.0,,21 / 21,,4160,2021-05-04 15:53:53:570
-0.668003,-0.160416,9.783007,-0.707832,-0.153306,9.77987,-0.043195,-0.002649,0.777445,-3.3,-9.18,-43.44,147.8112,0.9036,4.1286,55.814,37.50024,206.0188,NaN,0.0,8.0,,21 / 21,,4169,2021-05-04 15:53:53:579
-0.735042,-0.162811,9.823709,-0.707832,-0.153306,9.77987,-0.044417,-0.002038,0.777445,-3.3,-9.18,-43.44,147.8112,0.9036,4.1286,55.814,37.50024,206.0188,NaN,0.0,8.0,,21 / 21,,4180,2021-05-04 15:53:53:590
-0.735042,-0.162811,9.823709,-0.707945,-0.152588,9.779873,-0.050525,0.002238,0.784165,-3.18,-8.76,-43.98,147.8112,0.9036,4.1286,55.814,37.50024,206.0188,NaN,0.0,8.0,,21 / 21,,4189,2021-05-04 15:53:53:599
-0.744619,-0.169993,9.80695,-0.707945,-0.152588,9.779873,-0.051136,0.002849,0.785997,-3.18,-8.76,-43.98,147.8112,0.9036,4.1286,55.814,37.50024,206.0188,NaN,0.0,8.0,,21 / 21,,4199,2021-05-04 15:53:53:609
-0.715888,-0.177176,9.842864,-0.710296,-0.152031,9.779712,-0.051136,-0.01059,0.787219,-2.7,-9.42,-43.38,147.7503,0.8915,4.1403,55.814,37.50024,206.0188,NaN,0.0,8.0,,21 / 21,,4209,2021-05-04 15:53:53:619
-0.66082,-0.155628,9.883567,-0.710296,-0.152031,9.779712,-0.040751,-0.004481,0.789663,-2.7,-9.42,-43.38,147.7503,0.8915,4.1403,55.814,37.50024,206.0188,NaN,0.0,8.0,,21 / 21,,4220,2021-05-04 15:53:53:630
-0.67758,-0.158022,9.90272,-0.709376,-0.151778,9.779782,-0.040751,-0.004481,0.789663,-2.76,-9.06,-43.68,147.7503,0.8915,4.1403,55.814,37.50024,206.0188,NaN,0.0,8.0,,21 / 21,,4230,2021-05-04 15:53:53:640
-0.725465,-0.160416,9.785401,-0.709376,-0.151778,9.779782,-0.038919,-0.00387,0.790273,-2.76,-9.06,-43.68,147.7503,0.8915,4.1403,55.814,37.50024,206.0188,NaN,0.0,8.0,,21 / 21,,4239,2021-05-04 15:53:53:649
-0.725465,-0.160416,9.785401,-0.707559,-0.15055,9.779933,-0.038919,-0.00387,0.790273,-2.76,-8.16,-43.98,144.5544,0.8868,4.1487,55.814,37.50024,206.0188,NaN,0.0,8.0,,21 / 21,,4250,2021-05-04 15:53:53:660
-0.7111,-0.105348,9.711179,-0.707559,-0.15055,9.779933,-0.048693,-0.002038,0.792106,-2.76,-8.16,-43.98,144.5544,0.8868,4.1487,55.814,37.50024,206.0188,NaN,0.0,8.0,,21 / 21,,4260,2021-05-04 15:53:53:670
-0.668003,-0.126897,9.703996,-0.705327,-0.148035,9.780132,-0.048693,-0.002038,0.792106,-2.28,-7.68,-43.62,144.5544,0.8868,4.1487,55.814,37.50024,206.0188,NaN,0.0,8.0,,21 / 21,,4269,2021-05-04 15:53:53:679
-0.648848,-0.117319,9.811738,-0.705327,-0.148035,9.780132,-0.05358,0.001627,0.793938,-2.28,-7.68,-43.62,144.5544,0.8868,4.1487,55.814,37.50024,206.0188,NaN,0.0,8.0,,21 / 21,,4280,2021-05-04 15:53:53:690
-0.648848,-0.148445,9.878778,-0.704114,-0.146623,9.780241,-0.056023,-0.006925,0.791495,-2.04,-8.16,-43.26,149.5198,0.8649,4.1249,55.814,37.50024,206.0188,NaN,0.0,8.0,,21 / 21,,4289,2021-05-04 15:53:53:699
-0.648848,-0.148445,9.878778,-0.704114,-0.146623,9.780241,-0.055412,-0.008757,0.791495,-2.04,-8.16,-43.26,149.5198,0.8649,4.1249,55.814,37.50024,206.0188,NaN,0.0,8.0,,21 / 21,,4299,2021-05-04 15:53:53:709
-0.7111,-0.165205,9.881172,-0.701005,-0.145547,9.78048,-0.049304,-0.005703,0.793328,-1.92,-8.52,-42.6,149.5198,0.8649,4.1249,55.814,37.50024,206.0188,NaN,0.0,8.0,,21 / 21,,4309,2021-05-04 15:53:53:719
-0.679974,-0.193936,9.826104,-0.701005,-0.145547,9.78048,-0.043195,-0.00326,0.793328,-1.92,-8.52,-42.6,149.5198,0.8649,4.1249,55.814,37.50024,206.0188,NaN,0.0,8.0,,21 / 21,,4319,2021-05-04 15:53:53:729
-0.687157,-0.057463,9.79019,-0.697715,-0.144933,9.780725,-0.046249,-0.004481,0.793938,-1.86,-8.28,-42.48,149.8932,0.8504,4.0996,55.814,37.50024,206.0188,NaN,0.0,8.0,,21 / 21,,4329,2021-05-04 15:53:53:739
-0.682368,-0.134079,9.766247,-0.697715,-0.144933,9.780725,-0.045638,0.005293,0.792717,-1.86,-8.28,-42.48,149.8932,0.8504,4.0996,55.814,37.50024,206.0188,NaN,0.0,8.0,,21 / 21,,4339,2021-05-04 15:53:53:749
-0.615329,-0.095771,9.754275,-0.694782,-0.14192,9.780977,-0.052358,-0.002038,0.792717,-1.92,-8.16,-42.84,149.8932,0.8504,4.0996,55.814,37.50024,206.0188,NaN,0.0,8.0,,21 / 21,,4349,2021-05-04 15:53:53:759
-0.615329,-0.095771,9.754275,-0.694782,-0.14192,9.780977,-0.052358,-0.002038,0.792717,-1.92,-8.16,-42.84,149.8932,0.8504,4.0996,55.814,37.50024,206.0188,NaN,0.0,8.0,,21 / 21,,4359,2021-05-04 15:53:53:769
-0.588992,-0.146051,9.799767,-0.691904,-0.139756,9.781213,-0.056634,-0.012423,0.792106,-1.86,-7.98,-42.6,149.6708,0.8292,4.0631,55.814,37.50024,206.0188,NaN,0.0,8.0,,21 / 21,,4369,2021-05-04 15:53:53:779
-0.66082,-0.215485,9.90272,-0.691904,-0.139756,9.781213,-0.06091,-0.004481,0.790884,-1.86,-7.98,-42.6,149.6708,0.8292,4.0631,55.814,37.50024,206.0188,NaN,0.0,8.0,,21 / 21,,4379,2021-05-04 15:53:53:789
-0.634483,-0.162811,9.912297,-0.686287,-0.139856,9.781608,-0.056023,0.002849,0.788441,-1.56,-8.34,-42.72,149.6708,0.8292,4.0631,55.814,37.50024,206.0188,NaN,0.0,8.0,,21 / 21,,4390,2021-05-04 15:53:53:800
-0.634483,-0.162811,9.912297,-0.686287,-0.139856,9.781608,-0.047471,-0.006925,0.78783,-1.56,-8.34,-42.72,149.6708,0.8292,4.0631,55.814,37.50024,206.0188,NaN,0.0,8.0,,21 / 21,,4399,2021-05-04 15:53:53:809
-0.737437,-0.186753,9.847652,-0.682395,-0.141607,9.781855,-0.041362,0.001016,0.79516,-1.44,-7.62,-42.72,155.0427,0.8171,4.0134,55.814,37.50024,206.0188,NaN,0.0,8.0,,21 / 21,,4409,2021-05-04 15:53:53:819
-0.703917,-0.155628,9.747093,-0.682395,-0.141607,9.781855,-0.042584,0.008958,0.791495,-1.44,-7.62,-42.72,155.0427,0.8171,4.0134,55.814,37.50024,206.0188,NaN,0.0,8.0,,21 / 21,,4419,2021-05-04 15:53:53:829
-0.696734,-0.105348,9.771035,-0.682598,-0.142186,9.781832,-0.045638,-0.00326,0.794549,-1.32,-6.78,-42.6,155.0427,0.8171,4.0134,55.814,37.50024,206.0188,NaN,0.0,8.0,,21 / 21,,4429,2021-05-04 15:53:53:839
-0.646454,-0.102954,9.857229,-0.682598,-0.142186,9.781832,-0.048082,-0.013644,0.793938,-1.32,-6.78,-42.6,155.0427,0.8171,4.0134,55.814,37.50024,206.0188,NaN,0.0,8.0,,21 / 21,,4439,2021-05-04 15:53:53:849
-0.646454,-0.102954,9.857229,-0.680255,-0.142276,9.781993,-0.052358,-0.008146,0.79516,-1.62,-7.44,-43.08,146.7861,0.8308,3.9918,55.814,37.50024,206.0188,NaN,0.0,8.0,,21 / 21,,4449,2021-05-04 15:53:53:859
-0.572232,-0.074223,9.850046,-0.680255,-0.142276,9.781993,-0.051747,4.06E-4,0.795771,-1.62,-7.44,-43.08,146.7861,0.8308,3.9918,55.814,37.50024,206.0188,NaN,0.0,8.0,,21 / 21,,4459,2021-05-04 15:53:53:869
-0.636877,-0.064645,9.797373,-0.676165,-0.13967,9.782314,-0.05419,0.007736,0.793328,-1.8,-7.8,-42.9,146.7861,0.8308,3.9918,55.814,37.50024,206.0188,NaN,0.0,8.0,,21 / 21,,4469,2021-05-04 15:53:53:879
-0.758985,-0.110137,9.742304,-0.676165,-0.13967,9.782314,-0.05419,0.012623,0.793938,-1.8,-7.8,-42.9,146.7861,0.8308,3.9918,55.814,37.50024,206.0188,NaN,0.0,8.0,,21 / 21,,4480,2021-05-04 15:53:53:890
-0.758985,-0.110137,9.742304,-0.67551,-0.134425,9.782434,-0.052969,4.06E-4,0.795771,-1.5,-7.74,-42.84,155.2837,0.8161,3.9541,55.814,37.50024,206.0188,NaN,0.0,8.0,,21 / 21,,4489,2021-05-04 15:53:53:899
-0.756591,-0.131685,9.780613,-0.67551,-0.134425,9.782434,-0.054801,-0.013644,0.800658,-1.5,-7.74,-42.84,155.2837,0.8161,3.9541,55.814,37.50024,206.0188,NaN,0.0,8.0,,21 / 21,,4500,2021-05-04 15:53:53:910
-0.816448,-0.196331,9.905115,-0.678478,-0.130137,9.782286,-0.057245,-0.002649,0.806156,-1.08,-7.5,-42.84,155.2837,0.8161,3.9541,55.814,37.50024,206.0188,NaN,0.0,8.0,,21 / 21,,4509,2021-05-04 15:53:53:919
-0.749408,-0.227456,9.90272,-0.678478,-0.130137,9.782286,-0.060299,-0.00387,0.809821,-1.08,-7.5,-42.84,155.2837,0.8161,3.9541,55.814,37.50024,206.0188,NaN,0.0,8.0,,21 / 21,,4519,2021-05-04 15:53:53:929
-0.636877,-0.193936,9.859624,-0.686776,-0.131666,9.781687,-0.050525,-0.020364,0.816541,-0.42,-7.26,-42.78,158.5402,0.7604,3.9676,55.814,37.50024,206.0188,NaN,0.0,8.0,,21 / 21,,4529,2021-05-04 15:53:53:939
-0.636877,-0.193936,9.859624,-0.686776,-0.131666,9.781687,-0.046249,-0.014255,0.817762,-0.42,-7.26,-42.78,158.5402,0.7604,3.9676,55.814,37.50024,206.0188,NaN,0.0,8.0,,21 / 21,,4540,2021-05-04 15:53:53:950
-0.550683,-0.162811,9.833286,-0.68912,-0.135347,9.781471,-0.045027,0.004071,0.81593,-0.06,-7.02,-43.32,158.5402,0.7604,3.9676,55.814,37.50024,206.0188,NaN,0.0,8.0,,21 / 21,,4549,2021-05-04 15:53:53:959
-0.5435,-0.105348,9.783007,-0.68912,-0.135347,9.781471,-0.040751,0.009569,0.813486,-0.06,-7.02,-43.32,158.5402,0.7604,3.9676,55.814,37.50024,206.0188,NaN,0.0,8.0,,21 / 21,,4559,2021-05-04 15:53:53:969
-0.675185,-0.057463,9.792584,-0.686204,-0.137407,9.781648,-0.040141,0.004682,0.810432,-0.48,-6.78,-42.96,158.2937,0.7908,4.0299,55.814,37.50024,206.0188,NaN,0.0,8.0,,21 / 21,,4569,2021-05-04 15:53:53:979
-0.675185,-0.057463,9.792584,-0.686204,-0.137407,9.781648,-0.040751,0.001016,0.814708,-0.48,-6.78,-42.96,158.2937,0.7908,4.0299,55.814,37.50024,206.0188,NaN,0.0,8.0,,21 / 21,,4579,2021-05-04 15:53:53:989
-0.737437,-0.090982,9.763853,-0.681604,-0.135105,9.782001,-0.048693,0.001627,0.814097,-0.6,-6.3,-42.3,158.2937,0.7908,4.0299,55.814,37.50024,206.0188,NaN,0.0,8.0,,21 / 21,,4590,2021-05-04 15:53:54:000
-0.735042,-0.129291,9.730332,-0.681604,-0.135105,9.782001,-0.056023,0.001627,0.820206,-0.6,-6.3,-42.3,158.2937,0.7908,4.0299,55.814,37.50024,206.0188,NaN,0.0,8.0,,21 / 21,,4599,2021-05-04 15:53:54:009
-0.744619,-0.141262,9.828498,-0.68297,-0.132629,9.78194,-0.058467,-0.009368,0.819595,-1.02,-5.76,-43.02,148.8265,0.7894,3.9859,55.814,37.50024,206.0188,NaN,0.0,8.0,,21 / 21,,4609,2021-05-04 15:53:54:019
-0.670397,-0.191542,9.917087,-0.68297,-0.132629,9.78194,-0.054801,-0.006925,0.826925,-1.02,-5.76,-43.02,148.8265,0.7894,3.9859,55.814,37.50024,206.0188,NaN,0.0,8.0,,21 / 21,,4619,2021-05-04 15:53:54:029
-0.670397,-0.191542,9.917087,-0.685208,-0.132582,9.781784,-0.045638,-0.009368,0.826925,-0.96,-6.12,-43.8,148.8265,0.7894,3.9859,55.814,37.50024,206.0188,NaN,0.0,8.0,,21 / 21,,4629,2021-05-04 15:53:54:039
-0.574626,-0.0838,9.897932,-0.685208,-0.132582,9.781784,-0.042584,-0.00326,0.82326,-0.96,-6.12,-43.8,148.8265,0.7894,3.9859,55.814,37.50024,206.0188,NaN,0.0,8.0,,21 / 21,,4640,2021-05-04 15:53:54:050
-0.574626,-0.165205,9.696813,-0.684577,-0.131905,9.781837,-0.049304,0.002849,0.820817,-0.84,-6.6,-42.96,152.1603,0.7746,4.007,55.814,37.50024,206.0188,NaN,0.0,8.0,,21 / 21,,4649,2021-05-04 15:53:54:059
-0.600963,-0.0838,9.713573,-0.684577,-0.131905,9.781837,-0.055412,-8.16E-4,0.818984,-0.84,-6.6,-42.96,152.1603,0.7746,4.007,55.814,37.50024,206.0188,NaN,0.0,8.0,,21 / 21,,4659,2021-05-04 15:53:54:069
-0.59378,-0.10056,9.838076,-0.680734,-0.129848,9.782133,-0.057245,-0.00387,0.817762,-1.2,-6.72,-42.6,152.1603,0.7746,4.007,55.814,37.50024,206.0188,NaN,0.0,8.0,,21 / 21,,4670,2021-05-04 15:53:54:080
-0.59378,-0.10056,9.838076,-0.680734,-0.129848,9.782133,-0.056634,4.06E-4,0.820206,-1.2,-6.72,-42.6,152.1603,0.7746,4.007,55.814,37.50024,206.0188,NaN,0.0,8.0,,21 / 21,,4679,2021-05-04 15:53:54:089
-0.629694,-0.155628,9.876384,-0.675333,-0.12814,9.78253,-0.057856,0.018121,0.826925,-0.54,-6.84,-43.2,152.2392,0.7587,3.9808,55.814,37.50024,206.0188,NaN,0.0,8.0,,21 / 21,,4689,2021-05-04 15:53:54:099
-0.782928,-0.117319,9.73991,-0.675333,-0.12814,9.78253,-0.056634,0.03156,0.82998,-0.54,-6.84,-43.2,152.2392,0.7587,3.9808,55.814,37.50024,206.0188,NaN,0.0,8.0,,21 / 21,,4699,2021-05-04 15:53:54:109
-0.821236,-0.138868,9.737515,-0.676671,-0.127643,9.782444,-0.051747,4.06E-4,0.83731,0.42,-6.72,-43.56,152.2392,0.7587,3.9808,55.814,37.50024,206.0188,NaN,0.0,8.0,,21 / 21,,4709,2021-05-04 15:53:54:119
-0.768562,-0.153234,9.964972,-0.676671,-0.127643,9.782444,-0.048082,-0.022807,0.834256,0.42,-6.72,-43.56,152.2392,0.7587,3.9808,55.814,37.50024,206.0188,NaN,0.0,8.0,,21 / 21,,4719,2021-05-04 15:53:54:129
-0.768562,-0.153234,9.964972,-0.682553,-0.127672,9.782036,-0.043195,-0.016699,0.839753,0.84,-6.36,-43.44,163.2842,0.7458,3.957,55.814,37.50024,206.0188,NaN,0.0,8.0,,21 / 21,,4730,2021-05-04 15:53:54:140
-0.691945,-0.117319,10.0368,-0.682553,-0.127672,9.782036,-0.042584,-2.05E-4,0.841586,0.84,-6.36,-43.44,163.2842,0.7458,3.957,55.814,37.50024,206.0188,NaN,0.0,8.0,,21 / 21,,4739,2021-05-04 15:53:54:149
-0.665608,-0.107742,9.732727,-0.685706,-0.126722,9.781827,-0.048693,0.002849,0.84464,0.3,-6.24,-42.6,163.2842,0.7458,3.957,55.814007,37.500263,206.3973,NaN,0.0,8.0,,22 / 22,,4749,2021-05-04 15:53:54:159
-0.656031,-0.143656,9.613013,-0.685706,-0.126722,9.781827,-0.056023,-0.00326,0.850749,0.3,-6.24,-42.6,163.2842,0.7458,3.957,55.814007,37.500263,206.3973,NaN,0.0,8.0,,22 / 22,,4759,2021-05-04 15:53:54:169
-0.67758,-0.146051,9.684841,-0.689331,-0.124696,9.781598,-0.06091,0.004682,0.849527,-0.42,-6.36,-42.48,155.819,0.7404,4.0099,55.814007,37.500263,206.3973,NaN,0.0,8.0,,22 / 22,,4769,2021-05-04 15:53:54:179
-0.725465,-0.122108,9.883567,-0.689331,-0.124696,9.781598,-0.058467,0.010179,0.855025,-0.42,-6.36,-42.48,155.819,0.7404,4.0099,55.814007,37.500263,206.3973,NaN,0.0,8.0,,22 / 22,,4780,2021-05-04 15:53:54:190
-0.725465,-0.122108,9.883567,-0.691883,-0.125681,9.781405,-0.052969,-0.002649,0.854414,0.36,-6.0,-42.48,155.819,0.7404,4.0099,55.814007,37.500263,206.3973,NaN,0.0,8.0,,22 / 22,,4789,2021-05-04 15:53:54:199
-0.730254,-0.124502,10.00328,-0.691883,-0.125681,9.781405,-0.043195,-0.024029,0.858079,0.36,-6.0,-42.48,155.819,0.7404,4.0099,55.814007,37.500263,206.3973,NaN,0.0,8.0,,22 / 22,,4799,2021-05-04 15:53:54:209
-0.687157,-0.088588,9.972155,-0.695217,-0.125557,9.78117,-0.037086,-0.018531,0.85869,0.96,-6.12,-42.18,163.2627,0.7343,4.0461,55.814007,37.500263,206.3973,NaN,0.0,8.0,,22 / 22,,4809,2021-05-04 15:53:54:219
-0.608146,-0.055068,9.766247,-0.695217,-0.125557,9.78117,-0.044417,0.007125,0.858079,0.96,-6.12,-42.18,163.2627,0.7343,4.0461,55.814007,37.500263,206.3973,NaN,0.0,8.0,,22 / 22,,4819,2021-05-04 15:53:54:229
-0.579414,-0.062251,9.541185,-0.693214,-0.121242,9.781367,-0.055412,0.018732,0.856858,0.78,-6.3,-42.36,163.2627,0.7343,4.0461,55.814007,37.500263,206.3973,NaN,0.0,8.0,,22 / 22,,4829,2021-05-04 15:53:54:239
-0.579414,-0.062251,9.541185,-0.693214,-0.121242,9.781367,-0.067019,0.007125,0.859301,0.78,-6.3,-42.36,163.2627,0.7343,4.0461,55.814007,37.500263,206.3973,NaN,0.0,8.0,,22 / 22,,4839,2021-05-04 15:53:54:249
-0.622511,-0.107742,9.601042,-0.690703,-0.116661,9.781601,-0.067019,0.007125,0.859301,0.42,-5.76,-42.48,155.5078,0.7084,4.0538,55.814007,37.500263,206.3973,NaN,0.0,8.0,,22 / 22,,4849,2021-05-04 15:53:54:259
-0.723071,-0.143656,9.869201,-0.690703,-0.116661,9.781601,-0.070073,0.001627,0.860523,0.42,-5.76,-42.48,155.5078,0.7084,4.0538,55.814007,37.500263,206.3973,NaN,0.0,8.0,,22 / 22,,4859,2021-05-04 15:53:54:269
-0.828419,-0.203513,10.075109,-0.688002,-0.116235,9.781796,-0.055412,-0.001427,0.866631,0.42,-5.52,-42.24,155.5078,0.7084,4.0538,55.814007,37.500263,206.3973,NaN,0.0,8.0,,22 / 22,,4870,2021-05-04 15:53:54:280
-0.773351,-0.222668,10.017646,-0.688002,-0.116235,9.781796,-0.055412,-0.001427,0.866631,0.42,-5.52,-42.24,155.5078,0.7084,4.0538,55.814007,37.500263,206.3973,NaN,0.0,8.0,,22 / 22,,4879,2021-05-04 15:53:54:289
-0.773351,-0.222668,10.017646,-0.692784,-0.118047,9.781437,-0.042584,-0.021586,0.869686,0.72,-6.18,-42.6,162.7631,0.6791,4.0233,55.814007,37.500263,206.3973,NaN,0.0,8.0,,22 / 22,,4889,2021-05-04 15:53:54:299
-0.684763,-0.196331,9.838076,-0.692784,-0.118047,9.781437,-0.036475,-0.029527,0.870297,0.72,-6.18,-42.6,162.7631,0.6791,4.0233,55.814007,37.500263,206.3973,NaN,0.0,8.0,,22 / 22,,4899,2021-05-04 15:53:54:309
-0.5435,-0.105348,9.701602,-0.692954,-0.119914,9.781403,-0.038308,-0.013033,0.870908,1.14,-5.64,-43.02,162.7631,0.6791,4.0233,55.814007,37.500263,206.3973,NaN,0.0,8.0,,22 / 22,,4909,2021-05-04 15:53:54:319
-0.392661,-0.052674,9.636956,-0.691971,-0.120301,9.781466,-0.045027,-2.05E-4,0.867853,0.9,-5.46,-42.78,162.7631,0.6791,4.0233,55.814007,37.500263,206.3973,NaN,0.0,8.0,,22 / 22,,4920,2021-05-04 15:53:54:330
-0.490826,-0.021548,9.703996,-0.691971,-0.120301,9.781466,-0.052969,-0.005703,0.857469,0.9,-5.46,-42.78,162.7631,0.6791,4.0233,55.814007,37.500263,206.3973,NaN,0.0,8.0,,22 / 22,,4929,2021-05-04 15:53:54:339
-0.490826,-0.021548,9.703996,-0.678223,-0.118605,9.782451,-0.061521,0.016899,0.856247,1.2,-5.46,-43.38,159.7685,0.7029,4.0465,55.814007,37.500263,206.3973,NaN,0.0,8.0,,22 / 22,,4939,2021-05-04 15:53:54:349
-0.61054,-0.021548,9.761458,-0.678223,-0.118605,9.782451,-0.067629,0.023618,0.851971,1.2,-5.46,-43.38,159.7685,0.7029,4.0465,55.814007,37.500263,206.3973,NaN,0.0,8.0,,22 / 22,,4949,2021-05-04 15:53:54:359
-0.684763,-0.112531,9.929058,-0.667086,-0.114651,9.783263,-0.062132,-0.00326,0.848916,1.98,-5.64,-42.66,159.7685,0.7029,4.0465,55.814007,37.500263,206.3973,NaN,0.0,8.0,,22 / 22,,4959,2021-05-04 15:53:54:369
-0.778139,-0.150839,10.055954,-0.661834,-0.112848,9.783641,-0.05419,-0.013033,0.848916,2.1,-5.4,-42.36,159.7685,0.7029,4.0465,55.814007,37.500263,206.3973,NaN,0.0,8.0,,22 / 22,,4970,2021-05-04 15:53:54:380
-0.668003,-0.129291,9.840469,-0.661834,-0.112848,9.783641,-0.04686,0.005903,0.852582,2.1,-5.4,-42.36,159.7685,0.7029,4.0465,55.814007,37.500263,206.3973,NaN,0.0,8.0,,22 / 22,,4979,2021-05-04 15:53:54:389
-0.668003,-0.129291,9.840469,-0.659803,-0.110589,9.783804,-0.045638,-0.011812,0.850138,1.62,-5.58,-42.48,172.6242,0.6593,3.87,55.814007,37.500263,206.3973,NaN,0.0,8.0,,22 / 22,,4989,2021-05-04 15:53:54:399
-0.469278,-0.110137,9.651321,-0.659803,-0.110589,9.783804,-0.048693,-0.033192,0.845251,1.62,-5.58,-42.48,172.6242,0.6593,3.87,55.814007,37.500263,206.3973,NaN,0.0,8.0,,22 / 22,,4999,2021-05-04 15:53:54:409
-0.395055,-0.098165,9.749487,-0.656407,-0.108338,9.784058,-0.057245,-0.008757,0.840975,1.44,-5.64,-42.12,172.6242,0.6593,3.87,55.814007,37.500263,206.3973,NaN,0.0,8.0,,22 / 22,,5009,2021-05-04 15:53:54:419
-0.452518,-0.122108,9.780613,-0.656407,-0.108338,9.784058,-0.062743,0.021786,0.837921,1.44,-5.64,-42.12,172.6242,0.6593,3.87,55.814007,37.500263,206.3973,NaN,0.0,8.0,,22 / 22,,5019,2021-05-04 15:53:54:429
-0.452518,-0.122108,9.780613,-0.64452,-0.108531,9.784845,-0.062132,0.012012,0.836088,1.92,-5.4,-42.24,171.5071,0.633,3.8382,55.814007,37.500263,206.3973,NaN,0.0,8.0,,22 / 22,,5029,2021-05-04 15:53:54:439
-0.562655,-0.153234,9.792584,-0.64452,-0.108531,9.784845,-0.05419,-0.006925,0.836699,1.92,-5.4,-42.24,171.5071,0.633,3.8382,55.814007,37.500263,206.3973,NaN,0.0,8.0,,22 / 22,,5040,2021-05-04 15:53:54:450
-0.747014,-0.174782,9.976943,-0.636186,-0.1108,9.785365,-0.045027,-0.00326,0.837921,2.34,-5.22,-42.54,171.5071,0.633,3.8382,55.814007,37.500263,206.3973,NaN,0.0,8.0,,22 / 22,,5050,2021-05-04 15:53:54:460
-0.754197,-0.138868,10.039194,-0.636186,-0.1108,9.785365,-0.045027,-0.00326,0.837921,2.34,-5.22,-42.54,171.5071,0.633,3.8382,55.814007,37.500263,206.3973,NaN,0.0,8.0,,22 / 22,,5059,2021-05-04 15:53:54:469
-0.766168,-0.074223,9.799767,-0.633464,-0.112547,9.785522,-0.035254,0.008958,0.843419,2.82,-5.22,-42.3,182.8109,0.6474,3.7198,55.814007,37.500263,206.3973,NaN,0.0,8.0,,22 / 22,,5070,2021-05-04 15:53:54:480
-0.766168,-0.074223,9.799767,-0.633464,-0.112547,9.785522,-0.034032,0.001016,0.843419,2.82,-5.22,-42.3,182.8109,0.6474,3.7198,55.814007,37.500263,206.3973,NaN,0.0,8.0,,22 / 22,,5079,2021-05-04 15:53:54:489
-0.64406,0.019154,9.529214,-0.63847,-0.108668,9.785241,-0.045027,-0.018531,0.84464,3.06,-5.4,-41.58,182.8109,0.6474,3.7198,55.814007,37.500263,206.3973,NaN,0.0,8.0,,22 / 22,,5090,2021-05-04 15:53:54:500
-0.562655,-0.064645,9.58907,-0.63847,-0.108668,9.785241,-0.063964,-0.016699,0.845862,3.06,-5.4,-41.58,182.8109,0.6474,3.7198,55.814007,37.500263,206.3973,NaN,0.0,8.0,,22 / 22,,5100,2021-05-04 15:53:54:510
-0.574626,-0.098165,9.878778,-0.638853,-0.103581,9.785271,-0.078625,-0.007536,0.843419,2.52,-4.86,-41.28,183.4003,0.6349,3.7332,55.814007,37.500263,206.3973,NaN,0.0,8.0,,22 / 22,,5109,2021-05-04 15:53:54:519
-0.608146,-0.160416,10.0368,-0.638853,-0.103581,9.785271,-0.075571,4.06E-4,0.849527,2.52,-4.86,-41.28,183.4003,0.6349,3.7332,55.814007,37.500263,206.3973,NaN,0.0,8.0,,22 / 22,,5120,2021-05-04 15:53:54:530
-0.608146,-0.160416,10.0368,-0.637434,-0.103208,9.785368,-0.061521,-2.05E-4,0.842808,2.16,-4.92,-42.12,183.4003,0.6349,3.7332,55.814007,37.500263,206.3973,NaN,0.0,8.0,,22 / 22,,5130,2021-05-04 15:53:54:540
-0.730254,-0.174782,10.010463,-0.637434,-0.103208,9.785368,-0.042584,0.006514,0.852582,2.16,-4.92,-42.12,183.4003,0.6349,3.7332,55.814007,37.500263,206.3973,NaN,0.0,8.0,,22 / 22,,5139,2021-05-04 15:53:54:549
-0.792505,-0.146051,9.816526,-0.638696,-0.103145,9.785285,-0.036475,0.005293,0.859301,2.52,-5.46,-42.42,182.7716,0.603,3.7271,55.814007,37.500263,206.3973,NaN,0.0,8.0,,22 / 22,,5150,2021-05-04 15:53:54:560
-0.763774,-0.119714,9.725544,-0.638696,-0.103145,9.785285,-0.036475,-0.009979,0.864799,2.52,-5.46,-42.42,182.7716,0.603,3.7271,55.814007,37.500263,206.3973,NaN,0.0,8.0,,22 / 22,,5159,2021-05-04 15:53:54:569
-0.723071,-0.090982,9.744699,-0.647976,-0.102713,9.78468,-0.047471,-0.012423,0.868464,3.18,-5.22,-42.06,182.7716,0.603,3.7271,55.814007,37.500263,206.3973,NaN,0.0,8.0,,22 / 22,,5169,2021-05-04 15:53:54:579
-0.723071,-0.090982,9.744699,-0.647976,-0.102713,9.78468,-0.060299,0.001627,0.874573,3.18,-5.22,-42.06,182.7716,0.603,3.7271,55.814007,37.500263,206.3973,NaN,0.0,8.0,,22 / 22,,5179,2021-05-04 15:53:54:589
-0.751802,-0.059857,9.751882,-0.655688,-0.103087,9.784163,-0.069462,0.002238,0.878238,3.18,-5.04,-42.6,181.5978,0.6001,3.7888,55.814007,37.500263,206.3973,NaN,0.0,8.0,,22 / 22,,5189,2021-05-04 15:53:54:599
-0.634483,-0.062251,9.711179,-0.655688,-0.103087,9.784163,-0.065797,-0.024029,0.882514,3.18,-5.04,-42.6,181.5978,0.6001,3.7888,55.814007,37.500263,206.3973,NaN,0.0,8.0,,22 / 22,,5200,2021-05-04 15:53:54:610
-0.608146,-0.10056,9.921875,-0.664539,-0.10342,9.783562,-0.060299,-0.015477,0.881292,2.94,-5.22,-43.14,181.5978,0.6001,3.7888,55.814007,37.500263,206.3973,NaN,0.0,8.0,,22 / 22,,5209,2021-05-04 15:53:54:619
-0.608146,-0.10056,9.921875,-0.664539,-0.10342,9.783562,-0.051136,0.016288,0.88679,2.94,-5.22,-43.14,181.5978,0.6001,3.7888,55.814007,37.500263,206.3973,NaN,0.0,8.0,,22 / 22,,5219,2021-05-04 15:53:54:629
-0.682368,-0.076617,9.914692,-0.666225,-0.101648,9.783465,-0.045638,0.011401,0.889844,3.3,-4.92,-43.56,180.1186,0.6042,3.8858,55.814007,37.500263,206.3973,NaN,0.0,8.0,,22 / 22,,5229,2021-05-04 15:53:54:639
-0.6273,-0.105348,9.737515,-0.666225,-0.101648,9.783465,-0.049304,-0.016699,0.892899,3.3,-4.92,-43.56,180.1186,0.6042,3.8858,55.814007,37.500263,206.3973,NaN,0.0,8.0,,22 / 22,,5240,2021-05-04 15:53:54:650
-0.696734,-0.122108,9.751882,-0.670806,-0.098453,9.783185,-0.05419,-0.008757,0.899618,3.48,-4.74,-43.02,180.1186,0.6042,3.8858,55.814007,37.500263,206.3973,NaN,0.0,8.0,,22 / 22,,5250,2021-05-04 15:53:54:660
-0.754197,-0.134079,9.826104,-0.670806,-0.098453,9.783185,-0.065186,0.013845,0.903283,3.48,-4.74,-43.02,180.1186,0.6042,3.8858,55.814007,37.500263,206.3973,NaN,0.0,8.0,,22 / 22,,5259,2021-05-04 15:53:54:669
-0.703917,-0.119714,9.811738,-0.672929,-0.098392,9.78304,-0.065186,-0.00387,0.906949,3.6,-4.8,-42.06,191.6439,0.5752,3.9225,55.814007,37.500263,206.3973,NaN,0.0,8.0,,22 / 22,,5269,2021-05-04 15:53:54:679
-0.703917,-0.119714,9.811738,-0.672929,-0.098392,9.78304,-0.065186,-0.00387,0.906949,3.6,-4.8,-42.06,191.6439,0.5752,3.9225,55.814007,37.500263,206.3973,NaN,0.0,8.0,,22 / 22,,5280,2021-05-04 15:53:54:690
-0.708705,-0.126897,9.871595,-0.677799,-0.100767,9.78268,-0.059077,-0.023418,0.911225,3.96,-5.1,-42.06,191.6439,0.5752,3.9225,55.814007,37.500263,206.3973,NaN,0.0,8.0,,22 / 22,,5289,2021-05-04 15:53:54:699
-0.67758,-0.143656,9.864412,-0.677799,-0.100767,9.78268,-0.05419,-0.002649,0.917333,3.96,-5.1,-42.06,191.6439,0.5752,3.9225,55.814007,37.500263,206.3973,NaN,0.0,8.0,,22 / 22,,5299,2021-05-04 15:53:54:709
-0.646454,-0.117319,9.785401,-0.68037,-0.102244,9.782486,-0.051136,0.002238,0.922831,3.96,-5.04,-42.66,190.5957,0.5887,3.9634,55.814007,37.500263,206.3973,NaN,0.0,8.0,,22 / 22,,5310,2021-05-04 15:53:54:720
-0.656031,-0.107742,9.826104,-0.68037,-0.102244,9.782486,-0.049914,-0.013644,0.925275,3.96,-5.04,-42.66,190.5957,0.5887,3.9634,55.814007,37.500263,206.3973,NaN,0.0,8.0,,22 / 22,,5320,2021-05-04 15:53:54:730
-0.651243,-0.098165,9.842864,-0.681186,-0.103212,9.782419,-0.054801,0.001016,0.931994,3.9,-5.04,-43.14,190.5957,0.5887,3.9634,55.814007,37.500263,206.3973,NaN,0.0,8.0,,22 / 22,,5330,2021-05-04 15:53:54:740
-0.651243,-0.098165,9.842864,-0.681186,-0.103212,9.782419,-0.058467,0.012012,0.938103,3.9,-5.04,-43.14,190.5957,0.5887,3.9634,55.814007,37.500263,206.3973,NaN,0.0,8.0,,22 / 22,,5339,2021-05-04 15:53:54:749
-0.725465,-0.112531,9.727939,-0.681535,-0.104509,9.782381,-0.062743,0.009569,0.943601,3.42,-4.86,-42.48,180.7916,0.603,3.9833,55.814007,37.500263,206.3973,NaN,0.0,8.0,,22 / 22,,5349,2021-05-04 15:53:54:759
-0.768562,-0.10056,9.751882,-0.681535,-0.104509,9.782381,-0.064575,-0.006314,0.951542,3.42,-4.86,-42.48,180.7916,0.603,3.9833,55.814007,37.500263,206.3973,NaN,0.0,8.0,,22 / 22,,5359,2021-05-04 15:53:54:769
-0.782928,-0.107742,9.890749,-0.685132,-0.105739,9.782117,-0.061521,-0.016088,0.956429,3.66,-4.56,-43.02,180.7916,0.603,3.9833,55.814007,37.500263,206.3973,NaN,0.0,8.0,,22 / 22,,5369,2021-05-04 15:53:54:779
-0.782928,-0.107742,9.890749,-0.685132,-0.105739,9.782117,-0.059077,-0.00326,0.963148,3.66,-4.56,-43.02,180.7916,0.603,3.9833,55.814007,37.500263,206.3973,NaN,0.0,8.0,,22 / 22,,5380,2021-05-04 15:53:54:790
-0.770956,-0.143656,9.881172,-0.689942,-0.105899,9.781776,-0.056023,-0.00387,0.9717,4.14,-5.16,-42.84,190.2259,0.6178,4.0064,55.814007,37.500263,206.3973,NaN,0.0,8.0,,22 / 22,,5390,2021-05-04 15:53:54:800
-0.739831,-0.155628,9.775824,-0.689942,-0.105899,9.781776,-0.062743,-0.01059,0.979031,4.14,-5.16,-42.84,190.2259,0.6178,4.0064,55.814007,37.500263,206.3973,NaN,0.0,8.0,,22 / 22,,5400,2021-05-04 15:53:54:810
-0.67758,-0.177176,9.768641,-0.697118,-0.106809,9.781258,-0.062743,-0.01059,0.979031,4.08,-5.1,-42.06,190.2259,0.6178,4.0064,55.814007,37.500263,206.3973,NaN,0.0,8.0,,22 / 22,,5409,2021-05-04 15:53:54:819
-0.706311,-0.177176,9.878778,-0.697118,-0.106809,9.781258,-0.063964,-0.012423,0.988194,4.08,-5.1,-42.06,190.2259,0.6178,4.0064,55.814007,37.500263,206.3973,NaN,0.0,8.0,,22 / 22,,5419,2021-05-04 15:53:54:829
-0.706311,-0.177176,9.878778,-0.699912,-0.110382,9.781019,-0.065186,0.001627,0.995524,4.38,-5.16,-42.78,189.6796,0.624,4.0766,55.814007,37.500263,206.3973,NaN,0.0,8.0,,22 / 22,,5429,2021-05-04 15:53:54:839
-0.718282,-0.172388,9.890749,-0.699912,-0.110382,9.781019,-0.060299,0.005293,0.9998,4.38,-5.16,-42.78,189.6796,0.624,4.0766,55.814007,37.500263,206.3973,NaN,0.0,8.0,,22 / 22,,5439,2021-05-04 15:53:54:849
-0.701522,-0.117319,9.852441,-0.703502,-0.111809,9.780745,-0.051747,-0.005092,1.007131,5.1,-5.04,-42.36,189.6796,0.624,4.0766,55.814007,37.500263,206.3973,NaN,0.0,8.0,,22 / 22,,5450,2021-05-04 15:53:54:860
-0.69434,-0.136474,9.771035,-0.703502,-0.111809,9.780745,-0.05358,-0.004481,1.011407,5.1,-5.04,-42.36,189.6796,0.624,4.0766,55.814007,37.500263,206.3973,NaN,0.0,8.0,,22 / 22,,5460,2021-05-04 15:53:54:870
-0.69434,-0.136474,9.771035,-0.703502,-0.111809,9.780745,-0.05358,-0.004481,1.011407,5.1,-5.04,-42.36,189.6796,0.624,4.0766,55.814007,37.500263,206.3973,NaN,0.0,8.0,,22 / 22,,5469,2021-05-04 15:53:54:879
-0.69434,-0.136474,9.771035,-0.703502,-0.111809,9.780745,-0.05358,-0.004481,1.011407,5.1,-5.04,-42.36,189.6796,0.624,4.0766,55.814007,37.500263,206.3973,NaN,0.0,8.0,,22 / 22,,5480,2021-05-04 15:53:54:890
-0.699128,-0.086194,9.72315,-0.704311,-0.107954,9.780729,-0.063964,4.06E-4,1.02057,5.22,-5.04,-42.12,199.8281,0.6307,4.1188,55.814007,37.500263,206.3973,NaN,0.0,8.0,,22 / 22,,5489,2021-05-04 15:53:54:899
-0.624906,-0.143656,9.917087,-0.704311,-0.107954,9.780729,-0.069462,-0.012423,1.032787,5.22,-5.04,-42.12,199.8281,0.6307,4.1188,55.814007,37.500263,206.3973,NaN,0.0,8.0,,22 / 22,,5499,2021-05-04 15:53:54:909
-0.641666,-0.222668,9.838076,-0.705916,-0.10448,9.780652,-0.070684,4.06E-4,1.036452,5.46,-4.86,-42.06,199.8281,0.6307,4.1188,55.814007,37.500263,206.3973,NaN,0.0,8.0,,22 / 22,,5509,2021-05-04 15:53:54:919
-0.641666,-0.222668,9.838076,-0.705916,-0.10448,9.780652,-0.066408,0.008958,1.043172,5.46,-4.86,-42.06,199.8281,0.6307,4.1188,55.814007,37.500263,206.3973,NaN,0.0,8.0,,22 / 22,,5519,2021-05-04 15:53:54:929
-0.656031,-0.148445,9.768641,-0.708753,-0.103074,9.780462,-0.060299,-0.007536,1.048669,5.82,-4.86,-41.88,208.5123,0.6104,4.1282,55.814007,37.500263,206.3973,NaN,0.0,8.0,,22 / 22,,5529,2021-05-04 15:53:54:939
-0.658426,-0.217879,9.917087,-0.708753,-0.103074,9.780462,-0.058467,-0.015477,1.053556,5.82,-4.86,-41.88,208.5123,0.6104,4.1282,55.814007,37.500263,206.3973,NaN,0.0,8.0,,22 / 22,,5539,2021-05-04 15:53:54:949
-0.739831,-0.225062,9.993703,-0.705627,-0.105701,9.78066,-0.057245,0.005903,1.062108,5.28,-4.74,-42.3,208.5123,0.6104,4.1282,55.814007,37.500263,206.3973,NaN,0.0,8.0,,22 / 22,,5550,2021-05-04 15:53:54:960
-0.739831,-0.225062,9.993703,-0.705627,-0.105701,9.78066,-0.057245,0.005903,1.062108,5.28,-4.74,-42.3,208.5123,0.6104,4.1282,55.814007,37.500263,206.3973,NaN,0.0,8.0,,22 / 22,,5559,2021-05-04 15:53:54:969
-0.766168,-0.093377,9.80695,-0.703867,-0.113929,9.780694,-0.059077,0.008958,1.07005,5.46,-4.86,-42.66,199.1011,0.6176,4.1265,55.814007,37.500263,206.3973,NaN,0.0,8.0,,22 / 22,,5569,2021-05-04 15:53:54:979
-0.761379,-0.117319,9.665688,-0.703867,-0.113929,9.780694,-0.061521,-0.006925,1.077991,5.46,-4.86,-42.66,199.1011,0.6176,4.1265,55.814007,37.500263,206.3973,NaN,0.0,8.0,,22 / 22,,5579,2021-05-04 15:53:54:989
-0.69434,-0.093377,9.718362,-0.704388,-0.119077,9.780595,-0.068851,-0.009368,1.0841,5.88,-4.8,-42.96,199.1011,0.6176,4.1265,55.814007,37.500263,206.3973,NaN,0.0,8.0,,22 / 22,,5589,2021-05-04 15:53:54:999
-0.624906,-0.105348,9.802161,-0.704388,-0.119077,9.780595,-0.072516,-0.00387,1.093873,5.88,-4.8,-42.96,199.1011,0.6176,4.1265,55.814007,37.500263,206.3973,NaN,0.0,8.0,,22 / 22,,5599,2021-05-04 15:53:55:009
-0.624906,-0.105348,9.802161,-0.704444,-0.122692,9.780546,-0.075571,-0.009979,1.097539,6.42,-5.34,-42.78,207.6566,0.6957,4.1193,55.814007,37.500263,206.3973,NaN,0.0,8.0,,22 / 22,,5609,2021-05-04 15:53:55:019
-0.639271,-0.167599,9.91948,-0.704444,-0.122692,9.780546,-0.075571,-0.013644,1.099982,6.42,-5.34,-42.78,207.6566,0.6957,4.1193,55.814007,37.500263,206.3973,NaN,0.0,8.0,,22 / 22,,5619,2021-05-04 15:53:55:029
-0.574626,-0.232245,9.907509,-0.700637,-0.126154,9.780776,-0.070073,-0.005703,1.10548,6.54,-5.1,-42.54,207.6566,0.6957,4.1193,55.814007,37.500263,206.3973,NaN,0.0,8.0,,22 / 22,,5629,2021-05-04 15:53:55:039
-0.562655,-0.203513,9.797373,-0.700637,-0.126154,9.780776,-0.071295,-0.007536,1.10548,6.54,-5.1,-42.54,207.6566,0.6957,4.1193,55.814007,37.500263,206.3973,NaN,0.0,8.0,,22 / 22,,5639,2021-05-04 15:53:55:049
-0.562655,-0.203513,9.797373,-0.693239,-0.130917,9.78124,-0.070684,-0.001427,1.103647,6.12,-4.98,-42.54,207.6585,0.7371,4.0973,55.814007,37.500263,206.3973,NaN,0.0,8.0,,22 / 22,,5649,2021-05-04 15:53:55:059
-0.56026,-0.165205,9.797373,-0.693239,-0.130917,9.78124,-0.067019,-0.00326,1.102426,6.12,-4.98,-42.54,207.6585,0.7371,4.0973,55.814007,37.500263,206.3973,NaN,0.0,8.0,,22 / 22,,5659,2021-05-04 15:53:55:069
-0.565049,-0.177176,9.854836,-0.682126,-0.13557,9.781959,-0.064575,-0.001427,1.104869,6.78,-5.4,-42.72,207.6585,0.7371,4.0973,55.814007,37.500263,206.3973,NaN,0.0,8.0,,22 / 22,,5669,2021-05-04 15:53:55:079
-0.548289,-0.167599,9.842864,-0.682126,-0.13557,9.781959,-0.063353,-0.007536,1.101815,6.78,-5.4,-42.72,207.6585,0.7371,4.0973,55.814007,37.500263,206.3973,NaN,0.0,8.0,,22 / 22,,5679,2021-05-04 15:53:55:089
-0.548289,-0.167599,9.842864,-0.669717,-0.139392,9.782762,-0.066408,-0.00326,1.106702,6.78,-5.04,-42.6,215.4856,0.7921,3.989,55.814007,37.500263,206.3973,NaN,0.0,8.0,,22 / 22,,5689,2021-05-04 15:53:55:099
-0.6273,-0.198725,9.780613,-0.669717,-0.139392,9.782762,-0.073127,0.005903,1.109756,6.78,-5.04,-42.6,215.4856,0.7921,3.989,55.814007,37.500263,206.3973,NaN,0.0,8.0,,22 / 22,,5701,2021-05-04 15:53:55:111
-0.632089,-0.220273,9.797373,-0.659443,-0.144883,9.783381,-0.073738,-0.011201,1.115254,6.84,-5.16,-42.78,215.4856,0.7921,3.989,55.814007,37.500263,206.3973,NaN,0.0,8.0,,22 / 22,,5709,2021-05-04 15:53:55:119
-0.641666,-0.189148,9.926663,-0.659443,-0.144883,9.783381,-0.067019,-0.013033,1.110367,6.84,-5.16,-42.78,215.4856,0.7921,3.989,55.814007,37.500263,206.3973,NaN,0.0,8.0,,22 / 22,,5719,2021-05-04 15:53:55:129
-0.533923,-0.177176,9.881172,-0.65074,-0.151492,9.783863,-0.061521,-0.005092,1.116475,7.14,-5.52,-42.78,211.6456,0.8465,3.8562,55.814007,37.500263,206.3973,NaN,0.0,8.0,,22 / 22,,5729,2021-05-04 15:53:55:139
-0.557866,-0.129291,9.787795,-0.646991,-0.153896,9.784074,-0.062743,-0.00387,1.116475,6.9,-5.76,-42.24,211.6456,0.8465,3.8562,55.814007,37.500263,206.3973,NaN,0.0,8.0,,22 / 22,,5740,2021-05-04 15:53:55:150
-0.557866,-0.129291,9.787795,-0.646991,-0.153896,9.784074,-0.063353,0.005903,1.121973,6.9,-5.76,-42.24,211.6456,0.8465,3.8562,55.814007,37.500263,206.3973,NaN,0.0,8.0,,22 / 22,,5749,2021-05-04 15:53:55:159
-0.620117,-0.131685,9.730332,-0.639782,-0.156582,9.784506,-0.066408,-2.05E-4,1.12686,6.72,-5.88,-41.22,211.6456,0.8465,3.8562,55.814007,37.500263,206.3973,NaN,0.0,8.0,,22 / 22,,5759,2021-05-04 15:53:55:169
-0.605751,-0.146051,9.792584,-0.639782,-0.156582,9.784506,-0.073127,-0.007536,1.127471,6.72,-5.88,-41.22,211.6456,0.8465,3.8562,55.814007,37.500263,206.3973,NaN,0.0,8.0,,22 / 22,,5770,2021-05-04 15:53:55:180
-0.663214,-0.174782,9.871595,-0.634597,-0.157062,9.784836,-0.075571,-0.004481,1.134801,7.02,-5.88,-41.82,212.4498,0.9149,3.7411,55.814007,37.500263,206.3973,NaN,0.0,8.0,,22 / 22,,5779,2021-05-04 15:53:55:189
-0.663214,-0.174782,9.871595,-0.634597,-0.157062,9.784836,-0.079847,0.007736,1.137245,7.02,-5.88,-41.82,212.4498,0.9149,3.7411,55.814007,37.500263,206.3973,NaN,0.0,8.0,,22 / 22,,5789,2021-05-04 15:53:55:199
-0.720677,-0.237033,9.828498,-0.632686,-0.159103,9.784926,-0.074349,0.007125,1.147019,7.74,-5.4,-42.3,212.4498,0.9149,3.7411,55.814007,37.500263,206.3973,NaN,0.0,8.0,,22 / 22,,5800,2021-05-04 15:53:55:210
-0.706311,-0.217879,9.797373,-0.632686,-0.159103,9.784926,-0.071906,-0.009979,1.151295,7.74,-5.4,-42.3,212.4498,0.9149,3.7411,55.814007,37.500263,206.3973,NaN,0.0,8.0,,22 / 22,,5809,2021-05-04 15:53:55:219
-0.622511,-0.251399,9.897932,-0.635342,-0.162717,9.784695,-0.067019,-0.01792,1.155571,8.1,-5.04,-42.48,222.8349,0.9296,3.6996,55.814007,37.500263,206.3973,NaN,0.0,8.0,,22 / 22,,5819,2021-05-04 15:53:55:229
-0.622511,-0.251399,9.897932,-0.635342,-0.162717,9.784695,-0.067629,-0.009979,1.154349,8.1,-5.04,-42.48,222.8349,0.9296,3.6996,55.814007,37.500263,206.3973,NaN,0.0,8.0,,22 / 22,,5829,2021-05-04 15:53:55:239
