ACCELEROMETER X (m/s²),ACCELEROMETER Y (m/s²),ACCELEROMETER Z (m/s²),GRAVITY X (m/s²),GRAVITY Y (m/s²),GRAVITY Z (m/s²),GYROSCOPE X (rad/s),GYROSCOPE Y (rad/s),GYROSCOPE Z (rad/s),MAGNETIC FIELD X (μT),MAGNETIC FIELD Y (μT),MAGNETIC FIELD Z (μT),ORIENTATION Z (azimuth °),ORIENTATION X (pitch °),ORIENTATION Y (roll °),LOCATION Latitude : ,LOCATION Longitude : ,LOCATION Altitude ( m),LOCATION Altitude-google ( m),LOCATION Speed ( m/s),LOCATION Accuracy ( m),LOCATION ORIENTATION (°),Satellites in range,GPS NMEA,Time since start in ms ,YYYY-MO-DD HH-MI-SS_SSS
-0.452518,-0.090982,9.862018,-0.460625,-0.063396,9.795622,0.010561,4.06E-4,-0.099146,12.54,-17.7,-43.86,208.5947,0.3545,2.5764,55.814007,37.500263,206.3973,NaN,0.0,8.0,,23 / 25,,13,2021-05-04 15:54:02:215
-0.452518,-0.090982,9.862018,-0.460625,-0.063396,9.795622,0.006285,0.005903,-0.093038,12.54,-17.7,-43.86,208.5947,0.3545,2.5764,55.814007,37.500263,206.3973,NaN,0.0,8.0,,23 / 25,,23,2021-05-04 15:54:02:225
-0.52674,-0.007183,9.713573,-0.466215,-0.065099,9.795345,0.005063,0.007736,-0.086929,12.42,-17.82,-44.28,208.4776,0.3704,2.6923,55.814007,37.500263,206.3973,NaN,0.0,8.0,,23 / 25,,32,2021-05-04 15:54:02:234
-0.605751,0.021548,9.687236,-0.466215,-0.065099,9.795345,0.00262,0.004071,-0.077766,12.42,-17.82,-44.28,208.4776,0.3704,2.6923,55.814007,37.500263,206.3973,NaN,0.0,8.0,,23 / 25,,43,2021-05-04 15:54:02:245
-0.639271,-0.007183,9.715967,-0.475483,-0.06284,9.794914,0.003842,0.01079,-0.067992,12.6,-18.36,-44.04,208.4776,0.3704,2.6923,55.814007,37.500263,206.3973,NaN,0.0,8.0,,23 / 25,,53,2021-05-04 15:54:02:255
-0.639271,-0.007183,9.715967,-0.475483,-0.06284,9.794914,-0.002267,0.004682,-0.063105,12.6,-18.36,-44.04,208.4776,0.3704,2.6923,55.814007,37.500263,206.3973,NaN,0.0,8.0,,23 / 25,,62,2021-05-04 15:54:02:264
-0.629694,-0.079011,9.787795,-0.489602,-0.061014,9.79423,-0.010819,-0.009979,-0.05944,12.48,-18.18,-43.98,208.3171,0.3671,2.7792,55.814007,37.500263,206.3973,NaN,0.0,8.0,,23 / 25,,72,2021-05-04 15:54:02:274
-0.548289,-0.124502,9.907509,-0.489602,-0.061014,9.79423,-0.010208,-0.01792,-0.05211,12.48,-18.18,-43.98,208.3171,0.3671,2.7792,55.814007,37.500263,206.3973,NaN,0.0,8.0,,23 / 25,,83,2021-05-04 15:54:02:285
-0.691945,-0.167599,10.015251,-0.489602,-0.061014,9.79423,-0.0041,-0.004481,-0.036838,12.48,-18.18,-43.98,208.3171,0.3671,2.7792,55.814007,37.500263,206.3973,NaN,0.0,8.0,,23 / 25,,92,2021-05-04 15:54:02:294
-0.31365,-0.047885,9.93624,-0.500645,-0.063181,9.793658,0.005063,-0.016088,-0.032562,12.12,-18.12,-44.16,208.3171,0.3671,2.7792,55.814007,37.500263,206.3973,NaN,0.0,8.0,,23 / 25,,102,2021-05-04 15:54:02:304
-0.318439,0.019154,9.718362,-0.499792,-0.0628,9.793705,0.020946,-0.002649,-0.019123,12.24,-18.42,-44.04,208.0362,0.3691,2.9264,55.814007,37.500263,206.3973,NaN,0.0,8.0,,23 / 25,,112,2021-05-04 15:54:02:314
-0.318439,0.019154,9.718362,-0.499792,-0.0628,9.793705,0.022779,0.001627,-0.00996,12.24,-18.42,-44.04,208.0362,0.3691,2.9264,55.814007,37.500263,206.3973,NaN,0.0,8.0,,23 / 25,,123,2021-05-04 15:54:02:325
-0.169993,-0.055068,9.490906,-0.498276,-0.058582,9.793808,0.006285,0.009569,-0.007517,12.72,-17.52,-43.86,208.0362,0.3691,2.9264,55.814007,37.500263,206.3973,NaN,0.0,8.0,,23 / 25,,133,2021-05-04 15:54:02:335
-0.478855,0.119714,9.584282,-0.498276,-0.058582,9.793808,-0.01143,0.032781,-0.006295,12.72,-17.52,-43.86,208.0362,0.3691,2.9264,55.814007,37.500263,206.3973,NaN,0.0,8.0,,23 / 25,,142,2021-05-04 15:54:02:344
-0.205908,-0.007183,9.560339,-0.502539,-0.059148,9.793587,-0.023036,-0.057016,-0.005684,13.14,-17.52,-43.8,210.472,0.3423,2.9125,55.814007,37.500263,206.3973,NaN,0.0,8.0,,23 / 25,,152,2021-05-04 15:54:02:354
-0.153234,0.052674,10.010463,-0.502539,-0.059148,9.793587,-0.02548,-0.064957,-0.005684,13.14,-17.52,-43.8,210.472,0.3423,2.9125,55.814007,37.500263,206.3973,NaN,0.0,8.0,,23 / 25,,162,2021-05-04 15:54:02:364
-0.153234,0.052674,10.010463,-0.490662,-0.063953,9.794159,-0.02548,-0.064957,-0.005684,12.6,-18.06,-43.92,210.472,0.3423,2.9125,55.814007,37.500263,206.3973,NaN,0.0,8.0,,23 / 25,,172,2021-05-04 15:54:02:374
0.026337,-0.035914,10.235525,-0.490662,-0.063953,9.794159,-0.003489,0.061492,-7.97E-4,12.6,-18.06,-43.92,210.472,0.3423,2.9125,55.814007,37.500263,206.3973,NaN,0.0,8.0,,23 / 25,,182,2021-05-04 15:54:02:384
-0.294496,-0.110137,9.857229,-0.496495,-0.065856,9.793852,0.011783,0.05294,-0.006295,12.18,-18.24,-43.74,208.1425,0.3736,2.868,55.814007,37.500263,206.3973,NaN,0.0,8.0,,23 / 25,,192,2021-05-04 15:54:02:394
-0.320833,0.007183,9.249084,-0.496495,-0.065856,9.793852,0.018502,-0.002038,-0.006295,12.18,-18.24,-43.74,208.1425,0.3736,2.868,55.814007,37.500263,206.3973,NaN,0.0,8.0,,23 / 25,,203,2021-05-04 15:54:02:405
-0.490826,-0.090982,9.586677,-0.496495,-0.065856,9.793852,0.018502,-0.002038,-0.006295,12.18,-18.24,-43.74,208.1425,0.3736,2.868,55.814007,37.500263,206.3973,NaN,0.0,8.0,,23 / 25,,212,2021-05-04 15:54:02:414
-0.490826,-0.090982,9.586677,-0.50133,-0.062953,9.793625,0.003231,-0.009979,-0.013014,12.9,-17.76,-43.38,208.1425,0.3736,2.868,55.814007,37.500263,206.3973,NaN,0.0,8.0,,23 / 25,,222,2021-05-04 15:54:02:424
-0.646454,-0.136474,10.216371,-0.489425,-0.064373,9.794218,-0.012652,0.016288,-0.012404,12.72,-17.04,-43.86,211.8379,0.3678,2.9304,55.814007,37.500263,206.3973,NaN,0.0,8.0,,23 / 25,,232,2021-05-04 15:54:02:434
-0.869122,-0.210696,10.094262,-0.489425,-0.064373,9.794218,-0.010819,-0.002038,-0.005073,12.72,-17.04,-43.86,211.8379,0.3678,2.9304,55.814007,37.500263,206.3973,NaN,0.0,8.0,,23 / 25,,242,2021-05-04 15:54:02:444
-1.256994,-0.237033,9.778218,-0.496238,-0.070973,9.79383,-0.003489,-0.039911,0.012031,11.94,-17.4,-44.1,211.8379,0.3678,2.9304,55.814007,37.500263,206.3973,NaN,0.0,8.0,,23 / 25,,252,2021-05-04 15:54:02:454
-1.161223,0.047885,10.063137,-0.496238,-0.070973,9.79383,0.022779,-0.075342,0.046239,11.94,-17.4,-44.1,211.8379,0.3678,2.9304,55.814007,37.500263,206.3973,NaN,0.0,8.0,,23 / 25,,262,2021-05-04 15:54:02:464
0.402238,0.05028,9.632168,-0.499116,-0.07397,9.793661,0.039883,-0.078396,0.052348,12.0,-17.76,-43.32,208.1718,0.4147,2.9006,55.814007,37.500263,206.3973,NaN,0.0,8.0,,23 / 25,,272,2021-05-04 15:54:02:474
0.402238,0.05028,9.632168,-0.499116,-0.07397,9.793661,0.025833,-0.069844,0.047461,12.0,-17.76,-43.32,208.1718,0.4147,2.9006,55.814007,37.500263,206.3973,NaN,0.0,8.0,,23 / 25,,283,2021-05-04 15:54:02:485
0.258582,0.428575,9.826104,-0.488295,-0.068521,9.794247,-0.018149,0.151289,0.037076,11.88,-17.76,-43.32,208.1718,0.4147,2.9006,55.814007,37.500263,206.3973,NaN,0.0,8.0,,23 / 25,,292,2021-05-04 15:54:02:494
0.023943,-0.220273,9.11261,-0.488295,-0.068521,9.794247,-0.048693,0.167172,0.031579,11.88,-17.76,-43.32,208.1718,0.4147,2.9006,55.814007,37.500263,206.3973,NaN,0.0,8.0,,23 / 25,,302,2021-05-04 15:54:02:504
-0.550683,-0.107742,8.971348,-0.518549,-0.07553,9.79264,-0.055412,0.039501,0.022416,12.06,-18.18,-43.14,208.2719,0.4003,2.8541,55.814007,37.500263,206.3973,NaN,0.0,8.0,,23 / 25,,312,2021-05-04 15:54:02:514
-0.550683,-0.107742,8.971348,-0.518549,-0.07553,9.79264,-0.041362,-0.105885,0.007755,12.06,-18.18,-43.14,208.2719,0.4003,2.8541,55.814007,37.500263,206.3973,NaN,0.0,8.0,,23 / 25,,322,2021-05-04 15:54:02:524
-0.881093,-0.088588,10.920287,-0.508032,-0.085165,9.793112,0.001398,-0.05274,0.014474,11.7,-17.82,-43.14,208.2719,0.4003,2.8541,55.814007,37.500263,206.3973,NaN,0.0,8.0,,23 / 25,,332,2021-05-04 15:54:02:534
-1.041509,-0.342381,11.47576,-0.508032,-0.085165,9.793112,0.04477,0.030949,0.020583,11.7,-17.82,-43.14,208.2719,0.4003,2.8541,55.814007,37.500263,206.3973,NaN,0.0,8.0,,23 / 25,,343,2021-05-04 15:54:02:545
-0.648848,0.079011,10.338479,-0.505973,-0.080491,9.793258,0.064928,-0.005092,0.024859,11.22,-17.58,-44.34,205.3376,0.4976,2.9696,55.814007,37.500263,206.3973,NaN,0.0,8.0,,23 / 25,,353,2021-05-04 15:54:02:555
0.0,0.064645,8.439818,-0.505973,-0.080491,9.793258,0.042937,-0.044798,0.018751,11.22,-17.58,-44.34,205.3376,0.4976,2.9696,55.814007,37.500263,206.3973,NaN,0.0,8.0,,23 / 25,,363,2021-05-04 15:54:02:565
0.155628,-0.064645,8.696006,-0.50104,-0.06966,9.793594,-0.01876,-0.020975,-7.97E-4,11.88,-17.7,-44.58,205.3376,0.4976,2.9696,55.814007,37.500263,206.3973,NaN,0.0,8.0,,23 / 25,,372,2021-05-04 15:54:02:574
0.155628,-0.064645,8.696006,-0.50104,-0.06966,9.793594,-0.076182,0.057216,-0.005684,11.88,-17.7,-44.58,205.3376,0.4976,2.9696,55.814007,37.500263,206.3973,NaN,0.0,8.0,,23 / 25,,383,2021-05-04 15:54:02:585
-0.517163,-0.122108,9.967366,-0.50104,-0.06966,9.793594,-0.076182,0.057216,-0.005684,11.52,-17.46,-44.34,205.3376,0.407,2.9287,55.814007,37.500263,206.3973,NaN,0.0,8.0,,23 / 25,,392,2021-05-04 15:54:02:594
-0.852362,-0.21309,10.740717,-0.50427,-0.078929,9.793359,-0.033421,-0.105885,-0.002019,11.52,-17.46,-44.34,209.3476,0.407,2.9287,55.814007,37.500263,206.3973,NaN,0.0,8.0,,23 / 25,,402,2021-05-04 15:54:02:604
-0.852362,-0.349564,10.987327,-0.495998,-0.09019,9.793684,0.024611,-0.120546,0.014474,10.86,-17.76,-43.8,209.3476,0.407,2.9287,55.814007,37.500263,206.3973,NaN,0.0,8.0,,23 / 25,,413,2021-05-04 15:54:02:615
-0.931373,-0.349564,10.987327,-0.495998,-0.09019,9.793684,0.024611,-0.120546,0.014474,10.86,-17.76,-43.8,209.3476,0.407,2.9287,55.814007,37.500263,206.3973,NaN,0.0,8.0,,23 / 25,,423,2021-05-04 15:54:02:625
-0.82363,-0.112531,10.130177,-0.483136,-0.08122,9.794406,0.070426,0.021175,0.051737,11.52,-18.12,-43.8,207.9294,0.5269,2.8992,55.814007,37.500263,206.3973,NaN,0.0,8.0,,23 / 25,,432,2021-05-04 15:54:02:634
-0.56026,-0.141262,9.186832,-0.483136,-0.08122,9.794406,0.0802,0.054162,0.073118,11.52,-18.12,-43.8,207.9294,0.5269,2.8992,55.814007,37.500263,206.3973,NaN,0.0,8.0,,23 / 25,,443,2021-05-04 15:54:02:645
-0.84039,0.141262,8.894731,-0.483136,-0.08122,9.794406,0.069815,-0.020975,0.095109,11.52,-18.12,-43.8,207.9294,0.5269,2.8992,55.814007,37.500263,206.3973,NaN,0.0,8.0,,23 / 25,,452,2021-05-04 15:54:02:654
-0.672791,0.141262,9.119793,-0.489059,-0.065335,9.79423,0.016059,-0.033192,0.120765,11.76,-17.94,-44.16,207.9294,0.5269,2.8992,55.814007,37.500263,206.3973,NaN,0.0,8.0,,23 / 25,,462,2021-05-04 15:54:02:664
-0.672791,0.141262,9.119793,-0.48197,-0.062579,9.7946,-0.037697,-0.057016,0.136037,11.64,-17.94,-43.74,208.1521,0.3817,2.8586,55.814007,37.500263,206.3973,NaN,0.0,8.0,,23 / 25,,473,2021-05-04 15:54:02:675
-0.620117,0.179571,10.055954,-0.48197,-0.062579,9.7946,-0.067629,-0.090002,0.148865,11.64,-17.94,-43.74,208.1521,0.3817,2.8586,55.814007,37.500263,206.3973,NaN,0.0,8.0,,23 / 25,,482,2021-05-04 15:54:02:684
-0.648848,0.102954,10.474953,-0.465415,-0.073556,9.795324,-0.066408,-0.085116,0.154973,11.76,-18.42,-43.38,208.1521,0.3817,2.8586,55.814007,37.500263,206.3973,NaN,0.0,8.0,,23 / 25,,493,2021-05-04 15:54:02:695
-0.59378,-0.038308,9.900327,-0.465415,-0.073556,9.795324,-0.032199,-0.022196,0.173299,11.76,-18.42,-43.38,208.1521,0.3817,2.8586,55.814007,37.500263,206.3973,NaN,0.0,8.0,,23 / 25,,502,2021-05-04 15:54:02:704
-0.59378,-0.038308,9.900327,-0.465415,-0.073556,9.795324,-0.001656,-0.013033,0.192236,11.76,-18.42,-43.38,208.1521,0.3817,2.8586,55.814007,37.500263,206.3973,NaN,0.0,8.0,,23 / 25,,512,2021-05-04 15:54:02:714
-0.656031,-0.150839,9.289786,-0.45978,-0.078509,9.795551,0.011783,-0.013644,0.205064,11.28,-18.24,-43.32,206.0223,0.4298,2.7203,55.814007,37.500263,206.3973,NaN,0.0,8.0,,23 / 25,,523,2021-05-04 15:54:02:725
-0.701522,-0.299284,9.395134,-0.45978,-0.078509,9.795551,-0.001656,-0.002649,0.228277,11.28,-18.24,-43.32,206.0223,0.4298,2.7203,55.814007,37.500263,206.3973,NaN,0.0,8.0,,23 / 25,,532,2021-05-04 15:54:02:734
-0.809265,-0.272947,10.13736,-0.458053,-0.075332,9.795657,-0.020593,0.001016,0.255766,10.92,-18.06,-43.5,206.0223,0.4298,2.7203,55.814007,37.500263,206.3973,NaN,0.0,8.0,,23 / 25,,543,2021-05-04 15:54:02:745
-0.809265,-0.272947,10.13736,-0.458053,-0.075332,9.795657,-0.022425,4.06E-4,0.280812,10.92,-18.06,-43.5,206.0223,0.4298,2.7203,55.814007,37.500263,206.3973,NaN,0.0,8.0,,23 / 25,,552,2021-05-04 15:54:02:754
-0.735042,-0.289707,10.24989,-0.459386,-0.07605,9.795589,-0.015095,-0.018531,0.300359,10.8,-18.66,-43.5,204.9128,0.4401,2.6772,55.814007,37.500263,206.3973,NaN,0.0,8.0,,23 / 25,,563,2021-05-04 15:54:02:765
-0.641666,-0.122108,10.130177,-0.459386,-0.07605,9.795589,1.77E-4,-0.026472,0.319907,10.8,-18.66,-43.5,204.9128,0.4401,2.6772,55.814007,37.500263,206.3973,NaN,0.0,8.0,,23 / 25,,572,2021-05-04 15:54:02:774
-0.811659,-0.069434,9.976943,-0.457755,-0.076484,9.795662,0.01667,4.06E-4,0.348007,10.8,-18.9,-43.32,204.9128,0.4401,2.6772,55.814007,37.500263,206.3973,NaN,0.0,8.0,,23 / 25,,582,2021-05-04 15:54:02:784
-0.90743,0.095771,9.596253,-0.45663,-0.071258,9.795754,0.024611,0.016288,0.377939,11.4,-18.78,-43.2,204.9102,0.4469,2.6755,55.814007,37.500263,206.3973,NaN,0.0,8.0,,23 / 25,,593,2021-05-04 15:54:02:795
-0.90743,0.095771,9.596253,-0.45663,-0.071258,9.795754,0.019724,-0.004481,0.398709,11.4,-18.78,-43.2,204.9102,0.4469,2.6755,55.814007,37.500263,206.3973,NaN,0.0,8.0,,23 / 25,,602,2021-05-04 15:54:02:804
-0.818842,0.186753,9.189227,-0.45663,-0.071258,9.795754,0.019724,-0.004481,0.398709,11.4,-18.78,-43.2,204.9102,0.4469,2.6755,55.814007,37.500263,206.3973,NaN,0.0,8.0,,23 / 25,,613,2021-05-04 15:54:02:815
-0.876305,0.10056,9.172467,-0.458558,-0.063619,9.795716,-0.015095,-8.16E-4,0.434139,11.52,-18.54,-43.74,204.9102,0.4469,2.6755,55.814007,37.500263,206.3973,NaN,0.0,8.0,,23 / 25,,622,2021-05-04 15:54:02:824
-0.876305,0.10056,9.172467,-0.458558,-0.063619,9.795716,-0.063964,0.039501,0.469569,11.52,-18.54,-43.74,204.9102,0.4469,2.6755,55.814007,37.500263,206.3973,NaN,0.0,8.0,,23 / 25,,632,2021-05-04 15:54:02:834
-0.888276,-0.035914,9.474146,-0.4633,-0.066503,9.795475,-0.093286,-0.006925,0.523936,11.1,-17.94,-43.74,206.0273,0.3717,2.6802,55.814007,37.500263,206.3973,NaN,0.0,8.0,,23 / 25,,643,2021-05-04 15:54:02:845
-0.900247,-0.222668,9.881172,-0.467956,-0.079378,9.795157,-0.093286,-0.006925,0.523936,10.98,-18.06,-43.32,206.0273,0.3717,2.6802,55.814007,37.500263,206.3973,NaN,0.0,8.0,,23 / 25,,652,2021-05-04 15:54:02:854
-0.809265,-0.361535,10.429461,-0.467956,-0.079378,9.795157,-0.07496,-0.012423,0.552036,10.98,-18.06,-43.32,206.0273,0.3717,2.6802,55.814007,37.500263,206.3973,NaN,0.0,8.0,,23 / 25,,662,2021-05-04 15:54:02:864
-0.804476,-0.335198,10.599455,-0.467311,-0.08457,9.795144,-0.05358,0.001016,0.56914,11.28,-18.84,-42.9,206.0273,0.3717,2.6802,55.814007,37.500263,206.3973,NaN,0.0,8.0,,23 / 25,,673,2021-05-04 15:54:02:875
-0.804476,-0.335198,10.599455,-0.467311,-0.08457,9.795144,-0.003489,-0.001427,0.597851,11.28,-18.84,-42.9,206.0273,0.3717,2.6802,55.814007,37.500263,206.3973,NaN,0.0,8.0,,23 / 25,,682,2021-05-04 15:54:02:884
-0.797293,-0.28013,10.225947,-0.469562,-0.086473,9.79502,0.021557,-0.016088,0.61862,11.7,-19.5,-43.08,207.1533,0.4941,2.7314,55.814007,37.500263,206.3973,NaN,0.0,8.0,,23 / 25,,692,2021-05-04 15:54:02:894
-0.622511,-0.064645,9.555551,-0.467166,-0.077063,9.795213,0.01667,-0.029527,0.638779,11.52,-19.62,-43.68,207.1533,0.4941,2.7314,55.814007,37.500263,206.3973,NaN,0.0,8.0,,23 / 25,,703,2021-05-04 15:54:02:905
-0.622511,-0.064645,9.555551,-0.467166,-0.077063,9.795213,-0.008986,-0.02464,0.652218,11.52,-19.62,-43.68,207.1533,0.4941,2.7314,55.814007,37.500263,206.3973,NaN,0.0,8.0,,23 / 25,,712,2021-05-04 15:54:02:914
-0.59378,0.009577,9.119793,-0.464334,-0.071939,9.795387,-0.043195,-0.006314,0.669933,10.98,-19.32,-43.62,204.6802,0.4502,2.7306,55.814007,37.500263,206.3973,NaN,0.0,8.0,,23 / 25,,722,2021-05-04 15:54:02:924
-0.761379,-0.021548,9.273026,-0.464334,-0.071939,9.795387,-0.06824,-0.006925,0.693757,10.98,-19.32,-43.62,204.6802,0.4502,2.7306,55.814007,37.500263,206.3973,NaN,0.0,8.0,,23 / 25,,732,2021-05-04 15:54:02:934
-0.89067,-0.160416,9.787795,-0.464285,-0.077828,9.795344,-0.079847,-0.01792,0.727965,10.8,-19.44,-43.32,204.6802,0.4502,2.7306,55.814007,37.500263,206.3973,NaN,0.0,8.0,,23 / 25,,742,2021-05-04 15:54:02:944
-0.876305,-0.277736,10.180456,-0.464285,-0.077828,9.795344,-0.068851,-0.012423,0.755454,10.8,-19.44,-43.32,204.6802,0.4502,2.7306,55.814007,37.500263,206.3973,NaN,0.0,8.0,,23 / 25,,752,2021-05-04 15:54:02:954
-0.87391,-0.292102,10.228342,-0.463406,-0.085638,9.795321,-0.048693,0.016899,0.782943,10.68,-20.28,-43.62,203.6302,0.4547,2.7137,55.814007,37.500263,206.3973,NaN,0.0,8.0,,23 / 25,,763,2021-05-04 15:54:02:965
-0.87391,-0.292102,10.228342,-0.463406,-0.085638,9.795321,-0.023647,0.027284,0.811043,10.68,-20.28,-43.62,203.6302,0.4547,2.7137,55.814007,37.500263,206.3973,NaN,0.0,8.0,,23 / 25,,773,2021-05-04 15:54:02:975
-0.84039,-0.251399,9.895537,-0.469842,-0.083973,9.795029,-0.007765,0.012623,0.83731,10.32,-19.8,-43.5,203.6302,0.4547,2.7137,55.814007,37.500263,206.3973,NaN,0.0,8.0,,23 / 25,,783,2021-05-04 15:54:02:985
-0.804476,-0.169993,9.75667,-0.469842,-0.083973,9.795029,-0.010208,-0.006314,0.864799,10.32,-19.8,-43.5,203.6302,0.4547,2.7137,55.814007,37.500263,206.3973,NaN,0.0,8.0,,23 / 25,,792,2021-05-04 15:54:02:994
-0.809265,-0.153234,9.672871,-0.472143,-0.077975,9.794968,-0.029756,-0.002038,0.887401,9.6,-19.02,-43.92,202.1281,0.4906,2.7462,55.814007,37.500263,206.3973,NaN,0.0,8.0,,23 / 25,,803,2021-05-04 15:54:03:005
-1.137281,-0.306467,9.61062,-0.472143,-0.077975,9.794968,-0.058467,0.001016,0.910003,9.6,-19.02,-43.92,202.1281,0.4906,2.7462,55.814007,37.500263,206.3973,NaN,0.0,8.0,,23 / 25,,813,2021-05-04 15:54:03:015
-1.137281,-0.306467,9.61062,-0.472143,-0.077975,9.794968,-0.077403,-0.040522,0.933827,10.32,-19.92,-44.16,202.1281,0.4906,2.7462,55.814007,37.500263,206.3973,NaN,0.0,8.0,,23 / 25,,822,2021-05-04 15:54:03:024
-0.744619,-0.011971,9.565128,-0.474161,-0.078354,9.794867,-0.076792,-0.041133,0.963759,10.32,-19.92,-44.16,202.1281,0.4906,2.7462,55.814007,37.500263,206.3973,NaN,0.0,8.0,,23 / 25,,833,2021-05-04 15:54:03:035
-0.852362,-0.102954,10.158908,-0.474161,-0.078354,9.79509,-0.076792,-0.041133,0.963759,11.58,-20.58,-43.86,204.7801,0.4578,2.7715,55.814007,37.500263,206.3973,NaN,0.0,8.0,,23 / 25,,842,2021-05-04 15:54:03:044
-0.466884,-0.454912,10.017646,-0.468427,-0.084718,9.79509,-0.043806,-0.050296,1.012017,11.58,-20.58,-43.86,204.7801,0.4578,2.7715,55.814007,37.500263,206.3973,NaN,0.0,8.0,,23 / 25,,853,2021-05-04 15:54:03:055
-0.466884,-0.454912,10.017646,-0.468427,-0.084718,9.79509,-0.043806,-0.050296,1.012017,11.58,-20.58,-43.86,204.7801,0.4578,2.7715,55.814007,37.500263,206.3973,NaN,0.0,8.0,,23 / 25,,862,2021-05-04 15:54:03:064
-0.600963,-0.05028,9.663293,-0.461728,-0.085295,9.795403,-0.040141,-0.002649,1.034009,11.04,-20.4,-43.62,204.7801,0.4578,2.7715,55.814007,37.500263,206.3973,NaN,0.0,8.0,,23 / 25,,873,2021-05-04 15:54:03:075
-0.778139,-0.292102,9.421472,-0.461728,-0.085295,9.795403,-0.056023,0.011401,1.060276,11.04,-20.4,-43.62,204.7801,0.4578,2.7715,55.814007,37.500263,206.3973,NaN,0.0,8.0,,23 / 25,,882,2021-05-04 15:54:03:084
-0.945739,-0.430969,9.79019,-0.4656,-0.084708,9.795224,-0.060299,-0.050907,1.088376,10.44,-20.46,-43.5,201.3479,0.4983,2.6988,55.814007,37.500263,206.3973,NaN,0.0,8.0,,23 / 25,,892,2021-05-04 15:54:03:094
-0.821236,-0.356747,9.974549,-0.4656,-0.084708,9.795224,-0.070073,-0.061903,1.110367,10.44,-20.46,-43.5,201.3479,0.4983,2.6988,55.814007,37.500263,206.3973,NaN,0.0,8.0,,23 / 25,,902,2021-05-04 15:54:03:104
-0.821236,-0.356747,9.974549,-0.457639,-0.087671,9.795574,-0.072516,-0.027083,1.143964,10.5,-20.16,-44.16,201.3479,0.4983,2.6988,55.814007,37.500263,206.3973,NaN,0.0,8.0,,23 / 25,,912,2021-05-04 15:54:03:114
-0.730254,-0.423787,9.912297,-0.45629,-0.091515,9.795602,-0.06824,-0.001427,1.156182,10.5,-19.92,-44.04,203.6554,0.5122,2.6749,55.814007,37.500263,206.3973,NaN,0.0,8.0,,23 / 25,,923,2021-05-04 15:54:03:125
-0.715888,-0.517163,9.818921,-0.45629,-0.091515,9.795602,-0.052358,-0.040522,1.180005,10.5,-19.92,-44.04,203.6554,0.5122,2.6749,55.814007,37.500263,206.3973,NaN,0.0,8.0,,23 / 25,,932,2021-05-04 15:54:03:134
-0.282524,-0.265764,9.890749,-0.450102,-0.091359,9.795889,-0.045638,-0.052129,1.195888,10.26,-20.28,-43.08,203.6554,0.5122,2.6749,55.814007,37.500263,206.3973,NaN,0.0,8.0,,23 / 25,,943,2021-05-04 15:54:03:145
-0.292102,-0.33041,10.034406,-0.450102,-0.091359,9.795889,-0.048082,-0.028305,1.208105,10.26,-20.28,-43.08,203.6554,0.5122,2.6749,55.814007,37.500263,206.3973,NaN,0.0,8.0,,23 / 25,,952,2021-05-04 15:54:03:154
-0.292102,-0.33041,10.034406,-0.450102,-0.091359,9.795889,-0.04686,0.010179,1.20444,10.26,-20.28,-43.08,203.6554,0.5122,2.6749,55.814007,37.500263,206.3973,NaN,0.0,8.0,,23 / 25,,962,2021-05-04 15:54:03:164
-0.107742,-0.0838,9.682447,-0.449157,-0.090493,9.79594,-0.043195,0.00346,1.214214,9.84,-21.12,-43.32,200.5313,0.5338,2.6308,55.814007,37.500263,206.3973,NaN,0.0,8.0,,23 / 25,,973,2021-05-04 15:54:03:175
-0.045491,-0.019154,9.373586,-0.451075,-0.089363,9.795863,-0.052358,-0.006925,1.209938,9.9,-21.42,-43.74,200.5313,0.5338,2.6308,55.814007,37.500263,206.3973,NaN,0.0,8.0,,23 / 25,,983,2021-05-04 15:54:03:185
-0.325621,-0.387873,9.395134,-0.451075,-0.089363,9.795863,-0.075571,0.081651,1.216657,9.9,-21.42,-43.74,200.5313,0.5338,2.6308,55.814007,37.500263,206.3973,NaN,0.0,8.0,,23 / 25,,992,2021-05-04 15:54:03:194
-0.67758,-0.277736,9.629773,-0.467779,-0.093394,9.795041,-0.087177,0.103642,1.224599,10.14,-21.06,-43.14,200.5289,0.5221,2.6365,55.814007,37.500263,206.3973,NaN,0.0,8.0,,23 / 25,,1002,2021-05-04 15:54:03:204
-0.67758,-0.277736,9.629773,-0.467779,-0.093394,9.795041,-0.087177,0.075542,1.233151,10.14,-21.06,-43.14,200.5289,0.5221,2.6365,55.814007,37.500263,206.3973,NaN,0.0,8.0,,23 / 25,,1012,2021-05-04 15:54:03:214
-0.557866,-0.411815,9.876384,-0.485733,-0.098682,9.794116,-0.083512,0.055994,1.239259,9.72,-21.48,-43.62,200.5289,0.5221,2.6365,55.814007,37.500263,206.3973,NaN,0.0,8.0,,22 / 25,,1022,2021-05-04 15:54:03:224
-0.356747,-0.366324,10.240314,-0.485733,-0.098682,9.794116,-0.081069,0.060881,1.24659,9.72,-21.48,-43.62,200.5289,0.5221,2.6365,55.814007,37.500263,206.3973,NaN,0.0,8.0,,22 / 25,,1032,2021-05-04 15:54:03:234
-0.416604,-0.373507,10.360027,-0.485733,-0.098682,9.794116,-0.072516,0.068212,1.247811,9.72,-21.48,-43.62,200.5289,0.5221,2.6365,55.814007,37.500263,206.3973,NaN,0.0,8.0,,22 / 25,,1042,2021-05-04 15:54:03:244
-0.476461,-0.490826,9.960183,-0.499687,-0.102509,9.793375,-0.061521,0.07432,1.245368,9.3,-21.96,-44.16,196.8766,0.5766,2.8392,55.814007,37.500263,206.3973,NaN,0.0,8.0,,22 / 25,,1052,2021-05-04 15:54:03:254
-0.476461,-0.490826,9.960183,-0.516127,-0.102761,9.79252,-0.056023,0.051718,1.238038,9.48,-22.5,-43.38,196.8766,0.5766,2.8392,55.814007,37.500263,206.3973,NaN,0.0,8.0,,22 / 25,,1062,2021-05-04 15:54:03:264
-0.782928,-0.524346,9.694419,-0.516127,-0.102761,9.79252,-0.063353,0.026062,1.233761,9.48,-22.5,-43.38,196.8766,0.5766,2.8392,55.814007,37.500263,206.3973,NaN,0.0,8.0,,22 / 25,,1073,2021-05-04 15:54:03:275
-1.019961,-0.383084,9.943423,-0.520861,-0.102907,9.792268,-0.062132,-0.031359,1.243535,9.36,-22.56,-43.08,195.9979,0.6004,3.0171,55.814007,37.500263,206.3973,NaN,0.0,8.0,,22 / 25,,1082,2021-05-04 15:54:03:284
-0.675185,-0.620117,10.00328,-0.520861,-0.102907,9.792268,-0.06091,-0.032581,1.250255,9.36,-22.56,-43.08,195.9979,0.6004,3.0171,55.814007,37.500263,206.3973,NaN,0.0,8.0,,22 / 25,,1092,2021-05-04 15:54:03:294
-0.349564,-0.373507,10.029617,-0.516067,-0.102351,9.792527,-0.043806,-0.085116,1.267359,8.94,-22.44,-43.86,195.9979,0.6004,3.0171,55.814007,37.500263,206.3973,NaN,0.0,8.0,,22 / 25,,1102,2021-05-04 15:54:03:304
-0.349564,-0.373507,10.029617,-0.516067,-0.102351,9.792527,-0.038308,-0.097333,1.264916,8.94,-22.44,-43.86,195.9979,0.6004,3.0171,55.814007,37.500263,206.3973,NaN,0.0,8.0,,22 / 25,,1112,2021-05-04 15:54:03:314
-0.52674,-0.227456,9.754275,-0.501714,-0.097939,9.793318,-0.050525,-0.049074,1.280187,9.12,-22.56,-43.56,195.8741,0.598,3.0167,55.814007,37.500263,206.3973,NaN,0.0,8.0,,22 / 25,,1122,2021-05-04 15:54:03:324
-0.735042,-0.462095,9.395134,-0.501714,-0.097939,9.793318,-0.07496,-0.051518,1.299124,9.12,-22.56,-43.56,195.8741,0.598,3.0167,55.814007,37.500263,206.3973,NaN,0.0,8.0,,22 / 25,,1132,2021-05-04 15:54:03:334
-0.684763,-0.464489,9.804555,-0.494349,-0.098767,9.793684,-0.083512,-0.132763,1.308898,9.06,-22.62,-43.32,195.8741,0.598,3.0167,55.814007,37.500263,206.3973,NaN,0.0,8.0,,22 / 25,,1142,2021-05-04 15:54:03:344
-0.545895,-0.474066,10.419884,-0.494349,-0.098767,9.793684,-0.082901,-0.142537,1.321115,9.06,-22.62,-43.32,195.8741,0.598,3.0167,55.814007,37.500263,206.3973,NaN,0.0,8.0,,22 / 25,,1152,2021-05-04 15:54:03:354
-0.545895,-0.474066,10.419884,-0.494349,-0.098767,9.793684,-0.071295,-0.013033,1.343717,9.06,-22.62,-43.32,195.8741,0.598,3.0167,55.814007,37.500263,206.3973,NaN,0.0,8.0,,22 / 25,,1162,2021-05-04 15:54:03:364
-0.332804,-0.565049,9.780613,-0.472845,-0.102809,9.794704,-0.055412,0.047442,1.355935,8.4,-22.62,-43.56,193.8298,0.5771,2.8896,55.814007,37.500263,206.3973,NaN,0.0,8.0,,22 / 25,,1172,2021-05-04 15:54:03:374
-0.165205,-0.052674,8.961771,-0.472845,-0.102809,9.794704,-0.041973,0.029116,1.357156,8.4,-22.62,-43.56,193.8298,0.5771,2.8896,55.814007,37.500263,206.3973,NaN,0.0,8.0,,22 / 25,,1182,2021-05-04 15:54:03:384
-0.06704,-0.275342,9.148524,-0.481143,-0.102027,9.794309,-0.056634,0.051107,1.353491,8.28,-22.5,-43.32,193.8298,0.5771,2.8896,55.814007,37.500263,206.3973,NaN,0.0,8.0,,22 / 25,,1192,2021-05-04 15:54:03:394
-0.06704,-0.275342,9.148524,-0.491634,-0.099337,9.793816,-0.076792,0.112194,1.358378,8.4,-22.74,-43.38,194.0779,0.5961,2.8124,55.814007,37.500263,206.3973,NaN,0.0,8.0,,22 / 25,,1202,2021-05-04 15:54:03:404
-0.146051,-0.361535,9.77343,-0.491634,-0.099337,9.793816,-0.076792,0.112194,1.358378,8.4,-22.74,-43.38,194.0779,0.5961,2.8124,55.814007,37.500263,206.3973,NaN,0.0,8.0,,22 / 25,,1212,2021-05-04 15:54:03:414
-0.541106,-0.306467,10.0368,-0.517018,-0.103805,9.792461,-0.103671,0.122579,1.357156,8.22,-23.22,-43.68,194.0779,0.5961,2.8124,55.814007,37.500263,206.3973,NaN,0.0,8.0,,22 / 25,,1223,2021-05-04 15:54:03:425
-0.462095,-0.64406,10.08708,-0.517018,-0.103805,9.792461,-0.116499,0.110972,1.354102,8.22,-23.22,-43.68,194.0779,0.5961,2.8124,55.814007,37.500263,206.3973,NaN,0.0,8.0,,22 / 25,,1232,2021-05-04 15:54:03:434
-0.462095,-0.64406,10.08708,-0.536311,-0.112575,9.791327,-0.116499,0.055383,1.356546,7.74,-23.22,-43.68,193.5803,0.6065,3.0223,55.814007,37.500263,206.3973,NaN,0.0,8.0,,22 / 25,,1242,2021-05-04 15:54:03:444
-0.383084,-0.608146,10.824516,-0.536311,-0.112575,9.791327,-0.082901,-0.035025,1.352269,7.74,-23.22,-43.68,193.5803,0.6065,3.0223,55.814007,37.500263,206.3973,NaN,0.0,8.0,,22 / 25,,1252,2021-05-04 15:54:03:454
-1.697541,-0.919401,10.501289,-0.536311,-0.112575,9.791327,-0.043806,-0.011201,1.377315,7.74,-23.22,-43.68,193.5803,0.6065,3.0223,55.814007,37.500263,206.3973,NaN,0.0,8.0,,22 / 25,,1263,2021-05-04 15:54:03:465
-0.806871,-0.323227,9.545974,-0.535363,-0.112691,9.791378,-0.027923,-0.008757,1.369374,7.38,-23.34,-44.04,193.5803,0.6065,3.0223,55.814007,37.500263,206.3973,NaN,0.0,8.0,,22 / 25,,1272,2021-05-04 15:54:03:474
-0.524346,-0.536318,9.225141,-0.530529,-0.102907,9.791748,-0.016928,-0.082672,1.387089,7.68,-23.88,-44.28,192.8394,0.6584,3.1296,55.814007,37.500263,206.3973,NaN,0.0,8.0,,22 / 25,,1283,2021-05-04 15:54:03:485
-0.524346,-0.536318,9.225141,-0.530529,-0.102907,9.791748,-0.045638,-0.00326,1.393197,7.68,-23.88,-44.28,192.8394,0.6584,3.1296,55.814007,37.500263,206.3973,NaN,0.0,8.0,,22 / 25,,1292,2021-05-04 15:54:03:494
-0.323227,-0.316044,9.27542,-0.529894,-0.098339,9.79183,-0.085345,0.043166,1.402971,7.44,-24.3,-43.86,192.8394,0.6584,3.1296,55.814007,37.500263,206.3973,NaN,0.0,8.0,,22 / 25,,1302,2021-05-04 15:54:03:504
-0.519558,-0.270553,9.565128,-0.529894,-0.098339,9.79183,-0.112223,0.001016,1.399306,7.44,-24.3,-43.86,192.8394,0.6584,3.1296,55.814007,37.500263,206.3973,NaN,0.0,8.0,,22 / 25,,1313,2021-05-04 15:54:03:515
-0.536318,-0.268159,10.403124,-0.536292,-0.100821,9.791456,-0.119553,-0.03197,1.398084,6.72,-24.24,-43.8,192.8394,0.6584,3.1296,55.814007,37.500263,206.3973,NaN,0.0,8.0,,22 / 25,,1323,2021-05-04 15:54:03:525
-0.536318,-0.268159,10.403124,-0.534161,-0.109095,9.791484,-0.101227,-0.022807,1.414578,6.3,-24.54,-43.32,188.1402,0.5891,3.135,55.814007,37.500263,206.3973,NaN,0.0,8.0,,22 / 25,,1333,2021-05-04 15:54:03:535
-0.454912,-0.723071,10.185245,-0.534161,-0.109095,9.791484,-0.090232,0.03889,1.425573,6.3,-24.54,-43.32,188.1402,0.5891,3.135,55.814007,37.500263,206.3973,NaN,0.0,8.0,,22 / 25,,1342,2021-05-04 15:54:03:544
-0.584203,-0.328016,9.996098,-0.534161,-0.109095,9.791484,-0.062132,0.03889,1.43718,6.36,-23.76,-43.08,188.1402,0.5891,3.135,55.814007,37.500263,206.3973,NaN,0.0,8.0,,22 / 25,,1352,2021-05-04 15:54:03:554
-0.584203,-0.328016,9.996098,-0.53929,-0.113106,9.791157,-0.062132,0.03889,1.43718,6.36,-23.76,-43.08,188.1402,0.5891,3.135,55.814007,37.500263,206.3973,NaN,0.0,8.0,,22 / 25,,1362,2021-05-04 15:54:03:564
-0.782928,-0.430969,9.651321,-0.549775,-0.107943,9.790632,-0.03953,0.034614,1.462225,6.3,-23.88,-43.08,188.1402,0.5891,3.135,55.814007,37.500263,206.3973,NaN,0.0,8.0,,22 / 25,,1372,2021-05-04 15:54:03:574
-0.29689,0.148445,9.052753,-0.549775,-0.107943,9.790632,-0.047471,0.010179,1.486049,5.58,-23.88,-43.44,188.3213,0.6307,3.214,55.814007,37.500263,206.3973,NaN,0.0,8.0,,22 / 25,,1382,2021-05-04 15:54:03:584
-0.976864,-0.802082,9.203592,-0.550535,-0.102861,9.790645,-0.088399,-0.052129,1.497045,5.58,-23.88,-43.44,188.3213,0.6307,3.214,55.814007,37.500263,206.3973,NaN,0.0,8.0,,22 / 25,,1393,2021-05-04 15:54:03:595
-0.6273,-1.292908,10.405519,-0.550535,-0.102861,9.790645,-0.137268,-0.050296,1.498266,5.88,-24.0,-43.44,188.3213,0.6307,3.214,55.814007,37.500263,206.3973,NaN,0.0,8.0,,22 / 25,,1402,2021-05-04 15:54:03:604
-0.6273,-1.292908,10.405519,-0.550535,-0.102861,9.790645,-0.154372,-0.08817,1.521479,5.88,-24.0,-43.44,188.3213,0.6307,3.214,55.814007,37.500263,206.3973,NaN,0.0,8.0,,22 / 25,,1414,2021-05-04 15:54:03:616
0.009577,-0.081405,10.917893,-0.541301,-0.113778,9.791039,-0.116499,-0.074731,1.524533,6.0,-23.7,-43.44,188.3213,0.6307,3.214,55.814007,37.500263,206.3973,NaN,0.0,8.0,,22 / 25,,1423,2021-05-04 15:54:03:625
0.186753,0.119714,9.991309,-0.541301,-0.113778,9.791039,-0.056023,0.052329,1.526366,6.0,-23.7,-43.44,188.3213,0.6307,3.214,55.814007,37.500263,206.3973,NaN,0.0,8.0,,22 / 25,,1432,2021-05-04 15:54:03:634
-0.114925,-0.837996,9.110215,-0.537552,-0.119663,9.791175,-0.031588,0.008958,1.526977,5.28,-24.24,-43.5,186.1011,0.6648,3.1644,55.814007,37.500263,206.3973,NaN,0.0,8.0,,22 / 25,,1442,2021-05-04 15:54:03:644
-0.114925,-0.837996,9.110215,-0.537552,-0.119663,9.791175,-0.03281,0.101809,1.503153,5.28,-24.24,-43.5,186.1011,0.6648,3.1644,55.814007,37.500263,206.3973,NaN,0.0,8.0,,22 / 25,,1452,2021-05-04 15:54:03:654
-0.009577,-0.193936,8.7822,-0.548586,-0.110837,9.790667,-0.079236,-0.033803,1.511705,4.62,-24.36,-43.68,186.1011,0.6648,3.1644,55.814007,37.500263,206.3973,NaN,0.0,8.0,,22 / 25,,1463,2021-05-04 15:54:03:665
-0.67758,0.193936,9.998491,-0.548586,-0.110837,9.790667,-0.109168,-0.016088,1.495823,4.62,-24.36,-43.68,186.1011,0.6648,3.1644,55.814007,37.500263,206.3973,NaN,0.0,8.0,,22 / 25,,1472,2021-05-04 15:54:03:674
-0.354353,-1.02475,10.59706,-0.554917,-0.107767,9.790344,-0.135436,-0.037468,1.509873,4.74,-23.88,-43.32,186.0299,0.6476,3.207,55.814007,37.500263,206.3973,NaN,0.0,8.0,,22 / 25,,1482,2021-05-04 15:54:03:684
-0.354353,-1.02475,10.59706,-0.554917,-0.107767,9.790344,-0.135436,-0.037468,1.509873,4.74,-23.88,-43.32,186.0299,0.6476,3.207,55.814007,37.500263,206.3973,NaN,0.0,8.0,,22 / 25,,1492,2021-05-04 15:54:03:694
-0.713494,-0.859545,10.374393,-0.552982,-0.11608,9.790359,-0.098173,0.027284,1.515981,4.68,-24.06,-42.72,186.0299,0.6476,3.207,55.814007,37.500263,206.3973,NaN,0.0,8.0,,22 / 25,,1502,2021-05-04 15:54:03:704
-0.562655,-0.239427,9.522031,-0.552982,-0.11608,9.790359,-0.098173,0.027284,1.515981,4.68,-24.06,-42.72,186.0299,0.6476,3.207,55.814007,37.500263,206.3973,NaN,0.0,8.0,,22 / 25,,1512,2021-05-04 15:54:03:714
-0.488432,-0.979258,9.059936,-0.562079,-0.121164,9.789779,-0.063353,-0.014255,1.525144,4.62,-24.18,-42.66,185.9794,0.6782,3.2328,55.814007,37.500263,206.3973,NaN,0.0,8.0,,22 / 25,,1522,2021-05-04 15:54:03:724
-0.668003,-0.545895,9.725544,-0.564104,-0.117361,9.789709,-0.071295,-0.027694,1.535529,3.84,-23.7,-42.9,185.9794,0.6782,3.2328,55.814007,37.500263,206.3973,NaN,0.0,8.0,,22 / 25,,1533,2021-05-04 15:54:03:735
-0.668003,-0.545895,9.725544,-0.564104,-0.117361,9.789709,-0.094508,0.004682,1.536751,3.84,-23.7,-42.9,185.9794,0.6782,3.2328,55.814007,37.500263,206.3973,NaN,0.0,8.0,,22 / 25,,1542,2021-05-04 15:54:03:744
-0.567443,-0.435758,10.309748,-0.564104,-0.117361,9.789709,-0.094508,0.004682,1.536751,3.84,-23.7,-42.9,185.9794,0.6782,3.2328,55.814007,37.500263,206.3973,NaN,0.0,8.0,,22 / 25,,1553,2021-05-04 15:54:03:755
-0.5435,-0.615329,10.324113,-0.565362,-0.117169,9.789639,-0.098173,0.013234,1.552022,3.54,-22.86,-42.9,183.6978,0.6857,3.2979,55.814007,37.500263,206.3973,NaN,0.0,8.0,,22 / 25,,1562,2021-05-04 15:54:03:764
-0.550683,-0.533923,9.718362,-0.571587,-0.11969,9.789247,-0.097562,0.012012,1.550801,3.72,-23.7,-43.98,183.6978,0.6857,3.2979,55.814007,37.500263,206.3973,NaN,0.0,8.0,,22 / 25,,1573,2021-05-04 15:54:03:775
-0.550683,-0.533923,9.718362,-0.571587,-0.11969,9.789247,-0.093897,-0.005703,1.552022,3.72,-23.7,-43.98,183.6978,0.6857,3.2979,55.814007,37.500263,206.3973,NaN,0.0,8.0,,22 / 25,,1582,2021-05-04 15:54:03:784
-0.608146,-0.682368,9.294575,-0.574249,-0.120702,9.789079,-0.092675,-0.027694,1.551411,3.66,-24.0,-43.8,183.6978,0.6857,3.2979,55.814007,37.500263,206.3973,NaN,0.0,8.0,,22 / 25,,1593,2021-05-04 15:54:03:795
-0.483643,-0.665608,9.742304,-0.572505,-0.121692,9.789168,-0.087177,-0.049074,1.558131,2.88,-24.3,-43.86,180.9762,0.7052,3.3572,55.814007,37.500263,206.3973,NaN,0.0,8.0,,22 / 25,,1602,2021-05-04 15:54:03:804
-0.617723,-0.617723,10.515655,-0.572505,-0.121692,9.789168,-0.073738,-0.033803,1.563018,2.88,-24.3,-43.86,180.9762,0.7052,3.3572,55.814007,37.500263,206.3973,NaN,0.0,8.0,,22 / 25,,1612,2021-05-04 15:54:03:814
-0.617723,-0.617723,10.515655,-0.565901,-0.168815,9.788854,-0.062132,4.06E-4,1.580733,2.76,-23.76,-43.98,180.9762,0.7052,3.3572,55.814007,37.500263,206.3973,NaN,0.0,8.0,,22 / 25,,1623,2021-05-04 15:54:03:825
-0.371113,-0.555472,10.058349,-0.565901,-0.168815,9.788854,-0.062743,0.020564,1.589285,2.76,-23.76,-43.98,180.9762,0.7052,3.3572,55.814007,37.500263,206.3973,NaN,0.0,8.0,,22 / 25,,1633,2021-05-04 15:54:03:835
-0.272947,-0.488432,9.294575,-0.565901,-0.168815,9.788854,-0.062743,0.020564,1.589285,2.76,-23.76,-43.98,180.9762,0.7052,3.3572,55.814007,37.500263,206.3973,NaN,0.0,8.0,,22 / 25,,1643,2021-05-04 15:54:03:845
-0.464489,-0.64406,9.153313,-0.563238,-0.245962,9.787372,-0.087788,0.026062,1.58562,2.16,-23.52,-44.1,178.7439,0.9864,3.3086,55.814007,37.500263,206.3973,NaN,0.0,8.0,,22 / 25,,1652,2021-05-04 15:54:03:854
-0.407027,-0.512375,9.708784,-0.557935,-0.311675,9.785803,-0.119553,0.001627,1.586842,2.1,-23.82,-43.32,178.7439,0.9864,3.3086,55.814007,37.500263,206.3973,NaN,0.0,8.0,,22 / 25,,1663,2021-05-04 15:54:03:865
-0.407027,-0.512375,9.708784,-0.557935,-0.311675,9.785803,-0.125051,-0.025862,1.587453,2.1,-23.82,-43.32,178.7439,0.9864,3.3086,55.814007,37.500263,206.3973,NaN,0.0,8.0,,22 / 25,,1672,2021-05-04 15:54:03:874
-0.433364,-0.581809,10.479741,-0.557935,-0.311675,9.784687,-0.107947,-0.036246,1.581955,1.8,-23.7,-42.48,179.1087,1.8213,3.2632,55.814007,37.500263,206.3973,NaN,0.0,8.0,,22 / 25,,1682,2021-05-04 15:54:03:884
-0.457306,-0.622511,10.309748,-0.543237,-0.367659,9.784687,-0.083512,0.013845,1.580733,1.8,-23.7,-42.48,179.1087,1.8213,3.2632,55.814007,37.500263,206.3973,NaN,0.0,8.0,,22 / 25,,1692,2021-05-04 15:54:03:894
-0.457306,-0.622511,10.309748,-0.543237,-0.367659,9.784687,-0.067629,0.016288,1.566683,1.8,-23.7,-42.48,179.1087,1.8213,3.2632,55.814007,37.500263,206.3973,NaN,0.0,8.0,,22 / 25,,1702,2021-05-04 15:54:03:904
-0.421392,-0.498009,9.483723,-0.535977,-0.404283,9.783643,-0.071295,-0.006314,1.555077,1.5,-23.7,-43.44,179.1087,1.8213,3.2632,55.814007,37.500263,206.3973,NaN,0.0,8.0,,22 / 25,,1712,2021-05-04 15:54:03:914
-0.493221,-0.665608,9.328094,-0.527354,-0.432629,9.782899,-0.095118,-0.022196,1.553244,1.68,-24.12,-43.68,179.0898,2.3627,3.1357,55.814007,37.500263,206.3973,NaN,0.0,8.0,,22 / 25,,1722,2021-05-04 15:54:03:924
-0.509981,-0.713494,10.024829,-0.527354,-0.432629,9.782899,-0.111001,-0.029527,1.551411,1.68,-24.12,-43.68,179.0898,2.3627,3.1357,55.814007,37.500263,206.3973,NaN,0.0,8.0,,22 / 25,,1732,2021-05-04 15:54:03:934
-0.572232,-0.773351,10.343267,-0.509563,-0.467137,9.782255,-0.113444,-0.026472,1.548968,0.9,-23.76,-43.86,179.0898,2.3627,3.1357,55.814007,37.500263,206.3973,NaN,0.0,8.0,,22 / 25,,1742,2021-05-04 15:54:03:944
-0.572232,-0.773351,10.343267,-0.509563,-0.467137,9.782255,-0.09634,0.004682,1.556298,0.9,-23.76,-43.86,179.0898,2.3627,3.1357,55.814007,37.500263,206.3973,NaN,0.0,8.0,,22 / 25,,1753,2021-05-04 15:54:03:955
-0.605751,-0.732648,10.008069,-0.502606,-0.502924,9.78084,-0.071295,0.025451,1.57157,0.72,-23.52,-44.22,177.1665,2.7303,2.9819,55.814007,37.500263,206.3973,NaN,0.0,8.0,,22 / 25,,1762,2021-05-04 15:54:03:964
-0.375901,-0.56026,9.689631,-0.502606,-0.502924,9.78084,-0.051747,0.013234,1.581344,0.72,-23.52,-44.22,177.1665,2.7303,2.9819,55.814007,37.500263,206.3973,NaN,0.0,8.0,,22 / 25,,1773,2021-05-04 15:54:03:975
-0.605751,-0.466884,9.668081,-0.514371,-0.524606,9.77909,-0.04686,0.01751,1.583787,0.6,-23.22,-43.5,177.1665,2.7303,2.9819,55.814007,37.500263,206.3973,NaN,0.0,8.0,,22 / 25,,1783,2021-05-04 15:54:03:985
-0.739831,-0.505192,9.579494,-0.514371,-0.524606,9.77909,-0.04686,0.01751,1.583787,0.6,-23.22,-43.5,177.1665,2.7303,2.9819,55.814007,37.500263,206.3973,NaN,0.0,8.0,,22 / 25,,1792,2021-05-04 15:54:03:994
-0.739831,-0.505192,9.579494,-0.539825,-0.532723,9.777279,-0.069462,0.011401,1.602113,0.0,-22.2,-42.96,174.6823,3.0665,3.0109,55.814007,37.500263,206.3973,NaN,0.0,8.0,,22 / 25,,1803,2021-05-04 15:54:04:005
-0.780534,-0.519558,9.574705,-0.539825,-0.532723,9.777279,-0.100616,-0.018531,1.612498,0.0,-22.2,-42.96,174.6823,3.0665,3.0109,55.814007,37.500263,206.3973,NaN,0.0,8.0,,22 / 25,,1812,2021-05-04 15:54:04:014
-0.794899,-0.706311,9.797373,-0.566471,-0.544663,9.775113,-0.13177,-0.034414,1.617996,-0.24,-22.26,-43.32,174.6823,3.0665,3.0109,55.814007,37.500263,206.3973,NaN,0.0,8.0,,22 / 25,,1822,2021-05-04 15:54:04:024
-0.61054,-0.806871,10.010463,-0.566471,-0.544663,9.775113,-0.140322,-0.027694,1.638154,-0.24,-22.26,-43.32,174.6823,3.0665,3.0109,55.814007,37.500263,206.3973,NaN,0.0,8.0,,22 / 25,,1832,2021-05-04 15:54:04:034
-0.61054,-0.806871,10.010463,-0.592008,-0.564298,9.772486,-0.111612,-0.041133,1.650982,-0.24,-22.38,-43.56,174.0455,3.1839,3.3166,55.814007,37.500263,206.3973,NaN,0.0,8.0,,22 / 25,,1843,2021-05-04 15:54:04:045
-0.368718,-0.691945,9.976943,-0.592008,-0.564298,9.772486,-0.076792,-0.026472,1.64915,-0.24,-22.38,-43.56,174.0455,3.1839,3.3166,55.814007,37.500263,206.3973,NaN,0.0,8.0,,22 / 25,,1852,2021-05-04 15:54:04:054
-0.328016,-0.6273,9.792584,-0.606526,-0.569269,9.771308,-0.067019,0.010179,1.648539,-0.72,-22.62,-43.02,174.0455,3.1839,3.3166,55.814007,37.500263,206.3973,NaN,0.0,8.0,,22 / 25,,1863,2021-05-04 15:54:04:065
-0.521952,-0.636877,9.735122,-0.606526,-0.569269,9.771308,-0.071906,0.021786,1.65648,-0.72,-22.62,-43.02,174.0455,3.1839,3.3166,55.814007,37.500263,206.3973,NaN,0.0,8.0,,22 / 25,,1872,2021-05-04 15:54:04:074
-0.521952,-0.636877,9.735122,-0.606526,-0.569269,9.771308,-0.071906,0.021786,1.65648,-0.72,-22.62,-43.02,174.0455,3.1839,3.3166,55.814007,37.500263,206.3973,NaN,0.0,8.0,,22 / 25,,1882,2021-05-04 15:54:04:084
-0.572232,-0.672791,9.771035,-0.628135,-0.562581,9.770329,-0.090842,-0.008146,1.657702,-1.2,-23.04,-43.38,171.8115,3.3278,3.5519,55.814007,37.500263,206.3973,NaN,0.0,8.0,,22 / 25,,1892,2021-05-04 15:54:04:094
-0.553077,-0.687157,9.938635,-0.644314,-0.560684,9.769385,-0.107336,-0.016699,1.658313,-0.84,-22.14,-43.62,171.8115,3.3278,3.5519,55.814007,37.500263,206.3973,NaN,0.0,8.0,,22 / 25,,1902,2021-05-04 15:54:04:104
-0.615329,-0.691945,10.022434,-0.644314,-0.560684,9.769385,-0.115277,0.010179,1.666254,-0.84,-22.14,-43.62,171.8115,3.3278,3.5519,55.814007,37.500263,206.3973,NaN,0.0,8.0,,22 / 25,,1913,2021-05-04 15:54:04:115
-0.691945,-0.780534,9.838076,-0.664653,-0.560452,9.768036,-0.09634,0.013845,1.671141,-1.2,-21.3,-43.32,170.716,3.2776,3.7733,55.814007,37.500263,206.3973,NaN,0.0,8.0,,22 / 25,,1922,2021-05-04 15:54:04:124
-0.691945,-0.780534,9.838076,-0.664653,-0.560452,9.768036,-0.076792,-0.008146,1.675417,-1.2,-21.3,-43.32,170.716,3.2776,3.7733,55.814007,37.500263,206.3973,NaN,0.0,8.0,,22 / 25,,1932,2021-05-04 15:54:04:134
-0.588992,-0.639271,9.665688,-0.674191,-0.55772,9.767539,-0.071295,-0.016699,1.678472,-1.44,-21.66,-43.32,170.716,3.2776,3.7733,55.814007,37.500263,206.3973,NaN,0.0,8.0,,22 / 25,,1942,2021-05-04 15:54:04:144
-0.399844,-0.483643,9.438231,-0.689313,-0.549004,9.766976,-0.081679,-0.029527,1.673585,-1.44,-21.66,-43.32,170.716,3.2776,3.7733,55.814007,37.500263,206.3973,NaN,0.0,8.0,,22 / 25,,1953,2021-05-04 15:54:04:155
-0.524346,-0.749408,9.581888,-0.689313,-0.549004,9.766976,-0.111612,-0.041744,1.674195,-1.74,-21.6,-43.62,168.2176,3.2093,4.037,55.814007,37.500263,206.3973,NaN,0.0,8.0,,22 / 25,,1962,2021-05-04 15:54:04:164
-0.615329,-0.378295,10.216371,-0.689313,-0.549004,9.766976,-0.120164,-0.016088,1.669308,-1.74,-21.6,-43.62,168.2176,3.2093,4.037,55.814007,37.500263,206.3973,NaN,0.0,8.0,,22 / 25,,1972,2021-05-04 15:54:04:174
0.090982,-1.043904,9.761458,-0.684034,-0.554826,9.767018,-0.119553,-0.071676,1.657702,-2.1,-20.7,-43.2,168.2176,3.2093,4.037,55.814007,37.500263,206.3973,NaN,0.0,8.0,,22 / 25,,1983,2021-05-04 15:54:04:185
0.090982,-1.043904,9.761458,-0.650203,-0.569709,9.768473,-0.131159,-0.018531,1.643652,-2.1,-20.7,-43.2,168.2176,3.2093,4.037,55.814007,37.500263,206.3973,NaN,0.0,8.0,,22 / 25,,1992,2021-05-04 15:54:04:194
-0.107742,-0.632089,9.763853,-0.650203,-0.569709,9.768473,-0.126273,0.049275,1.633878,-2.16,-20.46,-43.26,167.8066,3.3304,3.8081,55.814007,37.500263,206.3973,NaN,0.0,8.0,,22 / 25,,2002,2021-05-04 15:54:04:204
-0.055068,-0.670397,9.766247,-0.606914,-0.589754,9.770068,-0.104892,0.007125,1.622272,-2.16,-20.46,-43.26,167.8066,3.3304,3.8081,55.814007,37.500263,206.3973,NaN,0.0,8.0,,22 / 25,,2013,2021-05-04 15:54:04:215
-0.181965,-0.931373,10.33369,-0.606914,-0.589754,9.770068,-0.063353,-0.019753,1.624715,-2.28,-20.64,-43.62,167.8066,3.3304,3.8081,55.814007,37.500263,206.3973,NaN,0.0,8.0,,24 / 26,,2022,2021-05-04 15:54:04:224
-0.181965,-0.931373,10.33369,-0.606914,-0.589754,9.770068,-0.030978,-0.008757,1.624104,-2.28,-20.64,-43.62,167.8066,3.3304,3.8081,55.814007,37.500263,206.3973,NaN,0.0,8.0,,24 / 26,,2032,2021-05-04 15:54:04:234
-0.311256,-0.459701,10.525232,-0.568789,-0.603242,9.771539,-0.03281,0.08837,1.622883,-3.12,-20.34,-43.5,166.3327,3.5267,3.3314,55.814007,37.500263,206.3973,NaN,0.0,8.0,,24 / 26,,2043,2021-05-04 15:54:04:245
-0.57702,-0.490826,9.481328,-0.571512,-0.596468,9.771795,-0.062743,0.12319,1.617385,-3.12,-20.34,-43.5,166.3327,3.5267,3.3314,55.814007,37.500263,206.3973,NaN,0.0,8.0,,24 / 26,,2052,2021-05-04 15:54:04:254
-0.799688,-0.596174,8.818114,-0.571512,-0.596468,9.771795,-0.096951,0.040723,1.617385,-3.42,-19.86,-43.5,166.3327,3.5267,3.3314,55.814007,37.500263,206.3973,NaN,0.0,8.0,,24 / 26,,2062,2021-05-04 15:54:04:264
-1.027144,-0.69434,9.502876,-0.571512,-0.596468,9.771795,-0.121997,-0.043577,1.618607,-3.42,-19.86,-43.5,166.3327,3.5267,3.3314,55.814007,37.500263,206.3973,NaN,0.0,8.0,,24 / 26,,2072,2021-05-04 15:54:04:274
-1.027144,-0.69434,9.502876,-0.602901,-0.594147,9.77005,-0.123218,-0.060681,1.618607,-3.42,-19.86,-43.5,166.3327,3.5267,3.3314,55.814007,37.500263,206.3973,NaN,0.0,8.0,,24 / 26,,2082,2021-05-04 15:54:04:284
-0.881093,-0.893064,10.628186,-0.611452,-0.598689,9.769242,-0.095729,-0.052129,1.62105,-2.94,-20.04,-43.68,165.8418,3.4735,3.5312,55.814007,37.500263,206.3973,NaN,0.0,8.0,,24 / 26,,2092,2021-05-04 15:54:04:294
-0.706311,-0.756591,10.506078,-0.611452,-0.598689,9.769242,-0.062132,-0.006314,1.614331,-2.94,-20.04,-43.68,165.8418,3.4735,3.5312,55.814007,37.500263,206.3973,NaN,0.0,8.0,,24 / 26,,2102,2021-05-04 15:54:04:304
-0.239427,-0.600963,9.466963,-0.626595,-0.593302,9.768611,-0.048082,-0.006314,1.604557,-3.0,-20.28,-43.26,165.8418,3.4735,3.5312,55.814007,37.500263,206.3973,NaN,0.0,8.0,,24 / 26,,2112,2021-05-04 15:54:04:314
-0.069434,-0.500403,8.973742,-0.626595,-0.593302,9.768611,-0.059077,-0.006925,1.586842,-3.12,-19.68,-42.9,165.7024,3.4685,3.6701,55.814007,37.500263,206.3973,NaN,0.0,8.0,,24 / 26,,2122,2021-05-04 15:54:04:324
0.079011,-0.512375,9.364009,-0.643772,-0.584299,9.768037,-0.089621,-0.005092,1.573403,-3.12,-19.68,-42.9,165.7024,3.4685,3.6701,55.814007,37.500263,206.3973,NaN,0.0,8.0,,24 / 26,,2133,2021-05-04 15:54:04:335
0.079011,-0.512375,9.364009,-0.643772,-0.584299,9.768037,-0.109779,-0.031359,1.554466,-3.48,-19.32,-42.9,165.7024,3.4685,3.6701,55.814007,37.500263,206.3973,NaN,0.0,8.0,,24 / 26,,2142,2021-05-04 15:54:04:344
0.153234,-0.653637,10.273833,-0.643772,-0.584299,9.768037,-0.116499,-0.035635,1.538583,-3.48,-19.32,-42.9,165.7024,3.4685,3.6701,55.814007,37.500263,206.3973,NaN,0.0,8.0,,24 / 26,,2152,2021-05-04 15:54:04:354
-0.169993,-0.567443,10.757477,-0.656403,-0.584282,9.767198,-0.098173,0.026062,1.533696,-3.3,-19.44,-43.14,164.7199,3.4157,3.8448,55.814007,37.500263,206.3973,NaN,0.0,8.0,,24 / 26,,2162,2021-05-04 15:54:04:364
-0.502798,-0.732648,10.209188,-0.656403,-0.584282,9.767198,-0.098173,0.026062,1.533696,-3.3,-19.44,-43.14,164.7199,3.4157,3.8448,55.814007,37.500263,206.3973,NaN,0.0,8.0,,24 / 26,,2172,2021-05-04 15:54:04:374
-0.502798,-0.732648,10.209188,-0.673663,-0.584986,9.765979,-0.064575,0.054773,1.534918,-3.3,-19.44,-43.14,164.7199,3.4157,3.8448,55.814007,37.500263,206.3973,NaN,0.0,8.0,,24 / 26,,2183,2021-05-04 15:54:04:385
-0.775745,-0.450124,9.445415,-0.702564,-0.57406,9.764591,-0.03953,0.065768,1.541638,-3.12,-18.9,-43.14,164.7199,3.4157,3.8448,55.814007,37.500263,206.3973,NaN,0.0,8.0,,24 / 26,,2192,2021-05-04 15:54:04:394
-0.569837,-0.524346,8.918674,-0.702564,-0.57406,9.764591,-0.043195,-0.021586,1.530642,-4.08,-18.12,-43.26,160.9259,3.3559,4.1153,55.814007,37.500263,206.3973,NaN,0.0,8.0,,24 / 26,,2202,2021-05-04 15:54:04:404
-0.967287,-0.579414,9.828498,-0.718813,-0.562906,9.764058,-0.076182,0.012012,1.527588,-4.08,-18.12,-43.26,160.9259,3.3559,4.1153,55.814007,37.500263,206.3973,NaN,0.0,8.0,,24 / 26,,2212,2021-05-04 15:54:04:414
-0.842785,-0.569837,10.455798,-0.718813,-0.562906,9.764058,-0.111612,0.040112,1.539805,-4.8,-18.12,-43.92,160.9259,3.3559,4.1153,55.814007,37.500263,206.3973,NaN,0.0,8.0,,24 / 26,,2222,2021-05-04 15:54:04:424
-0.842785,-0.569837,10.455798,-0.718813,-0.562906,9.764058,-0.114666,0.027284,1.554466,-4.8,-18.12,-43.92,160.9259,3.3559,4.1153,55.814007,37.500263,206.3973,NaN,0.0,8.0,,24 / 26,,2232,2021-05-04 15:54:04:434
-0.632089,-0.763774,10.122993,-0.742547,-0.562245,9.76232,-0.103671,-0.007536,1.563018,-4.32,-18.12,-43.44,160.4457,3.2867,4.3497,55.814007,37.500263,206.3973,NaN,0.0,8.0,,24 / 26,,2242,2021-05-04 15:54:04:444
-0.574626,-0.512375,9.768641,-0.756851,-0.55753,9.761492,-0.086566,-0.022807,1.577068,-4.32,-18.12,-43.44,160.4457,3.2867,4.3497,55.814007,37.500263,206.3973,NaN,0.0,8.0,,24 / 26,,2253,2021-05-04 15:54:04:455
-0.785322,-0.636877,9.407105,-0.756851,-0.55753,9.761492,-0.080458,0.070655,1.597226,-4.02,-17.58,-43.14,160.4457,3.2867,4.3497,55.814007,37.500263,206.3973,NaN,0.0,8.0,,24 / 26,,2262,2021-05-04 15:54:04:464
-1.096578,-0.584203,9.510059,-0.784444,-0.547518,9.75988,-0.06824,0.043166,1.608833,-4.02,-17.58,-43.14,160.4457,3.2867,4.3497,55.814007,37.500263,206.3973,NaN,0.0,8.0,,24 / 26,,2272,2021-05-04 15:54:04:474
-1.096578,-0.584203,9.510059,-0.784444,-0.547518,9.75988,-0.065186,-0.034414,1.630213,-4.02,-17.58,-43.14,160.4457,3.2867,4.3497,55.814007,37.500263,206.3973,NaN,0.0,8.0,,24 / 26,,2282,2021-05-04 15:54:04:484
-1.149252,-0.450124,9.984126,-0.784444,-0.547518,9.75988,-0.068851,-0.044798,1.643041,-4.08,-17.1,-43.44,158.9874,3.2006,4.5952,55.814007,37.500263,206.3973,NaN,0.0,8.0,,24 / 26,,2292,2021-05-04 15:54:04:494
-0.914613,-0.684763,10.197216,-0.796897,-0.534324,9.759602,-0.087788,-0.041133,1.653426,-3.72,-16.8,-43.08,158.9874,3.2006,4.5952,55.814007,37.500263,206.3973,NaN,0.0,8.0,,24 / 26,,2303,2021-05-04 15:54:04:505
-0.622511,-0.624906,9.538791,-0.796897,-0.534324,9.759602,-0.11039,0.023008,1.659535,-3.72,-16.8,-43.08,158.9874,3.2006,4.5952,55.814007,37.500263,206.3973,NaN,0.0,8.0,,24 / 26,,2312,2021-05-04 15:54:04:514
-0.416604,-0.471672,9.452597,-0.812011,-0.526997,9.758755,-0.123218,-0.015477,1.665643,-3.96,-16.98,-42.72,158.5902,3.0805,4.7565,55.814007,37.500263,206.3973,NaN,0.0,8.0,,24 / 26,,2322,2021-05-04 15:54:04:524
-0.416604,-0.471672,9.452597,-0.812011,-0.526997,9.758755,-0.123829,-0.066179,1.648539,-3.96,-16.98,-42.72,158.5902,3.0805,4.7565,55.814007,37.500263,206.3973,NaN,0.0,8.0,,24 / 26,,2332,2021-05-04 15:54:04:534
-0.277736,-0.830813,9.988914,-0.822858,-0.524177,9.757998,-0.115277,-0.040522,1.641209,-4.44,-17.16,-42.78,158.5902,3.0805,4.7565,55.814007,37.500263,206.3973,NaN,0.0,8.0,,24 / 26,,2342,2021-05-04 15:54:04:544
-0.265764,-0.672791,10.221159,-0.822858,-0.524177,9.757998,-0.099394,0.007736,1.6351,-4.44,-17.16,-42.78,158.5902,3.0805,4.7565,55.814007,37.500263,206.3973,NaN,0.0,8.0,,24 / 26,,2352,2021-05-04 15:54:04:554
-0.299284,-0.6273,10.010463,-0.834677,-0.518849,9.757279,-0.071295,0.015066,1.62838,-4.2,-16.08,-42.78,157.2299,3.0328,4.8894,55.814007,37.500263,206.3973,NaN,0.0,8.0,,24 / 26,,2362,2021-05-04 15:54:04:564
-0.299284,-0.6273,10.010463,-0.834677,-0.518849,9.757279,-0.059688,-0.006925,1.615552,-4.2,-16.08,-42.78,157.2299,3.0328,4.8894,55.814007,37.500263,206.3973,NaN,0.0,8.0,,24 / 26,,2372,2021-05-04 15:54:04:574
-0.411815,-0.66082,9.921875,-0.852135,-0.505827,9.756454,-0.063964,0.008958,1.608833,-3.96,-15.48,-42.72,157.2299,3.0328,4.8894,55.814007,37.500263,206.3973,NaN,0.0,8.0,,24 / 26,,2383,2021-05-04 15:54:04:585
-0.462095,-0.6273,9.682447,-0.868499,-0.49092,9.755773,-0.076182,0.008958,1.602113,-4.26,-15.0,-42.54,157.2299,3.0328,4.8894,55.814007,37.500263,206.3973,NaN,0.0,8.0,,24 / 26,,2393,2021-05-04 15:54:04:595
-0.387873,-0.541106,9.60583,-0.868499,-0.49092,9.755773,-0.090232,-0.008146,1.596615,-4.26,-15.0,-42.54,157.2299,3.0328,4.8894,55.814007,37.500263,206.3973,NaN,0.0,8.0,,24 / 26,,2402,2021-05-04 15:54:04:604
-0.387873,-0.541106,9.60583,-0.868499,-0.49092,9.755773,-0.098784,-0.025251,1.58562,-4.26,-15.0,-42.54,157.2299,3.0328,4.8894,55.814007,37.500263,206.3973,NaN,0.0,8.0,,24 / 26,,2412,2021-05-04 15:54:04:614
-0.351958,-0.514769,9.948212,-0.883081,-0.480449,9.754985,-0.099394,0.015677,1.587453,-5.1,-14.88,-42.72,152.7908,2.8694,5.0873,55.814007,37.500263,206.3973,NaN,0.0,8.0,,24 / 26,,2422,2021-05-04 15:54:04:624
-0.447729,-0.538712,9.881172,-0.883081,-0.480449,9.754985,-0.088399,0.046831,1.583787,-5.1,-14.88,-42.72,152.7908,2.8694,5.0873,55.814007,37.500263,206.3973,NaN,0.0,8.0,,24 / 26,,2432,2021-05-04 15:54:04:634
-0.562655,-0.428575,9.364009,-0.817281,-0.495253,9.759978,-0.079847,0.015066,1.589285,-5.16,-14.88,-43.08,152.7908,2.8694,5.0873,55.814007,37.500263,206.3973,NaN,0.0,8.0,,24 / 26,,2443,2021-05-04 15:54:04:645
-0.658426,-0.502798,9.601042,-0.835234,-0.485379,9.758954,-0.08901,-0.020364,1.586842,-4.5,-14.76,-43.14,156.1444,2.8948,4.7867,55.814007,37.500263,206.3973,NaN,0.0,8.0,,24 / 26,,2453,2021-05-04 15:54:04:655
-0.658426,-0.502798,9.601042,-0.835234,-0.485379,9.758954,-0.102449,-0.021586,1.59295,-4.5,-14.76,-43.14,156.1444,2.8948,4.7867,55.814007,37.500263,206.3973,NaN,0.0,8.0,,24 / 26,,2463,2021-05-04 15:54:04:665
-0.895459,-0.780534,10.127783,-0.835234,-0.485379,9.758954,-0.114666,0.008347,1.607,-4.5,-14.76,-43.14,156.1444,2.8948,4.7867,55.814007,37.500263,206.3973,NaN,0.0,8.0,,24 / 26,,2472,2021-05-04 15:54:04:674
-1.000807,-0.849968,10.211582,-0.790654,-0.493827,9.762243,-0.112223,0.021786,1.619828,-4.02,-14.52,-42.48,156.1444,2.8948,4.7867,55.814007,37.500263,206.3973,NaN,0.0,8.0,,24 / 26,,2482,2021-05-04 15:54:04:684
-0.981653,-0.888276,10.142148,-0.783599,-0.516213,9.761654,-0.089621,0.002849,1.6351,-4.8,-14.28,-42.24,152.4756,2.8864,4.6303,55.814007,37.500263,206.3973,NaN,0.0,8.0,,24 / 26,,2493,2021-05-04 15:54:04:695
-0.981653,-0.888276,10.142148,-0.783599,-0.516213,9.761654,-0.06091,-0.005703,1.636933,-4.8,-14.28,-42.24,152.4756,2.8864,4.6303,55.814007,37.500263,206.3973,NaN,0.0,8.0,,24 / 26,,2502,2021-05-04 15:54:04:704
-0.57702,-0.696734,10.151725,-0.786432,-0.536813,9.760315,-0.030367,4.06E-4,1.638765,-5.28,-13.98,-42.0,152.4756,2.8864,4.6303,55.814007,37.500263,206.3973,NaN,0.0,8.0,,24 / 26,,2512,2021-05-04 15:54:04:714
-0.05028,-0.270553,9.522031,-0.786432,-0.536813,9.760315,-0.019982,0.02484,1.626548,-5.28,-13.98,-42.0,152.4756,2.8864,4.6303,55.814007,37.500263,206.3973,NaN,0.0,8.0,,24 / 26,,2523,2021-05-04 15:54:04:725
-0.05028,-0.270553,9.033599,-0.777974,-0.537055,9.760979,-0.043195,0.009569,1.599059,-5.04,-13.44,-42.06,151.2774,3.1379,4.6066,55.814007,37.500263,206.3973,NaN,0.0,8.0,,24 / 26,,2533,2021-05-04 15:54:04:735
0.119714,0.119714,9.033599,-0.777974,-0.537055,9.760979,-0.084734,-0.005703,1.575235,-5.04,-13.44,-42.06,151.2774,3.1379,4.6066,55.814007,37.500263,206.3973,NaN,0.0,8.0,,24 / 26,,2542,2021-05-04 15:54:04:744
0.311256,-0.253793,8.906702,-0.728641,-0.521552,9.765626,-0.142155,-0.042966,1.547135,-4.74,-12.96,-43.02,151.2774,3.1379,4.6066,55.814007,37.500263,206.3973,NaN,0.0,8.0,,24 / 26,,2552,2021-05-04 15:54:04:754
-0.107742,-0.454912,10.096657,-0.728641,-0.521552,9.765626,-0.175753,-0.013033,1.531253,-4.74,-12.96,-43.02,151.2774,3.1379,4.6066,55.814007,37.500263,206.3973,NaN,0.0,8.0,,24 / 26,,2562,2021-05-04 15:54:04:764
-0.107742,-0.454912,10.096657,-0.728641,-0.521552,9.765626,-0.165368,0.010179,1.533086,-4.74,-12.96,-43.02,151.2774,3.1379,4.6066,55.814007,37.500263,206.3973,NaN,0.0,8.0,,24 / 26,,2572,2021-05-04 15:54:04:774
-0.624906,-0.689551,10.972961,-0.703988,-0.522982,9.767358,-0.089621,0.046831,1.539194,-4.44,-12.54,-43.08,154.7569,3.0486,4.2671,55.814007,37.500263,206.3973,NaN,0.0,8.0,,24 / 26,,2582,2021-05-04 15:54:04:784
-0.945739,-0.847573,10.570724,-0.71412,-0.526556,9.766431,-0.038308,0.048053,1.539194,-4.32,-12.78,-43.08,154.7569,3.0486,4.2671,55.814007,37.500263,206.3973,NaN,0.0,8.0,,24 / 26,,2592,2021-05-04 15:54:04:794
-0.979258,-0.557866,9.366403,-0.739851,-0.514491,9.765158,-0.020593,0.03889,1.554466,-4.44,-12.78,-42.84,154.7569,3.0486,4.2671,55.814007,37.500263,206.3973,NaN,0.0,8.0,,24 / 26,,2603,2021-05-04 15:54:04:805
-0.998413,-0.718282,9.177256,-0.739851,-0.514491,9.765158,-0.048693,-0.017309,1.567905,-4.44,-12.78,-42.84,154.7569,3.0486,4.2671,55.814007,37.500263,206.3973,NaN,0.0,8.0,,24 / 26,,2612,2021-05-04 15:54:04:814
-1.029538,-0.533923,9.938635,-0.756295,-0.498146,9.764746,-0.084734,-0.041744,1.579511,-4.14,-12.78,-42.0,154.719,3.0073,4.3327,55.814007,37.500263,206.3973,NaN,0.0,8.0,,24 / 26,,2622,2021-05-04 15:54:04:824
-1.029538,-0.533923,9.938635,-0.756295,-0.498146,9.764746,-0.116499,-0.042355,1.596615,-4.14,-12.78,-42.0,154.719,3.0073,4.3327,55.814007,37.500263,206.3973,NaN,0.0,8.0,,24 / 26,,2632,2021-05-04 15:54:04:834
-0.761379,-0.555472,10.185245,-0.763723,-0.493819,9.764387,-0.126273,-0.006314,1.610055,-3.96,-11.94,-41.82,154.719,3.0073,4.3327,55.814007,37.500263,206.3973,NaN,0.0,8.0,,24 / 26,,2642,2021-05-04 15:54:04:844
-0.615329,-0.658426,9.881172,-0.763723,-0.493819,9.764387,-0.121386,0.019953,1.619828,-3.96,-11.94,-41.82,154.719,3.0073,4.3327,55.814007,37.500263,206.3973,NaN,0.0,8.0,,24 / 26,,2652,2021-05-04 15:54:04:854
-0.555472,-0.332804,9.390346,-0.780841,-0.49326,9.763062,-0.098173,0.006514,1.619828,-4.62,-11.88,-41.64,149.5914,2.8864,4.4723,55.814007,37.500263,206.3973,NaN,0.0,8.0,,24 / 26,,2662,2021-05-04 15:54:04:864
-0.59378,-0.466884,9.316123,-0.780841,-0.49326,9.763062,-0.086566,-0.034414,1.62105,-4.62,-11.88,-41.64,149.5914,2.8864,4.4723,55.814007,37.500263,206.3973,NaN,0.0,8.0,,24 / 26,,2672,2021-05-04 15:54:04:874
-0.59378,-0.466884,9.316123,-0.780841,-0.49326,9.763062,-0.086566,-0.034414,1.62105,-4.62,-11.88,-41.64,149.5914,2.8864,4.4723,55.814007,37.500263,206.3973,NaN,0.0,8.0,,24 / 26,,2682,2021-05-04 15:54:04:884
-0.701522,-0.447729,9.840469,-0.793804,-0.485852,9.762387,-0.08229,-0.04602,1.62105,-4.38,-11.4,-42.0,149.5914,2.8864,4.4723,55.814007,37.500263,206.3973,NaN,0.0,8.0,,24 / 26,,2692,2021-05-04 15:54:04:894
-0.842785,-0.476461,10.230737,-0.802084,-0.476105,9.762191,-0.084734,-0.016699,1.632046,-3.9,-11.04,-42.66,150.2894,2.8398,4.6486,55.814007,37.500263,206.3973,NaN,0.0,8.0,,24 / 26,,2702,2021-05-04 15:54:04:904
-0.816448,-0.579414,9.828498,-0.802084,-0.476105,9.762191,-0.096951,-0.008757,1.639376,-3.9,-11.04,-42.66,150.2894,2.8398,4.6486,55.814007,37.500263,206.3973,NaN,0.0,8.0,,24 / 26,,2712,2021-05-04 15:54:04:914
-0.893064,-0.689551,9.866806,-0.815524,-0.468524,9.761444,-0.107336,-0.013033,1.648539,-3.72,-11.64,-43.14,150.2894,2.8398,4.6486,55.814007,37.500263,206.3973,NaN,0.0,8.0,,24 / 26,,2722,2021-05-04 15:54:04:924
-0.893064,-0.689551,9.866806,-0.815524,-0.468524,9.761444,-0.097562,0.012623,1.658924,-3.72,-11.64,-43.14,150.2894,2.8398,4.6486,55.814007,37.500263,206.3973,NaN,0.0,8.0,,24 / 26,,2733,2021-05-04 15:54:04:935
-0.919401,-0.770956,10.230737,-0.831936,-0.461193,9.760408,-0.066408,0.035836,1.667476,-3.78,-11.16,-42.96,149.8362,2.7384,4.7757,55.814007,37.500263,206.3973,NaN,0.0,8.0,,24 / 26,,2742,2021-05-04 15:54:04:944
-0.756591,-0.629694,10.029617,-0.831936,-0.461193,9.760408,-0.038308,0.019342,1.67053,-3.78,-11.16,-42.96,149.8362,2.7384,4.7757,55.814007,37.500263,206.3973,NaN,0.0,8.0,,24 / 26,,2752,2021-05-04 15:54:04:954
-0.390267,-0.428575,9.395134,-0.831936,-0.461193,9.760408,-0.038308,0.019342,1.67053,-3.3,-9.96,-42.6,149.8362,2.7384,4.7757,55.814007,37.500263,206.3973,NaN,0.0,8.0,,24 / 26,,2762,2021-05-04 15:54:04:964
-0.390267,-0.428575,9.395134,-0.851616,-0.442628,9.75957,-0.036475,-0.025862,1.660756,-3.3,-9.96,-42.6,149.8362,2.7384,4.7757,55.814007,37.500263,206.3973,NaN,0.0,8.0,,24 / 26,,2772,2021-05-04 15:54:04:974
-0.098165,-0.189148,8.851634,-0.858023,-0.425179,9.759785,-0.071906,-0.050907,1.641209,-3.12,-9.78,-43.14,150.546,2.587,4.987,55.814007,37.500263,206.3973,NaN,0.0,8.0,,24 / 26,,2782,2021-05-04 15:54:04:984
-0.225062,-0.201119,9.347249,-0.858023,-0.425179,9.759785,-0.139712,-0.05274,1.622883,-3.12,-9.78,-43.14,150.546,2.587,4.987,55.814007,37.500263,206.3973,NaN,0.0,8.0,,24 / 26,,2792,2021-05-04 15:54:04:994
-0.308861,-0.39745,10.276228,-0.86066,-0.426273,9.759505,-0.168422,-0.053351,1.619828,-3.54,-9.9,-43.5,150.546,2.587,4.987,55.814007,37.500263,206.3973,NaN,0.0,8.0,,24 / 26,,2803,2021-05-04 15:54:05:005
-0.421392,-0.311256,10.443827,-0.86066,-0.426273,9.759505,-0.17392,-0.050907,1.612498,-3.54,-9.9,-43.5,150.546,2.587,4.987,55.814007,37.500263,206.3973,NaN,0.0,8.0,,24 / 26,,2813,2021-05-04 15:54:05:015
-0.421392,-0.311256,10.443827,-0.86066,-0.426273,9.759505,-0.13177,0.023618,1.608222,-3.54,-9.66,-42.84,146.7462,2.4913,5.0397,55.814007,37.500263,206.3973,NaN,0.0,8.0,,24 / 26,,2822,2021-05-04 15:54:05:024
-0.584203,-0.234639,9.58907,-0.868065,-0.430028,9.758684,-0.098173,0.079818,1.601502,-3.54,-9.66,-42.84,146.7462,2.4913,5.0397,55.814007,37.500263,206.3973,NaN,0.0,8.0,,24 / 26,,2832,2021-05-04 15:54:05:034
-0.754197,-0.320833,9.256267,-0.894606,-0.420424,9.756705,-0.07496,0.051107,1.596005,-3.54,-9.24,-42.18,146.7462,2.4913,5.0397,55.814007,37.500263,206.3973,NaN,0.0,8.0,,24 / 26,,2842,2021-05-04 15:54:05:044
-1.075029,-0.670397,9.792584,-0.894606,-0.420424,9.756705,-0.076792,0.015066,1.600892,-3.54,-9.24,-42.18,146.7462,2.4913,5.0397,55.814007,37.500263,206.3973,NaN,0.0,8.0,,24 / 26,,2853,2021-05-04 15:54:05:055
-1.075029,-0.670397,9.792584,-0.909108,-0.40719,9.755927,-0.09634,-0.008757,1.614331,-3.18,-9.06,-43.5,147.4121,2.4571,5.2389,55.814007,37.500263,206.3973,NaN,0.0,8.0,,24 / 26,,2863,2021-05-04 15:54:05:065
-1.510787,-0.952921,10.534809,-0.909108,-0.40719,9.755927,-0.118942,0.009569,1.64182,-3.18,-9.06,-43.5,147.4121,2.4571,5.2389,55.814007,37.500263,206.3973,NaN,0.0,8.0,,24 / 26,,2872,2021-05-04 15:54:05:074
-1.410228,-1.1708,10.312141,-0.922441,-0.400045,9.754971,-0.119553,-0.020364,1.665643,-2.82,-9.24,-43.8,147.4121,2.4571,5.2389,55.814007,37.500263,206.3973,NaN,0.0,8.0,,24 / 26,,2882,2021-05-04 15:54:05:084
-0.998413,-0.914613,9.953,-0.922441,-0.400045,9.754971,-0.104281,-0.069844,1.674806,-2.82,-9.24,-43.8,147.4121,2.4571,5.2389,55.814007,37.500263,206.3973,NaN,0.0,8.0,,24 / 26,,2892,2021-05-04 15:54:05:094
-0.301679,-0.792505,9.63935,-0.924459,-0.390048,9.755184,-0.078625,-0.079007,1.680915,-2.76,-9.24,-42.96,146.744,2.3379,5.4019,55.814007,37.500263,206.3973,NaN,0.0,8.0,,24 / 26,,2902,2021-05-04 15:54:05:104
-0.301679,-0.792505,9.63935,-0.924459,-0.390048,9.755184,-0.059688,-0.038079,1.676028,-2.76,-9.24,-42.96,146.744,2.3379,5.4019,55.814007,37.500263,206.3973,NaN,0.0,8.0,,24 / 26,,2912,2021-05-04 15:54:05:114
-0.129291,-0.656031,9.873989,-0.927926,-0.372115,9.755555,-0.043195,0.016899,1.666865,-2.34,-9.12,-42.48,146.744,2.3379,5.4019,55.814007,37.500263,206.3973,NaN,0.0,8.0,,24 / 26,,2922,2021-05-04 15:54:05:124
-0.064645,-0.56026,9.778218,-0.927926,-0.372115,9.755555,-0.051747,0.01079,1.654037,-2.34,-9.12,-42.48,146.744,2.3379,5.4019,55.814007,37.500263,206.3973,NaN,0.0,8.0,,24 / 26,,2933,2021-05-04 15:54:05:135
-0.186753,-0.52674,9.814133,-0.941856,-0.350957,9.755005,-0.071295,0.015066,1.64182,-2.04,-8.52,-42.24,150.5568,2.1746,5.4335,55.814007,37.500263,206.3973,NaN,0.0,8.0,,24 / 26,,2942,2021-05-04 15:54:05:144
-0.316044,-0.395055,9.924269,-0.941856,-0.350957,9.755005,-0.08901,0.034003,1.627159,-2.04,-8.52,-42.24,150.5568,2.1746,5.4335,55.814007,37.500263,206.3973,NaN,0.0,8.0,,24 / 26,,2952,2021-05-04 15:54:05:154
-0.316044,-0.395055,9.924269,-0.956862,-0.336114,9.754067,-0.08901,0.034003,1.627159,-2.34,-8.04,-42.84,150.5568,2.1746,5.4335,55.814007,37.500263,206.3973,NaN,0.0,8.0,,24 / 26,,2962,2021-05-04 15:54:05:164
-0.605751,-0.354353,10.051166,-0.956862,-0.336114,9.754067,-0.093286,0.015066,1.608833,-2.34,-8.04,-42.84,150.5568,2.1746,5.4335,55.814007,37.500263,206.3973,NaN,0.0,8.0,,24 / 26,,2973,2021-05-04 15:54:05:175
-0.665608,-0.383084,9.759064,-0.968251,-0.322402,9.753407,-0.076182,-8.16E-4,1.598448,-2.76,-7.56,-42.78,142.7643,1.9641,5.6027,55.814007,37.500263,206.3973,NaN,0.0,8.0,,24 / 26,,2983,2021-05-04 15:54:05:185
-0.57702,-0.201119,9.438231,-0.968251,-0.322402,9.753407,-0.06091,-0.017309,1.593561,-2.76,-7.56,-42.78,142.7643,1.9641,5.6027,55.814007,37.500263,206.3973,NaN,0.0,8.0,,24 / 26,,2993,2021-05-04 15:54:05:195
-0.586597,-0.256187,9.203592,-0.974375,-0.30338,9.753407,-0.062743,-0.013033,1.590507,-2.04,-7.32,-42.54,142.7643,1.9641,5.6027,55.814007,37.500263,206.3973,NaN,0.0,8.0,,24 / 26,,3002,2021-05-04 15:54:05:204
-0.586597,-0.256187,9.203592,-0.974375,-0.30338,9.753407,-0.081679,-0.009368,1.591729,-2.04,-7.32,-42.54,142.7643,1.9641,5.6027,55.814007,37.500263,206.3973,NaN,0.0,8.0,,24 / 26,,3012,2021-05-04 15:54:05:214
-0.588992,-0.179571,9.58907,-0.974375,-0.30338,9.753407,-0.107947,-0.014255,1.598448,-2.04,-7.32,-42.54,142.7643,1.9641,5.6027,55.814007,37.500263,206.3973,NaN,0.0,8.0,,24 / 26,,3022,2021-05-04 15:54:05:224
-0.586597,-0.24661,9.780613,-0.981449,-0.288743,9.753141,-0.118331,-0.016088,1.602113,-1.14,-7.62,-42.66,150.5077,1.7728,5.705,55.814007,37.500263,206.3973,NaN,0.0,8.0,,24 / 26,,3033,2021-05-04 15:54:05:235
-0.586597,-0.24661,9.780613,-0.981449,-0.288743,9.753141,-0.13177,0.013845,1.617385,-1.14,-7.62,-42.66,150.5077,1.7728,5.705,55.814007,37.500263,206.3973,NaN,0.0,8.0,,24 / 26,,3042,2021-05-04 15:54:05:244
-0.826025,-0.440547,9.964972,-0.981449,-0.288743,9.753141,-0.13177,0.013845,1.617385,-1.14,-6.9,-42.78,150.5077,1.7728,5.705,55.814007,37.500263,206.3973,NaN,0.0,8.0,,24 / 26,,3052,2021-05-04 15:54:05:254
-1.034327,-0.433364,9.684841,-0.953341,-0.284926,9.756042,-0.103671,0.005903,1.644263,-1.14,-6.9,-42.78,150.5077,1.7728,5.705,55.814007,37.500263,206.3973,NaN,0.0,8.0,,24 / 26,,3062,2021-05-04 15:54:05:264
-1.230657,-0.656031,9.684841,-0.953341,-0.284926,9.756042,-0.103671,0.005903,1.644263,-1.14,-6.9,-42.78,150.5077,1.7728,5.705,55.814007,37.500263,206.3973,NaN,0.0,8.0,,24 / 26,,3072,2021-05-04 15:54:05:274
-1.089395,-0.687157,10.032011,-0.911464,-0.291695,9.759843,-0.099394,-0.011201,1.65648,-0.54,-6.48,-42.24,144.8294,1.6649,5.5811,55.814007,37.500263,206.3973,NaN,0.0,8.0,,24 / 26,,3083,2021-05-04 15:54:05:285
-1.089395,-0.687157,10.032011,-0.897722,-0.308653,9.760595,-0.096951,-0.020364,1.672974,0.0,-6.48,-42.54,144.8294,1.6649,5.5811,55.814007,37.500263,206.3973,NaN,0.0,8.0,,24 / 26,,3092,2021-05-04 15:54:05:294
-0.72786,-0.778139,9.893144,-0.897722,-0.308653,9.760595,-0.111001,-0.039301,1.67725,0.0,-6.48,-42.54,144.8294,1.6649,5.5811,55.814007,37.500263,206.3973,NaN,0.0,8.0,,24 / 26,,3102,2021-05-04 15:54:05:304
-0.56026,-0.687157,9.826104,-0.897722,-0.308653,9.760595,-0.121997,-0.046631,1.676639,-0.3,-6.48,-42.3,152.2566,1.8036,5.2549,55.814007,37.500263,206.3973,NaN,0.0,8.0,,24 / 26,,3112,2021-05-04 15:54:05:314
-0.36393,-0.773351,9.885961,-0.881402,-0.341149,9.761001,-0.115888,-0.049074,1.669308,-0.3,-6.48,-42.3,152.2566,1.8036,5.2549,55.814007,37.500263,206.3973,NaN,0.0,8.0,,24 / 26,,3123,2021-05-04 15:54:05:325
-0.284919,-0.730254,10.111023,-0.846318,-0.382274,9.762581,-0.098784,-0.033192,1.67053,-0.12,-6.48,-41.7,152.2566,1.8036,5.2549,55.814007,37.500263,206.3973,NaN,0.0,8.0,,24 / 26,,3132,2021-05-04 15:54:05:334
-0.284919,-0.730254,10.111023,-0.846318,-0.382274,9.762581,-0.073127,-0.006925,1.67053,-0.12,-6.48,-41.7,152.2566,1.8036,5.2549,55.814007,37.500263,206.3973,NaN,0.0,8.0,,24 / 26,,3142,2021-05-04 15:54:05:344
-0.476461,-0.541106,10.101445,-0.856045,-0.369636,9.76222,-0.05358,0.032171,1.67053,0.06,-6.78,-42.18,157.1919,2.234,4.9546,55.814007,37.500263,206.3973,NaN,0.0,8.0,,24 / 26,,3152,2021-05-04 15:54:05:354
-0.615329,-0.524346,9.802161,-0.856045,-0.369636,9.76222,-0.052969,0.044388,1.678472,0.06,-6.78,-42.18,157.1919,2.234,4.9546,55.814007,37.500263,206.3973,NaN,0.0,8.0,,24 / 26,,3162,2021-05-04 15:54:05:364
-0.854756,-0.392661,9.517242,-0.856045,-0.369636,9.76222,-0.063353,0.030338,1.683969,0.06,-6.78,-42.18,157.1919,2.234,4.9546,55.814007,37.500263,206.3973,NaN,0.0,8.0,,24 / 26,,3172,2021-05-04 15:54:05:374
-0.926584,-0.371113,9.57231,-0.875762,-0.351014,9.761159,-0.090842,-0.001427,1.693743,0.12,-6.9,-42.96,157.1919,2.234,4.9546,55.814007,37.500263,206.3973,NaN,0.0,8.0,,24 / 26,,3182,2021-05-04 15:54:05:384
-0.926584,-0.371113,9.57231,-0.888759,-0.337241,9.760468,-0.109779,-0.032581,1.701073,-0.12,-6.66,-42.66,155.7462,2.0513,5.1268,55.814007,37.500263,206.3973,NaN,0.0,8.0,,24 / 26,,3193,2021-05-04 15:54:05:395
-0.87391,-0.385478,9.912297,-0.888759,-0.337241,9.760468,-0.109779,-0.032581,1.701073,-0.12,-6.66,-42.66,155.7462,2.0513,5.1268,55.814007,37.500263,206.3973,NaN,0.0,8.0,,24 / 26,,3202,2021-05-04 15:54:05:404
-0.682368,-0.411815,9.823709,-0.892259,-0.329334,9.760421,-0.114666,-0.038079,1.716345,-0.06,-6.48,-42.48,155.7462,2.0513,5.1268,55.814007,37.500263,206.3973,NaN,0.0,8.0,,24 / 26,,3213,2021-05-04 15:54:05:415
-0.512375,-0.474066,9.672871,-0.892259,-0.329334,9.760421,-0.111612,-0.029527,1.718789,-0.06,-6.48,-42.48,155.7462,2.0513,5.1268,55.814007,37.500263,206.3973,NaN,0.0,8.0,,24 / 26,,3222,2021-05-04 15:54:05:424
-0.339987,-0.550683,9.826104,-0.859739,-0.349791,9.762627,-0.103671,-0.014255,1.721232,0.6,-6.48,-43.2,158.5739,1.9245,5.2232,55.814007,37.500263,206.3973,NaN,0.0,8.0,,24 / 26,,3232,2021-05-04 15:54:05:434
-0.339987,-0.550683,9.826104,-0.859739,-0.349791,9.762627,-0.093897,0.01751,1.717567,0.6,-6.48,-43.2,158.5739,1.9245,5.2232,55.814007,37.500263,206.3973,NaN,0.0,8.0,,24 / 26,,3242,2021-05-04 15:54:05:444
-0.392661,-0.603357,10.051166,-0.822013,-0.36858,9.765184,-0.082901,0.038279,1.717567,0.6,-6.24,-43.32,158.5739,1.9245,5.2232,55.814007,37.500263,206.3973,NaN,0.0,8.0,,24 / 26,,3252,2021-05-04 15:54:05:454
-0.517163,-0.617723,10.041589,-0.822013,-0.36858,9.765184,-0.082901,0.038279,1.717567,0.6,-6.24,-43.32,158.5739,1.9245,5.2232,55.814007,37.500263,206.3973,NaN,0.0,8.0,,24 / 26,,3262,2021-05-04 15:54:05:464
-0.622511,-0.567443,9.821315,-0.822013,-0.36858,9.765184,-0.074349,0.020564,1.707793,0.72,-6.0,-42.48,161.5476,2.154,4.8117,55.814007,37.500263,206.3973,NaN,0.0,8.0,,24 / 26,,3272,2021-05-04 15:54:05:474
-0.536318,-0.435758,9.524426,-0.788461,-0.387092,9.767235,-0.077403,4.06E-4,1.700463,0.72,-6.0,-42.48,161.5476,2.154,4.8117,55.814007,37.500263,206.3973,NaN,0.0,8.0,,24 / 26,,3282,2021-05-04 15:54:05:484
-0.536318,-0.435758,9.524426,-0.756452,-0.404067,9.769079,-0.092064,-0.020364,1.696187,1.56,-6.24,-42.06,161.5476,2.154,4.8117,55.814007,37.500263,206.3973,NaN,0.0,8.0,,24 / 26,,3293,2021-05-04 15:54:05:495
-0.433364,-0.337593,9.402317,-0.756452,-0.404067,9.769079,-0.107947,-0.036857,1.68458,1.56,-6.24,-42.06,161.5476,2.154,4.8117,55.814007,37.500263,206.3973,NaN,0.0,8.0,,24 / 26,,3302,2021-05-04 15:54:05:504
-0.368718,-0.371113,9.668081,-0.719173,-0.417121,9.771345,-0.123218,-0.035025,1.678472,1.8,-6.12,-42.24,170.8215,2.3614,4.4278,55.814007,37.500263,206.3973,NaN,0.0,8.0,,24 / 26,,3313,2021-05-04 15:54:05:515
-0.416604,-0.328016,10.079897,-0.719173,-0.417121,9.771345,-0.126273,-0.021586,1.677861,1.8,-6.12,-42.24,170.8215,2.3614,4.4278,55.814007,37.500263,206.3973,NaN,0.0,8.0,,24 / 26,,3323,2021-05-04 15:54:05:525
-0.428575,-0.524346,10.142148,-0.687166,-0.42381,9.77336,-0.115277,-0.009368,1.679693,1.56,-5.46,-42.24,170.8215,2.3614,4.4278,55.814007,37.500263,206.3973,NaN,0.0,8.0,,24 / 26,,3332,2021-05-04 15:54:05:534
-0.428575,-0.524346,10.142148,-0.687166,-0.42381,9.77336,-0.094508,0.008347,1.688245,1.56,-5.46,-42.24,170.8215,2.3614,4.4278,55.814007,37.500263,206.3973,NaN,0.0,8.0,,24 / 26,,3343,2021-05-04 15:54:05:545
-0.778139,-0.59378,10.051166,-0.687166,-0.42381,9.77336,-0.08229,0.057827,1.694965,1.56,-5.46,-42.24,170.8215,2.3614,4.4278,55.814007,37.500263,206.3973,NaN,0.0,8.0,,24 / 26,,3352,2021-05-04 15:54:05:554
-0.883487,-0.648848,9.663293,-0.668056,-0.426835,9.774554,-0.078014,0.03889,1.706571,1.98,-5.28,-42.36,172.0552,2.4769,4.0219,55.814007,37.500263,206.3973,NaN,0.0,8.0,,24 / 26,,3362,2021-05-04 15:54:05:564
-0.811659,-0.488432,9.548368,-0.668056,-0.426835,9.774554,-0.079236,0.002238,1.706571,1.98,-5.28,-42.36,172.0552,2.4769,4.0219,55.814007,37.500263,206.3973,NaN,0.0,8.0,,24 / 26,,3372,2021-05-04 15:54:05:574
-0.402238,-0.507586,9.780613,-0.688621,-0.430538,9.772964,-0.095729,-0.051518,1.709626,2.46,-5.52,-42.0,172.0552,2.4769,4.0219,55.814007,37.500263,206.3973,NaN,0.0,8.0,,24 / 26,,3382,2021-05-04 15:54:05:584
-0.402238,-0.507586,9.780613,-0.691463,-0.435523,9.772543,-0.102449,-0.022807,1.699241,2.82,-6.0,-41.7,180.2959,2.5162,4.0305,55.814007,37.500263,206.3973,NaN,0.0,8.0,,24 / 26,,3393,2021-05-04 15:54:05:595
-0.143656,-0.512375,10.032011,-0.691463,-0.435523,9.772543,-0.102449,-0.022807,1.699241,2.82,-6.0,-41.7,180.2959,2.5162,4.0305,55.814007,37.500263,206.3973,NaN,0.0,8.0,,24 / 26,,3402,2021-05-04 15:54:05:604
-0.043097,-0.351958,9.713573,-0.690078,-0.443428,9.772285,-0.087788,-0.019142,1.679693,3.12,-5.88,-42.12,180.2959,2.5162,4.0305,55.814007,37.500263,206.3973,NaN,0.0,8.0,,24 / 26,,3412,2021-05-04 15:54:05:614
0.045491,-0.318439,9.466963,-0.690078,-0.443428,9.772285,-0.084123,-0.02464,1.6632,3.12,-5.88,-42.12,180.2959,2.5162,4.0305,55.814007,37.500263,206.3973,NaN,0.0,8.0,,24 / 26,,3423,2021-05-04 15:54:05:625
0.045491,-0.318439,9.466963,-0.652873,-0.448754,9.774598,-0.084123,-0.02464,1.6632,3.06,-5.7,-42.12,180.247,2.5916,4.0393,55.814007,37.500263,206.3973,NaN,0.0,8.0,,24 / 26,,3432,2021-05-04 15:54:05:634
-0.318439,-0.36393,9.830893,-0.652873,-0.448754,9.774598,-0.092675,0.009569,1.662589,3.06,-5.7,-42.12,180.247,2.5916,4.0393,55.814007,37.500263,206.3973,NaN,0.0,8.0,,24 / 26,,3442,2021-05-04 15:54:05:644
-0.720677,-0.407027,10.029617,-0.652873,-0.448754,9.774598,-0.100005,0.055383,1.660756,3.06,-5.7,-42.12,180.247,2.5916,4.0393,55.814007,37.500263,206.3973,NaN,0.0,8.0,,24 / 26,,3452,2021-05-04 15:54:05:654
-0.938556,-0.447729,9.878778,-0.646638,-0.44826,9.775035,-0.090232,0.029116,1.673585,3.06,-6.12,-42.48,180.247,2.5916,4.0393,55.814007,37.500263,206.3973,NaN,0.0,8.0,,24 / 26,,3463,2021-05-04 15:54:05:665
-0.938556,-0.447729,9.878778,-0.665336,-0.443928,9.773977,-0.087177,-0.005703,1.683969,3.9,-6.24,-42.42,188.7481,2.6199,3.7847,55.814007,37.500263,206.3973,NaN,0.0,8.0,,24 / 26,,3472,2021-05-04 15:54:05:674
-1.058269,-0.531529,9.658504,-0.665336,-0.443928,9.773977,-0.102449,0.006514,1.696187,3.9,-6.24,-42.42,188.7481,2.6199,3.7847,55.814007,37.500263,206.3973,NaN,0.0,8.0,,24 / 26,,3483,2021-05-04 15:54:05:685
-1.091789,-0.557866,9.531608,-0.680144,-0.440336,9.773122,-0.112834,0.002849,1.713291,4.62,-6.66,-42.24,188.7481,2.6199,3.7847,55.814007,37.500263,206.3973,NaN,0.0,8.0,,24 / 26,,3493,2021-05-04 15:54:05:695
-0.888276,-0.550683,9.768641,-0.680144,-0.440336,9.773122,-0.121386,-0.05274,1.719399,4.62,-6.66,-42.24,188.7481,2.6199,3.7847,55.814007,37.500263,206.3973,NaN,0.0,8.0,,24 / 26,,3503,2021-05-04 15:54:05:705
-0.639271,-0.615329,10.108628,-0.690302,-0.442981,9.772289,-0.115277,-0.0674,1.732838,4.68,-7.2,-43.02,192.6337,2.5735,3.981,55.814007,37.500263,206.3973,NaN,0.0,8.0,,24 / 26,,3512,2021-05-04 15:54:05:714
-0.639271,-0.615329,10.108628,-0.690302,-0.442981,9.772289,-0.108557,-0.011812,1.742001,4.68,-7.2,-43.02,192.6337,2.5735,3.981,55.814007,37.500263,206.3973,NaN,0.0,8.0,,24 / 26,,3522,2021-05-04 15:54:05:724
-0.830813,-0.56026,9.929058,-0.690302,-0.442981,9.772289,-0.108557,-0.011812,1.742001,4.68,-7.2,-43.02,192.6337,2.5735,3.981,55.814007,37.500263,206.3973,NaN,0.0,8.0,,24 / 26,,3532,2021-05-04 15:54:05:734
-0.244216,-0.646454,9.215564,-0.700573,-0.440943,9.77165,-0.104892,-0.080839,1.740169,4.68,-6.66,-43.02,192.6337,2.5735,3.981,55.814007,37.500263,206.3973,NaN,0.0,8.0,,24 / 26,,3542,2021-05-04 15:54:05:744
-0.244216,-0.646454,9.215564,-0.700573,-0.440943,9.77165,-0.104892,-0.080839,1.740169,4.68,-6.66,-43.02,192.6337,2.5735,3.981,55.814007,37.500263,206.3973,NaN,0.0,8.0,,24 / 26,,3552,2021-05-04 15:54:05:754
-0.521952,-0.658426,10.31693,-0.708144,-0.436793,9.771291,-0.109168,-0.061903,1.735893,4.38,-5.82,-42.72,186.5761,2.5771,4.1008,55.814007,37.500263,206.3973,NaN,0.0,8.0,,24 / 26,,3562,2021-05-04 15:54:05:764
-0.806871,-0.507586,10.489318,-0.719446,-0.432625,9.770651,-0.08901,0.060881,1.752386,4.5,-5.46,-42.3,186.5761,2.5771,4.1008,55.814007,37.500263,206.3973,NaN,0.0,8.0,,24 / 26,,3573,2021-05-04 15:54:05:775
-0.742225,-0.524346,9.598648,-0.719446,-0.432625,9.770651,-0.072516,0.057216,1.762771,4.5,-5.46,-42.3,186.5761,2.5771,4.1008,55.814007,37.500263,206.3973,NaN,0.0,8.0,,24 / 26,,3582,2021-05-04 15:54:05:784
-0.723071,-0.423787,9.237112,-0.745103,-0.420821,9.769243,-0.063964,0.007125,1.770712,4.62,-5.76,-42.6,193.0306,2.5285,4.2113,55.814007,37.500263,206.3973,NaN,0.0,8.0,,24 / 26,,3592,2021-05-04 15:54:05:794
-0.723071,-0.423787,9.237112,-0.745103,-0.420821,9.769243,-0.08901,-0.001427,1.779264,4.62,-5.76,-42.6,193.0306,2.5285,4.2113,55.814007,37.500263,206.3973,NaN,0.0,8.0,,24 / 26,,3603,2021-05-04 15:54:05:805
-0.763774,-0.416604,9.517242,-0.75838,-0.41085,9.768646,-0.113444,0.005293,1.790871,4.92,-6.24,-42.66,193.0306,2.5285,4.2113,55.814007,37.500263,206.3973,NaN,0.0,8.0,,24 / 26,,3613,2021-05-04 15:54:05:815
-0.905036,-0.512375,9.912297,-0.75838,-0.41085,9.768646,-0.123218,-0.016699,1.803699,4.92,-6.24,-42.66,193.0306,2.5285,4.2113,55.814007,37.500263,206.3973,NaN,0.0,8.0,,24 / 26,,3623,2021-05-04 15:54:05:825
-0.651243,-0.603357,9.988914,-0.75838,-0.41085,9.768646,-0.123829,-0.071066,1.816527,5.88,-5.82,-41.82,199.37,2.4011,4.4392,55.814007,37.500263,206.3973,NaN,0.0,8.0,,24 / 26,,3632,2021-05-04 15:54:05:834
-0.395055,-0.641666,9.850046,-0.770292,-0.406981,9.767876,-0.119553,-0.074731,1.822636,5.88,-5.82,-41.82,199.37,2.4011,4.4392,55.814007,37.500263,206.3973,NaN,0.0,8.0,,24 / 26,,3642,2021-05-04 15:54:05:844
-0.395055,-0.641666,9.850046,-0.770292,-0.406981,9.7679,-0.121386,0.006514,1.826912,5.7,-5.76,-42.18,199.37,2.4011,4.4392,55.814007,37.500263,206.3973,NaN,0.0,8.0,,24 / 26,,3652,2021-05-04 15:54:05:854
-0.430969,-0.509981,9.727939,-0.772329,-0.402511,9.7679,-0.107947,0.032171,1.820803,5.7,-5.76,-42.18,199.37,2.4011,4.4392,55.814007,37.500263,206.3973,NaN,0.0,8.0,,24 / 26,,3662,2021-05-04 15:54:05:864
-0.459701,-0.459701,9.668081,-0.772329,-0.402511,9.7679,-0.095118,-0.030138,1.81897,6.06,-5.58,-42.3,199.0541,2.3523,4.5209,55.814007,37.500263,206.3973,NaN,0.0,8.0,,24 / 26,,3672,2021-05-04 15:54:05:874
-0.428575,-0.430969,9.73991,-0.790409,-0.396219,9.766711,-0.091453,-0.056405,1.811029,6.06,-5.58,-42.3,199.0541,2.3523,4.5209,55.814007,37.500263,206.3973,NaN,0.0,8.0,,24 / 26,,3683,2021-05-04 15:54:05:885
-0.495615,-0.517163,9.933846,-0.793945,-0.386332,9.766821,-0.114666,-0.041744,1.802477,6.48,-5.46,-42.06,199.0541,2.3523,4.5209,55.814007,37.500263,206.3973,NaN,0.0,8.0,,24 / 26,,3693,2021-05-04 15:54:05:895
-0.495615,-0.517163,9.933846,-0.793945,-0.386332,9.766821,-0.114666,-0.041744,1.802477,6.48,-5.46,-42.06,199.0541,2.3523,4.5209,55.814007,37.500263,206.3973,NaN,0.0,8.0,,24 / 26,,3702,2021-05-04 15:54:05:904
-0.502798,-0.691945,10.0368,-0.797495,-0.383633,9.766638,-0.128105,-0.014866,1.798812,6.24,-5.88,-41.94,199.0541,2.3523,4.5209,55.814007,37.500263,206.3973,NaN,0.0,8.0,,24 / 26,,3712,2021-05-04 15:54:05:914
-0.339987,-0.730254,9.960183,-0.806792,-0.379527,9.766035,-0.115888,-0.020364,1.794536,6.42,-5.88,-42.36,198.5109,2.242,4.6681,55.814007,37.500263,206.3973,NaN,0.0,8.0,,24 / 26,,3722,2021-05-04 15:54:05:924
-0.124502,-0.586597,9.792584,-0.806792,-0.379527,9.766035,-0.095729,-0.026472,1.778653,6.42,-5.88,-42.36,198.5109,2.242,4.6681,55.814007,37.500263,206.3973,NaN,0.0,8.0,,24 / 26,,3732,2021-05-04 15:54:05:934
-0.124502,-0.586597,9.792584,-0.806792,-0.379527,9.766035,-0.081069,0.001016,1.760327,6.96,-6.36,-42.36,198.5109,2.242,4.6681,55.814007,37.500263,206.3973,NaN,0.0,8.0,,24 / 26,,3742,2021-05-04 15:54:05:944
-0.158022,-0.509981,9.98652,-0.815973,-0.369714,9.765648,-0.064575,0.00346,1.746888,6.96,-6.36,-42.36,198.5109,2.242,4.6681,55.814007,37.500263,206.3973,NaN,0.0,8.0,,24 / 26,,3752,2021-05-04 15:54:05:954
-0.126897,-0.495615,10.07032,-0.827894,-0.354917,9.765194,-0.057245,-0.01792,1.735282,7.56,-6.78,-42.42,207.4959,2.1606,4.7763,55.814007,37.500263,206.3973,NaN,0.0,8.0,,24 / 26,,3762,2021-05-04 15:54:05:964
-0.237033,-0.404632,9.660899,-0.827894,-0.354917,9.765194,-0.070073,0.006514,1.721843,7.56,-6.78,-42.42,207.4959,2.1606,4.7763,55.814007,37.500263,206.3973,NaN,0.0,8.0,,24 / 26,,3772,2021-05-04 15:54:05:974
-0.237033,-0.404632,9.660899,-0.783691,-0.357421,9.76875,-0.092675,0.037668,1.718789,7.44,-6.66,-42.48,207.4959,2.1606,4.7763,55.814007,37.500263,206.3973,NaN,0.0,8.0,,24 / 26,,3782,2021-05-04 15:54:05:984
-0.488432,-0.478855,9.227535,-0.783691,-0.357421,9.76875,-0.114055,0.033392,1.71268,7.44,-6.66,-42.48,207.4959,2.1606,4.7763,55.814007,37.500263,206.3973,NaN,0.0,8.0,,24 / 26,,3792,2021-05-04 15:54:05:994
-0.493221,-0.715888,9.557945,-0.783691,-0.357421,9.76875,-0.126883,-0.032581,1.706571,7.44,-6.66,-42.48,207.4959,2.1606,4.7763,55.814007,37.500263,206.3973,NaN,0.0,8.0,,24 / 26,,3802,2021-05-04 15:54:06:004
-0.493221,-0.715888,9.557945,-0.80111,-0.351298,9.767558,-0.114666,-0.042966,1.703517,7.44,-7.08,-42.06,202.9616,2.0887,4.5867,55.814007,37.500263,206.3973,NaN,0.0,8.0,,24 / 26,,3812,2021-05-04 15:54:06:014
-0.567443,-0.668003,10.510866,-0.80111,-0.351298,9.767558,-0.08229,-8.16E-4,1.704128,7.44,-7.08,-42.06,202.9616,2.0887,4.5867,55.814007,37.500263,206.3973,NaN,0.0,8.0,,24 / 26,,3823,2021-05-04 15:54:06:025
-0.553077,-0.490826,10.728745,-0.8046,-0.347083,9.767423,-0.033421,0.02484,1.709626,7.98,-7.14,-42.36,202.9616,2.0887,4.5867,55.814007,37.500263,206.3973,NaN,0.0,8.0,,24 / 26,,3832,2021-05-04 15:54:06:034
-0.608146,-0.404632,9.960183,-0.8046,-0.347083,9.767423,-0.033421,0.02484,1.709626,8.28,-6.54,-42.42,208.0272,2.0283,4.7092,55.814007,37.500263,206.3973,NaN,0.0,8.0,,24 / 26,,3842,2021-05-04 15:54:06:044
-0.608146,-0.404632,9.960183,-0.818894,-0.330206,9.76682,-0.015706,0.019342,1.71268,8.28,-6.54,-42.42,208.0272,2.0283,4.7092,55.814007,37.500263,206.3973,NaN,0.0,8.0,,24 / 26,,3852,2021-05-04 15:54:06:054
-0.545895,-0.275342,9.012051,-0.825962,-0.317847,9.766634,-0.030978,0.013845,1.719399,8.46,-6.78,-42.48,208.0272,2.0283,4.7092,55.814007,37.500263,206.3973,NaN,0.0,8.0,,24 / 26,,3862,2021-05-04 15:54:06:064
-0.529135,-0.316044,8.865999,-0.839159,-0.299872,9.766078,-0.105503,0.016288,1.723675,8.7,-7.14,-42.72,208.0272,2.0283,4.7092,55.814007,37.500263,206.3973,NaN,0.0,8.0,,24 / 26,,3873,2021-05-04 15:54:06:075
-0.567443,-0.495615,9.534002,-0.839159,-0.299872,9.766078,-0.155594,-0.016699,1.73406,8.7,-7.14,-42.72,208.0272,2.0283,4.7092,55.814007,37.500263,206.3973,NaN,0.0,8.0,,24 / 26,,3882,2021-05-04 15:54:06:084
-0.538712,-0.718282,10.553964,-0.846328,-0.300228,9.765449,-0.165368,-0.044798,1.740169,8.88,-7.62,-42.72,209.5331,1.7523,4.9111,55.814007,37.500263,206.3973,NaN,0.0,8.0,,24 / 26,,3893,2021-05-04 15:54:06:095
-0.538712,-0.718282,10.553964,-0.846328,-0.300228,9.765449,-0.129938,-0.030749,1.751775,8.88,-7.62,-42.72,209.5331,1.7523,4.9111,55.814007,37.500263,206.3973,NaN,0.0,8.0,,24 / 26,,3902,2021-05-04 15:54:06:104
-0.498009,-0.751802,10.757477,-0.84692,-0.301237,9.765366,-0.067019,0.023618,1.761549,8.88,-7.56,-42.54,209.5331,1.7523,4.9111,55.814007,37.500263,206.3973,NaN,0.0,8.0,,24 / 26,,3912,2021-05-04 15:54:06:114
-0.524346,-0.598569,10.10384,-0.85678,-0.289864,9.76485,-0.023036,0.062714,1.771934,9.0,-7.68,-42.36,209.5331,1.7523,4.9111,55.814007,37.500263,206.3973,NaN,0.0,8.0,,24 / 26,,3922,2021-05-04 15:54:06:124
-0.529135,-0.474066,9.445415,-0.85678,-0.289864,9.76485,-0.008376,0.064546,1.78354,9.0,-7.68,-42.36,209.5331,1.7523,4.9111,55.814007,37.500263,206.3973,NaN,0.0,8.0,,24 / 26,,3932,2021-05-04 15:54:06:134
-0.632089,-0.375901,9.117398,-0.878276,-0.262624,9.763711,-0.035254,0.05966,1.789649,8.88,-8.1,-42.36,209.7689,1.6938,5.0144,55.814007,37.500263,206.3973,NaN,0.0,8.0,,24 / 26,,3942,2021-05-04 15:54:06:144
-0.632089,-0.375901,9.117398,-0.878276,-0.262624,9.763711,-0.096951,0.04561,1.807364,8.88,-8.1,-42.36,209.7689,1.6938,5.0144,55.814007,37.500263,206.3973,NaN,0.0,8.0,,24 / 26,,3953,2021-05-04 15:54:06:155
-0.792505,-0.428575,9.268238,-0.896931,-0.244099,9.762495,-0.147042,0.019953,1.820803,8.34,-8.34,-42.66,209.7689,1.6938,5.0144,55.814007,37.500263,206.3973,NaN,0.0,8.0,,24 / 26,,3963,2021-05-04 15:54:06:165
-0.981653,-0.557866,9.878778,-0.896931,-0.244099,9.762495,-0.167811,-0.016699,1.842183,8.34,-8.34,-42.66,209.7689,1.6938,5.0144,55.814007,37.500263,206.3973,NaN,0.0,8.0,,24 / 26,,3972,2021-05-04 15:54:06:174
-0.972076,-0.572232,10.290593,-0.896931,-0.244099,9.762495,-0.167811,-0.016699,1.842183,8.34,-8.34,-42.66,209.7689,1.6938,5.0144,55.814007,37.500263,206.3973,NaN,0.0,8.0,,24 / 26,,3982,2021-05-04 15:54:06:184
-0.861939,-0.634483,10.228342,-0.905618,-0.242319,9.761738,-0.146431,-0.041744,1.858677,8.82,-8.76,-42.6,206.5033,1.4263,5.2493,55.814007,37.500263,206.3973,NaN,0.0,8.0,,24 / 26,,3992,2021-05-04 15:54:06:194
-0.861939,-0.634483,10.228342,-0.905618,-0.242319,9.761738,-0.105503,-0.026472,1.879446,8.82,-8.76,-42.6,206.5033,1.4263,5.2493,55.814007,37.500263,206.3973,NaN,0.0,8.0,,24 / 26,,4002,2021-05-04 15:54:06:204
-0.708705,-0.517163,9.689631,-0.907499,-0.233606,9.761775,-0.076792,-2.05E-4,1.894107,9.6,-8.76,-42.42,206.5033,1.4263,5.2493,55.814007,37.500263,206.3973,NaN,0.0,8.0,,24 / 24,,4012,2021-05-04 15:54:06:214
-0.488432,-0.447729,9.220352,-0.916768,-0.21359,9.761368,-0.073738,0.008347,1.907546,9.72,-8.46,-42.6,213.4714,1.365,5.3112,55.814007,37.500263,206.3973,NaN,0.0,8.0,,24 / 24,,4022,2021-05-04 15:54:06:224
-0.41421,-0.581809,9.488511,-0.916768,-0.21359,9.761368,-0.106725,-0.002038,1.916709,9.72,-8.46,-42.6,213.4714,1.365,5.3112,55.814007,37.500263,206.3973,NaN,0.0,8.0,,24 / 24,,4032,2021-05-04 15:54:06:234
-0.56026,-0.624906,10.041589,-0.923948,-0.199871,9.760982,-0.150096,-0.00387,1.922207,10.2,-8.76,-42.54,213.4714,1.365,5.3112,55.814007,37.500263,206.3973,NaN,0.0,8.0,,24 / 24,,4043,2021-05-04 15:54:06:245
-0.56026,-0.624906,10.041589,-0.923948,-0.199871,9.760982,-0.165979,-0.005703,1.933813,10.2,-8.76,-42.54,213.4714,1.365,5.3112,55.814007,37.500263,206.3973,NaN,0.0,8.0,,24 / 24,,4052,2021-05-04 15:54:06:254
-0.749408,-0.849968,10.24989,-0.92976,-0.196337,9.760501,-0.15254,-0.025251,1.946641,10.2,-9.24,-42.06,211.2865,1.1678,5.4074,55.814007,37.500263,206.3973,NaN,0.0,8.0,,24 / 24,,4062,2021-05-04 15:54:06:264
-0.806871,-0.830813,10.24989,-0.92976,-0.196337,9.760501,-0.111612,-0.023418,1.958859,10.2,-9.24,-42.06,211.2865,1.1678,5.4074,55.814007,37.500263,206.3973,NaN,0.0,8.0,,24 / 24,,4073,2021-05-04 15:54:06:275
-0.7111,-0.758985,9.873989,-0.92976,-0.196337,9.760501,-0.076182,-0.002649,1.969854,10.32,-9.9,-42.48,211.2865,1.1678,5.4074,55.814007,37.500263,206.3973,NaN,0.0,8.0,,24 / 24,,4082,2021-05-04 15:54:06:284
-0.7111,-0.758985,9.873989,-0.932648,-0.183866,9.760468,-0.057856,0.02484,1.987569,10.32,-9.9,-42.48,211.2865,1.1678,5.4074,55.814007,37.500263,206.3973,NaN,0.0,8.0,,24 / 24,,4092,2021-05-04 15:54:06:294
-0.691945,-0.641666,9.512454,-0.942175,-0.160019,9.759974,-0.067019,0.019953,1.993678,10.56,-10.02,-42.96,212.374,1.0743,5.4582,55.814007,37.500263,206.3973,NaN,0.0,8.0,,24 / 24,,4103,2021-05-04 15:54:06:305
-0.770956,-0.6273,9.490906,-0.942175,-0.160019,9.759974,-0.093286,0.002238,2.00895,10.56,-10.02,-42.96,212.374,1.0743,5.4582,55.814007,37.500263,206.3973,NaN,0.0,8.0,,24 / 24,,4112,2021-05-04 15:54:06:314
-0.782928,-0.737437,9.842864,-0.947703,-0.141398,9.759726,-0.134214,-0.011201,2.016891,10.38,-10.02,-42.42,212.374,1.0743,5.4582,55.814007,37.500263,206.3973,NaN,0.0,8.0,,24 / 24,,4123,2021-05-04 15:54:06:325
-0.782928,-0.737437,9.842864,-0.947703,-0.141398,9.759726,-0.15254,-0.029527,2.032162,10.38,-10.02,-42.42,212.374,1.0743,5.4582,55.814007,37.500263,206.3973,NaN,0.0,8.0,,24 / 24,,4132,2021-05-04 15:54:06:334
-0.675185,-0.756591,10.022434,-0.948559,-0.132927,9.759762,-0.147042,-0.022807,2.044991,10.32,-10.56,-42.18,206.9041,0.8262,5.5462,55.814007,37.500263,206.3973,NaN,0.0,8.0,,24 / 24,,4143,2021-05-04 15:54:06:345
-0.562655,-0.682368,9.91948,-0.948559,-0.132927,9.759762,-0.127494,-0.020364,2.050488,10.32,-10.56,-42.18,206.9041,0.8262,5.5462,55.814007,37.500263,206.3973,NaN,0.0,8.0,,24 / 24,,4152,2021-05-04 15:54:06:354
-0.495615,-0.715888,9.656111,-0.949347,-0.120104,9.759851,-0.104281,-0.013644,2.060262,10.98,-10.44,-43.02,206.9041,0.8262,5.5462,55.814007,37.500263,206.3973,NaN,0.0,8.0,,24 / 24,,4163,2021-05-04 15:54:06:365
-0.464489,-0.684763,9.553157,-0.949347,-0.120104,9.759851,-0.09634,-0.002649,2.073701,10.98,-10.44,-43.02,206.9041,0.8262,5.5462,55.814007,37.500263,206.3973,NaN,0.0,8.0,,24 / 24,,4173,2021-05-04 15:54:06:375
-0.464489,-0.684763,9.553157,-0.951831,-0.100998,9.759827,-0.107336,4.06E-4,2.089584,11.7,-10.74,-43.74,213.6351,0.7017,5.5557,55.814007,37.500263,206.3973,NaN,0.0,8.0,,24 / 24,,4182,2021-05-04 15:54:06:384
-0.617723,-0.866727,9.921875,-0.951831,-0.100998,9.759827,-0.120164,0.019342,2.10119,11.7,-10.74,-43.74,213.6351,0.7017,5.5557,55.814007,37.500263,206.3973,NaN,0.0,8.0,,24 / 24,,4193,2021-05-04 15:54:06:395
-0.682368,-0.854756,10.024829,-0.956915,-0.084486,9.759485,-0.125051,-0.006314,2.115851,11.7,-10.74,-42.9,213.6351,0.7017,5.5557,55.814007,37.500263,206.3973,NaN,0.0,8.0,,24 / 24,,4202,2021-05-04 15:54:06:404
-0.524346,-0.775745,9.680053,-0.956915,-0.084486,9.759485,-0.125051,-0.006314,2.115851,11.7,-10.74,-42.9,213.6351,0.7017,5.5557,55.814007,37.500263,206.3973,NaN,0.0,8.0,,24 / 24,,4212,2021-05-04 15:54:06:414
-0.565049,-0.837996,9.581888,-0.955761,-0.07037,9.75971,-0.136657,-0.023418,2.123181,11.28,-10.92,-42.06,211.0663,0.4936,5.5999,55.814007,37.500263,206.3973,NaN,0.0,8.0,,24 / 24,,4223,2021-05-04 15:54:06:425
-0.691945,-0.864333,9.962578,-0.955761,-0.07037,9.75971,-0.132381,-0.019142,2.134177,11.28,-10.92,-42.06,211.0663,0.4936,5.5999,55.814007,37.500263,206.3973,NaN,0.0,8.0,,24 / 24,,4232,2021-05-04 15:54:06:434
-0.691945,-0.864333,9.962578,-0.953621,-0.057419,9.760005,-0.111001,-0.002649,2.149449,11.1,-11.46,-42.3,211.0663,0.4936,5.5999,55.814007,37.500263,206.3973,NaN,0.0,8.0,,24 / 24,,4242,2021-05-04 15:54:06:444
-0.725465,-0.833208,10.209188,-0.953621,-0.057419,9.760005,-0.093286,-0.005703,2.163499,11.1,-11.46,-42.3,211.0663,0.4936,5.5999,55.814007,37.500263,206.3973,NaN,0.0,8.0,,24 / 24,,4252,2021-05-04 15:54:06:454
-0.519558,-0.787716,10.079897,-0.954202,-0.037685,9.760044,-0.087177,0.015677,2.169607,11.88,-11.7,-42.48,212.6789,0.3355,5.5805,55.814007,37.500263,206.3973,NaN,0.0,8.0,,24 / 24,,4263,2021-05-04 15:54:06:465
-0.490826,-0.792505,9.703996,-0.954202,-0.037685,9.760044,-0.087177,0.015677,2.169607,11.88,-11.7,-42.48,212.6789,0.3355,5.5805,55.814007,37.500263,206.3973,NaN,0.0,8.0,,24 / 24,,4273,2021-05-04 15:54:06:475
-0.596174,-0.835602,9.361614,-0.96174,-0.015935,9.759364,-0.100616,0.057216,2.177549,12.36,-12.54,-42.6,212.6789,0.3355,5.5805,55.814007,37.500263,206.3973,NaN,0.0,8.0,,24 / 24,,4282,2021-05-04 15:54:06:484
-0.596174,-0.835602,9.361614,-0.96174,-0.015935,9.759364,-0.126273,0.033392,2.187933,12.36,-12.54,-42.6,212.6789,0.3355,5.5805,55.814007,37.500263,206.3973,NaN,0.0,8.0,,24 / 24,,4293,2021-05-04 15:54:06:495
-0.581809,-0.871516,9.541185,-0.96174,-0.015935,9.759364,-0.141544,-0.035635,2.195874,12.36,-12.54,-42.6,212.6789,0.3355,5.5805,55.814007,37.500263,206.3973,NaN,0.0,8.0,,24 / 24,,4302,2021-05-04 15:54:06:504
-0.454912,-0.845179,10.039194,-0.963666,-7.58E-4,9.759187,-0.140322,-0.071676,2.205037,11.88,-12.84,-42.78,210.5828,0.0931,5.6281,55.814007,37.500263,206.3973,NaN,0.0,8.0,,24 / 24,,4312,2021-05-04 15:54:06:514
-0.454912,-0.845179,10.039194,-0.963666,-7.58E-4,9.759187,-0.136046,-0.035635,2.209924,11.88,-12.84,-42.78,210.5828,0.0931,5.6281,55.814007,37.500263,206.3973,NaN,0.0,8.0,,24 / 24,,4323,2021-05-04 15:54:06:525
-0.258582,-0.773351,9.912297,-0.950179,0.012232,9.760502,-0.128716,0.004071,2.2142,12.36,-13.2,-42.6,210.5828,0.0931,5.6281,55.814007,37.500263,206.3973,NaN,0.0,8.0,,24 / 24,,4332,2021-05-04 15:54:06:534
-0.24661,-0.849968,9.548368,-0.947718,0.027609,9.76071,-0.125662,-0.002649,2.21359,12.6,-13.86,-42.78,212.1731,-0.0715,5.5602,55.814007,37.500263,206.3973,NaN,0.0,8.0,,24 / 24,,4343,2021-05-04 15:54:06:545
-0.423787,-1.005595,9.962578,-0.947718,0.027609,9.76071,-0.125662,-0.017309,2.216033,12.6,-13.86,-42.78,212.1731,-0.0715,5.5602,55.814007,37.500263,206.3973,NaN,0.0,8.0,,24 / 24,,4353,2021-05-04 15:54:06:555
-0.158022,-1.029538,10.290593,-0.944983,0.043231,9.760919,-0.125662,0.019953,2.209924,12.42,-14.1,-42.72,212.1731,-0.0715,5.5602,55.814007,37.500263,206.3973,NaN,0.0,8.0,,24 / 24,,4363,2021-05-04 15:54:06:565
-0.579414,-0.770956,10.125388,-0.944983,0.043231,9.760919,-0.109779,0.072488,2.217255,12.42,-14.1,-42.72,212.1731,-0.0715,5.5602,55.814007,37.500263,206.3973,NaN,0.0,8.0,,24 / 24,,4373,2021-05-04 15:54:06:575
-0.579414,-0.770956,10.125388,-0.944983,0.043231,9.760919,-0.092675,0.054773,2.2142,12.42,-14.88,-42.06,208.0665,-0.2526,5.5297,55.814007,37.500263,206.3973,NaN,0.0,8.0,,24 / 24,,4382,2021-05-04 15:54:06:584
-0.749408,-0.919401,9.447808,-0.953398,0.061875,9.759999,-0.093286,-8.16E-4,2.227028,12.42,-14.88,-42.06,208.0665,-0.2526,5.5297,55.814007,37.500263,206.3973,NaN,0.0,8.0,,24 / 24,,4393,2021-05-04 15:54:06:595
-0.984047,-0.950527,9.337671,-0.950082,0.083867,9.760159,-0.11711,-0.014866,2.238024,12.18,-15.6,-42.24,208.0665,-0.2526,5.5297,55.814007,37.500263,206.3973,NaN,0.0,8.0,,24 / 24,,4402,2021-05-04 15:54:06:604
-0.651243,-0.799688,9.641745,-0.950082,0.083867,9.760159,-0.142766,-0.043577,2.2423,12.18,-15.6,-42.24,208.0665,-0.2526,5.5297,55.814007,37.500263,206.3973,NaN,0.0,8.0,,24 / 24,,4412,2021-05-04 15:54:06:614
-0.651243,-0.799688,9.641745,-0.950082,0.083867,9.760159,-0.153151,-0.026472,2.258793,12.18,-15.6,-42.24,208.0665,-0.2526,5.5297,55.814007,37.500263,206.3973,NaN,0.0,8.0,,24 / 24,,4422,2021-05-04 15:54:06:624
-0.59378,-1.077424,10.096657,-0.939358,0.09835,9.761061,-0.143377,-0.049074,2.25635,12.18,-16.32,-41.88,206.736,-0.49,5.5598,55.814007,37.500263,206.3973,NaN,0.0,8.0,,24 / 24,,4432,2021-05-04 15:54:06:634
-0.335198,-0.797293,10.216371,-0.926171,0.110289,9.762194,-0.125051,-0.029527,2.255739,12.78,-16.98,-42.12,206.736,-0.49,5.5598,55.814007,37.500263,206.3973,NaN,0.0,8.0,,24 / 24,,4443,2021-05-04 15:54:06:645
-0.124502,-0.888276,9.648928,-0.926171,0.110289,9.762194,-0.11711,0.005903,2.258793,12.78,-16.98,-42.12,206.736,-0.49,5.5598,55.814007,37.500263,206.3973,NaN,0.0,8.0,,24 / 24,,4453,2021-05-04 15:54:06:655
-0.258582,-0.895459,9.2419,-0.926171,0.110289,9.762194,-0.11711,0.005903,2.258793,12.78,-16.98,-42.12,206.736,-0.49,5.5598,55.814007,37.500263,206.3973,NaN,0.0,8.0,,24 / 24,,4462,2021-05-04 15:54:06:664
-0.390267,-0.799688,9.574705,-0.918991,0.126811,9.762671,-0.118942,0.007125,2.260015,12.96,-16.44,-42.72,209.8042,-0.6444,5.4196,55.814007,37.500263,206.3973,NaN,0.0,8.0,,24 / 24,,4472,2021-05-04 15:54:06:674
-0.390267,-0.799688,9.574705,-0.91069,0.141592,9.763247,-0.13177,-0.022196,2.265513,12.6,-16.56,-42.72,209.8042,-0.6444,5.4196,55.814007,37.500263,206.3973,NaN,0.0,8.0,,24 / 24,,4483,2021-05-04 15:54:06:685
-0.557866,-1.192349,10.273833,-0.91069,0.141592,9.763247,-0.141544,-0.027083,2.272233,12.6,-16.56,-42.72,209.8042,-0.6444,5.4196,55.814007,37.500263,206.3973,NaN,0.0,8.0,,24 / 24,,4492,2021-05-04 15:54:06:694
-0.878699,-1.20432,10.59706,-0.900589,0.153241,9.764008,-0.140933,0.013234,2.281395,12.72,-17.22,-42.78,208.6783,-0.8273,5.329,55.814007,37.500263,206.3973,NaN,0.0,8.0,,24 / 24,,4502,2021-05-04 15:54:06:704
-1.185166,-1.098972,10.221159,-0.900589,0.153241,9.764008,-0.120164,0.049275,2.294835,12.72,-17.22,-42.78,208.6783,-0.8273,5.329,55.814007,37.500263,206.3973,NaN,0.0,8.0,,24 / 24,,4513,2021-05-04 15:54:06:715
-0.648848,-1.010384,9.28021,-0.902161,0.170599,9.763575,-0.092064,0.039501,2.313771,12.48,-18.24,-42.78,208.6783,-0.8273,5.329,55.814007,37.500263,206.3973,NaN,0.0,8.0,,24 / 24,,4522,2021-05-04 15:54:06:724
-0.648848,-1.010384,9.28021,-0.902161,0.170599,9.763575,-0.085345,-0.035635,2.316826,12.48,-18.24,-42.78,208.6783,-0.8273,5.329,55.814007,37.500263,206.3973,NaN,0.0,8.0,,24 / 24,,4532,2021-05-04 15:54:06:734
-0.232245,-0.852362,9.155706,-0.902161,0.170599,9.763575,-0.098784,-0.047242,2.316215,11.7,-18.72,-43.08,208.6783,-0.8273,5.329,55.814007,37.500263,206.3973,NaN,0.0,8.0,,24 / 24,,4543,2021-05-04 15:54:06:745
-0.205908,-0.881093,9.471751,-0.885788,0.191822,9.76468,-0.13177,-0.001427,2.31988,11.7,-18.72,-43.08,203.671,-0.9968,5.2792,55.814007,37.500263,206.3973,NaN,0.0,8.0,,24 / 24,,4552,2021-05-04 15:54:06:754
-0.466884,-0.902642,9.964972,-0.874867,0.201724,9.765465,-0.165368,-0.011201,2.321713,11.34,-18.66,-43.32,203.671,-0.9968,5.2792,55.814007,37.500263,206.3973,NaN,0.0,8.0,,24 / 24,,4562,2021-05-04 15:54:06:764
-0.29689,-1.017567,10.276228,-0.874867,0.201724,9.765465,-0.165368,-0.050907,2.322935,11.34,-18.66,-43.32,203.671,-0.9968,5.2792,55.814007,37.500263,206.3973,NaN,0.0,8.0,,24 / 24,,4572,2021-05-04 15:54:06:774
-0.29689,-1.017567,10.276228,-0.874867,0.201724,9.765465,-0.147653,-0.044188,2.329654,11.28,-19.2,-42.72,201.4766,-1.1787,5.1193,55.814007,37.500263,206.3973,NaN,0.0,8.0,,24 / 24,,4582,2021-05-04 15:54:06:784
-0.426181,-1.027144,9.938635,-0.855526,0.208952,9.767026,-0.133603,0.018121,2.330876,11.28,-19.2,-42.72,201.4766,-1.1787,5.1193,55.814007,37.500263,206.3973,NaN,0.0,8.0,,24 / 24,,4593,2021-05-04 15:54:06:795
-0.66082,-1.060664,9.660899,-0.855526,0.208952,9.767026,-0.116499,0.063325,2.338206,11.28,-19.2,-42.72,201.4766,-1.1787,5.1193,55.814007,37.500263,206.3973,NaN,0.0,8.0,,24 / 24,,4602,2021-05-04 15:54:06:804
-0.565049,-1.101366,9.646533,-0.851375,0.221622,9.76711,-0.107947,0.040723,2.344926,11.94,-19.5,-42.0,201.4766,-1.1787,5.1193,55.814007,37.500263,206.3973,NaN,0.0,8.0,,24 / 24,,4612,2021-05-04 15:54:06:814
-0.565049,-1.101366,9.646533,-0.851375,0.221622,9.76711,-0.103671,-0.031359,2.353478,11.94,-19.5,-42.0,201.4766,-1.1787,5.1193,55.814007,37.500263,206.3973,NaN,0.0,8.0,,24 / 24,,4622,2021-05-04 15:54:06:824
-0.469278,-1.031932,9.823709,-0.842385,0.238505,9.767492,-0.111001,-0.035025,2.363862,11.76,-20.1,-42.84,203.3929,-1.2949,4.9817,55.814007,37.500263,206.3973,NaN,0.0,8.0,,24 / 24,,4632,2021-05-04 15:54:06:834
-0.52674,-1.166012,9.754275,-0.82703,0.250867,9.768495,-0.148875,0.019953,2.368749,10.32,-20.1,-43.08,203.3929,-1.2949,4.9817,55.814007,37.500263,206.3973,NaN,0.0,8.0,,24 / 24,,4643,2021-05-04 15:54:06:845
-0.723071,-1.240234,9.897932,-0.82703,0.250867,9.768495,-0.158038,-0.011812,2.375469,10.32,-20.1,-43.08,203.3929,-1.2949,4.9817,55.814007,37.500263,206.3973,NaN,0.0,8.0,,24 / 24,,4653,2021-05-04 15:54:06:855
-0.653637,-1.182772,9.984126,-0.811283,0.257332,9.769647,-0.143988,-0.050907,2.388908,10.38,-20.28,-43.14,198.5575,-1.4659,4.8393,55.814007,37.500263,206.3973,NaN,0.0,8.0,,24 / 24,,4663,2021-05-04 15:54:06:865
-0.653637,-1.182772,9.984126,-0.811283,0.257332,9.769647,-0.118942,-0.035025,2.399293,10.38,-20.28,-43.14,198.5575,-1.4659,4.8393,55.814007,37.500263,206.3973,NaN,0.0,8.0,,24 / 24,,4672,2021-05-04 15:54:06:874
-0.524346,-1.115732,9.893144,-0.790931,0.268965,9.771002,-0.111001,0.012623,2.408455,10.38,-20.7,-43.2,198.5575,-1.4659,4.8393,55.814007,37.500263,206.3973,NaN,0.0,8.0,,24 / 24,,4683,2021-05-04 15:54:06:885
-0.584203,-0.986441,9.787795,-0.790931,0.268965,9.771002,-0.106114,0.012012,2.418229,10.38,-20.7,-43.2,198.5575,-1.4659,4.8393,55.814007,37.500263,206.3973,NaN,0.0,8.0,,24 / 24,,4692,2021-05-04 15:54:06:894
-0.684763,-1.168406,9.613013,-0.779041,0.283347,9.77155,-0.116499,-0.029527,2.428003,10.02,-20.76,-43.26,198.1737,-1.5716,4.6278,55.814007,37.500263,206.3973,NaN,0.0,8.0,,24 / 24,,4702,2021-05-04 15:54:06:904
-0.684763,-1.168406,9.613013,-0.779041,0.283347,9.77155,-0.116499,-0.029527,2.428003,10.02,-20.76,-43.26,198.1737,-1.5716,4.6278,55.814007,37.500263,206.3973,NaN,0.0,8.0,,24 / 24,,4712,2021-05-04 15:54:06:914
-0.545895,-1.070241,9.663293,-0.779041,0.283347,9.77155,-0.141544,-0.039301,2.442053,10.02,-20.76,-43.26,198.1737,-1.5716,4.6278,55.814007,37.500263,206.3973,NaN,0.0,8.0,,24 / 24,,4722,2021-05-04 15:54:06:924
-0.517163,-1.156435,9.785401,-0.75782,0.292818,9.77294,-0.168422,-0.025862,2.450605,10.02,-20.82,-42.78,198.1737,-1.5716,4.6278,55.814007,37.500263,206.3973,NaN,0.0,8.0,,24 / 24,,4732,2021-05-04 15:54:06:934
-0.404632,-1.328822,9.953,-0.740465,0.293654,9.774245,-0.165979,0.002238,2.465266,9.48,-21.24,-41.94,196.1919,-1.7111,4.434,55.814007,37.500263,206.3973,NaN,0.0,8.0,,24 / 24,,4743,2021-05-04 15:54:06:945
-0.471672,-1.084606,10.130177,-0.740465,0.293654,9.774245,-0.136046,-0.022196,2.480538,9.48,-21.24,-41.94,196.1919,-1.7111,4.434,55.814007,37.500263,206.3973,NaN,0.0,8.0,,24 / 24,,4753,2021-05-04 15:54:06:955
-0.471672,-1.084606,10.130177,-0.721786,0.301149,9.775414,-0.107947,-0.009979,2.485424,9.06,-21.96,-42.12,196.1919,-1.7111,4.434,55.814007,37.500263,206.3973,NaN,0.0,8.0,,24 / 24,,4762,2021-05-04 15:54:06:964
-0.421392,-1.285726,9.715967,-0.721786,0.301149,9.775414,-0.107336,0.013234,2.498864,9.06,-21.96,-42.12,196.1919,-1.7111,4.434,55.814007,37.500263,206.3973,NaN,0.0,8.0,,24 / 24,,4772,2021-05-04 15:54:06:974
-0.617723,-1.302485,9.407105,-0.721786,0.301149,9.775414,-0.126273,0.032781,2.511081,9.06,-21.96,-42.12,196.1919,-1.7111,4.434,55.814007,37.500263,206.3973,NaN,0.0,8.0,,24 / 24,,4782,2021-05-04 15:54:06:984
-0.687157,-1.194743,9.763853,-0.709394,0.31231,9.775971,-0.15254,0.00346,2.526353,9.06,-22.2,-42.18,195.8773,-1.7597,4.2229,55.814007,37.500263,206.3973,NaN,0.0,8.0,,24 / 24,,4792,2021-05-04 15:54:06:994
-0.622511,-1.403045,10.094262,-0.694018,0.315649,9.776968,-0.15987,-0.030138,2.539181,8.22,-22.8,-41.88,195.8773,-1.7597,4.2229,55.814007,37.500263,206.3973,NaN,0.0,8.0,,24 / 24,,4803,2021-05-04 15:54:07:005
-0.622511,-1.403045,10.094262,-0.694018,0.315649,9.776968,-0.153151,-0.023418,2.555674,8.22,-22.8,-41.88,195.8773,-1.7597,4.2229,55.814007,37.500263,206.3973,NaN,0.0,8.0,,24 / 24,,4813,2021-05-04 15:54:07:015
-0.758985,-1.350371,9.979338,-0.694018,0.315649,9.776968,-0.143377,0.012623,2.571556,8.22,-22.8,-41.88,195.8773,-1.7597,4.2229,55.814007,37.500263,206.3973,NaN,0.0,8.0,,24 / 24,,4822,2021-05-04 15:54:07:024
-0.878699,-1.434171,9.627379,-0.672989,0.31749,9.778378,-0.133603,-0.002649,2.59538,7.98,-23.28,-42.18,193.0361,-1.8445,4.0603,55.814007,37.500263,206.3973,NaN,0.0,8.0,,24 / 24,,4832,2021-05-04 15:54:07:034
-0.92419,-1.565856,9.751882,-0.656481,0.32203,9.779351,-0.128105,-0.043577,2.61615,8.16,-23.22,-42.12,193.0361,-1.8445,4.0603,55.814007,37.500263,206.3973,NaN,0.0,8.0,,24 / 24,,4843,2021-05-04 15:54:07:045
-0.749408,-1.498816,10.067925,-0.656481,0.32203,9.779351,-0.129327,-0.038079,2.643638,8.16,-23.22,-42.12,193.0361,-1.8445,4.0603,55.814007,37.500263,206.3973,NaN,0.0,8.0,,24 / 24,,4852,2021-05-04 15:54:07:054
-0.749408,-1.498816,10.067925,-0.63124,0.327418,9.780834,-0.137879,0.001627,2.663797,7.62,-23.4,-42.24,193.4616,-1.8818,3.8405,55.814007,37.500263,206.3973,NaN,0.0,8.0,,24 / 24,,4863,2021-05-04 15:54:07:065
-0.646454,-1.558673,9.878778,-0.63124,0.327418,9.780834,-0.137879,0.001627,2.663797,7.62,-23.4,-42.24,193.4616,-1.8818,3.8405,55.814007,37.500263,206.3973,NaN,0.0,8.0,,24 / 24,,4872,2021-05-04 15:54:07:074
-0.811659,-1.553884,9.555551,-0.615402,0.329753,9.781765,-0.143988,0.015066,2.688232,7.26,-23.76,-43.14,193.4616,-1.8818,3.8405,55.814007,37.500263,206.3973,NaN,0.0,8.0,,24 / 24,,4882,2021-05-04 15:54:07:084
-0.811659,-1.553884,9.555551,-0.615402,0.329753,9.781765,-0.154372,-0.016699,2.70839,7.26,-23.76,-43.14,193.4616,-1.8818,3.8405,55.814007,37.500263,206.3973,NaN,0.0,8.0,,24 / 24,,4892,2021-05-04 15:54:07:094
-0.97447,-1.824437,9.608225,-0.615402,0.329753,9.781765,-0.151318,-0.045409,2.760925,6.84,-24.24,-42.96,190.7723,-1.927,3.5999,55.814007,37.500263,206.3973,NaN,0.0,8.0,,24 / 24,,4902,2021-05-04 15:54:07:104
-1.118126,-1.936968,10.175668,-0.592797,0.328758,9.783195,-0.136657,-0.047242,2.798187,6.84,-24.24,-42.96,190.7723,-1.927,3.5999,55.814007,37.500263,206.3973,NaN,0.0,8.0,,24 / 24,,4913,2021-05-04 15:54:07:115
-1.098972,-2.047105,10.314536,-0.592797,0.328758,9.783195,-0.136657,-0.047242,2.798187,6.84,-24.24,-42.96,190.7723,-1.927,3.5999,55.814007,37.500263,206.3973,NaN,0.0,8.0,,24 / 24,,4922,2021-05-04 15:54:07:124
-0.948133,-1.972882,9.732727,-0.565959,0.32898,9.784776,-0.11711,-0.051518,2.833007,6.18,-24.06,-43.14,190.7723,-1.927,3.5999,55.814007,37.500263,206.3973,NaN,0.0,8.0,,24 / 24,,4933,2021-05-04 15:54:07:135
-0.948133,-1.972882,9.732727,-0.538719,0.333563,9.78616,-0.122607,-0.027694,2.875157,5.52,-23.28,-42.54,189.2493,-1.9224,3.3103,55.814007,37.500263,206.3973,NaN,0.0,8.0,,24 / 24,,4942,2021-05-04 15:54:07:144
-0.632089,-1.922603,8.930645,-0.538719,0.333563,9.78616,-0.158038,-0.013644,2.897758,5.52,-23.28,-42.54,189.2493,-1.9224,3.3103,55.814007,37.500263,206.3973,NaN,0.0,8.0,,24 / 24,,4952,2021-05-04 15:54:07:154
-0.38069,-2.068653,8.751075,-0.518594,0.328569,9.787415,-0.198355,0.012623,2.91975,5.1,-23.64,-41.94,189.2493,-1.9224,3.3103,55.814007,37.500263,206.3973,NaN,0.0,8.0,,24 / 24,,4962,2021-05-04 15:54:07:164
-0.38069,-2.068653,8.751075,-0.518594,0.328569,9.787415,-0.239283,0.035225,2.940519,5.1,-23.64,-41.94,189.2493,-1.9224,3.3103,55.814007,37.500263,206.3973,NaN,0.0,8.0,,24 / 24,,4973,2021-05-04 15:54:07:175
-0.292102,-2.114144,9.366403,-0.506518,0.309019,9.788684,-0.247835,0.049886,2.952737,4.02,-24.3,-42.84,184.3615,-1.92,3.033,55.814007,37.500263,206.3973,NaN,0.0,8.0,,24 / 24,,4982,2021-05-04 15:54:07:184
-0.265764,-2.159636,10.08708,-0.506518,0.309019,9.788684,-0.228287,0.065768,2.957013,4.02,-24.3,-42.84,184.3615,-1.92,3.033,55.814007,37.500263,206.3973,NaN,0.0,8.0,,24 / 24,,4992,2021-05-04 15:54:07:194
-0.52674,-2.236253,11.281823,-0.502001,0.288056,9.789556,-0.170866,0.057827,2.965565,3.36,-24.12,-42.9,184.3615,-1.92,3.033,55.814007,37.500263,206.3973,NaN,0.0,8.0,,24 / 24,,5002,2021-05-04 15:54:07:204
-0.52674,-2.099779,10.561146,-0.502001,0.288056,9.789556,-0.125662,0.027284,2.97656,3.36,-24.12,-42.9,184.3615,-1.92,3.033,55.814007,37.500263,206.3973,NaN,0.0,8.0,,24 / 24,,5012,2021-05-04 15:54:07:214
-0.7111,-2.099779,10.561146,-0.502001,0.288056,9.789556,-0.125662,0.027284,2.97656,3.36,-24.12,-42.9,184.3615,-1.92,3.033,55.814007,37.500263,206.3973,NaN,0.0,8.0,,24 / 24,,5023,2021-05-04 15:54:07:225
-0.615329,-1.810072,8.870789,-0.493527,0.284162,9.790101,-0.114055,0.007736,2.966175,2.94,-24.0,-41.88,182.1273,-1.6832,2.9355,55.814007,37.500263,206.3973,NaN,0.0,8.0,,24 / 24,,5032,2021-05-04 15:54:07:234
-0.651243,-1.783735,8.454185,-0.470656,0.28202,9.791288,-0.159259,-0.079007,2.950293,2.52,-23.82,-41.88,182.1273,-1.6832,2.9355,55.814007,37.500263,206.3973,NaN,0.0,8.0,,24 / 24,,5042,2021-05-04 15:54:07:244
-0.498009,-2.087808,10.101445,-0.470656,0.28202,9.791288,-0.220346,-0.101609,2.94846,2.52,-23.82,-41.88,182.1273,-1.6832,2.9355,55.814007,37.500263,206.3973,NaN,0.0,8.0,,24 / 24,,5053,2021-05-04 15:54:07:255
-0.498009,-2.087808,10.101445,-0.436173,0.258928,9.793523,-0.254554,-0.080839,2.963121,2.16,-23.64,-42.24,179.9526,-1.6479,2.752,55.814007,37.500263,206.3973,NaN,0.0,8.0,,24 / 24,,5062,2021-05-04 15:54:07:264
-0.861939,-1.664021,11.593079,-0.436173,0.258928,9.793523,-0.220346,0.016899,2.96251,2.16,-23.64,-42.24,179.9526,-1.6479,2.752,55.814007,37.500263,206.3973,NaN,0.0,8.0,,24 / 24,,5072,2021-05-04 15:54:07:274
-0.177176,-1.905843,10.407912,-0.422722,0.240938,9.794572,-0.143377,0.011401,2.946017,1.68,-23.76,-42.6,179.9526,-1.6479,2.752,55.814007,37.500263,206.3973,NaN,0.0,8.0,,24 / 24,,5083,2021-05-04 15:54:07:285
-0.009577,-1.78134,8.791777,-0.422722,0.240938,9.794572,-0.095118,0.027895,2.909976,1.68,-23.76,-42.6,179.9526,-1.6479,2.752,55.814007,37.500263,206.3973,NaN,0.0,8.0,,24 / 24,,5092,2021-05-04 15:54:07:294
-0.009577,-1.78134,8.791777,-0.412323,0.241194,9.795009,-0.121386,-0.015477,2.881876,1.44,-22.92,-42.9,177.7679,-1.4078,2.4713,55.814007,37.500263,206.3973,NaN,0.0,8.0,,24 / 24,,5102,2021-05-04 15:54:07:304
-0.136474,-1.927391,8.652909,-0.412323,0.241194,9.795009,-0.169033,-0.036857,2.873324,1.44,-22.92,-42.9,177.7679,-1.4078,2.4713,55.814007,37.500263,206.3973,NaN,0.0,8.0,,24 / 24,,5112,2021-05-04 15:54:07:314
-0.438152,-1.810072,10.31693,-0.412323,0.241194,9.795009,-0.20202,-0.048464,2.868437,1.44,-22.92,-42.9,177.7679,-1.4078,2.4713,55.814007,37.500263,206.3973,NaN,0.0,8.0,,24 / 24,,5122,2021-05-04 15:54:07:324
-0.287313,-1.752609,11.073521,-0.391116,0.226383,9.796232,-0.185526,-0.044798,2.867826,0.48,-22.86,-42.48,177.7679,-1.4078,2.4713,55.814007,37.500263,206.3973,NaN,0.0,8.0,,24 / 24,,5132,2021-05-04 15:54:07:334
-0.28013,-1.556279,10.178062,-0.371436,0.207267,9.797421,-0.162924,0.038279,2.861717,-0.66,-22.74,-43.08,172.9667,-1.3228,2.2863,55.814007,37.500263,206.3973,NaN,0.0,8.0,,24 / 24,,5143,2021-05-04 15:54:07:345
-0.090982,-1.580221,9.06233,-0.371436,0.207267,9.797421,-0.140933,0.051107,2.844613,-0.66,-22.74,-43.08,172.9667,-1.3228,2.2863,55.814007,37.500263,206.3973,NaN,0.0,8.0,,24 / 24,,5152,2021-05-04 15:54:07:354
-0.090982,-1.580221,9.06233,-0.368975,0.195913,9.797748,-0.13849,0.006514,2.815903,-1.38,-22.26,-43.08,172.9667,-1.3228,2.2863,55.814007,37.500263,206.3973,NaN,0.0,8.0,,24 / 24,,5162,2021-05-04 15:54:07:364
-0.306467,-1.520364,9.431048,-0.368975,0.195913,9.797748,-0.136046,-0.053961,2.789635,-1.38,-22.26,-43.08,172.9667,-1.3228,2.2863,55.814007,37.500263,206.3973,NaN,0.0,8.0,,24 / 24,,5172,2021-05-04 15:54:07:374
-0.167599,-1.520364,10.020041,-0.363016,0.190655,9.798074,-0.142766,-0.090613,2.781694,-1.5,-22.32,-42.66,172.9667,-1.3228,2.2863,55.814007,37.500263,206.3973,NaN,0.0,8.0,,24 / 24,,5182,2021-05-04 15:54:07:384
0.002394,-1.702329,10.079897,-0.337344,0.179062,9.799211,-0.158648,-0.045409,2.774364,-1.2,-21.66,-43.2,173.0184,-1.114,2.1218,55.814007,37.500263,206.3973,NaN,0.0,8.0,,24 / 24,,5192,2021-05-04 15:54:07:394
0.110137,-1.477267,9.905115,-0.337344,0.179062,9.799211,-0.175142,0.028505,2.761536,-1.2,-21.66,-43.2,173.0184,-1.114,2.1218,55.814007,37.500263,206.3973,NaN,0.0,8.0,,24 / 24,,5202,2021-05-04 15:54:07:404
0.110137,-1.477267,9.905115,-0.3274,0.16078,9.799865,-0.175753,0.078596,2.746875,-1.92,-20.94,-43.5,173.0184,-1.114,2.1218,55.814007,37.500263,206.3973,NaN,0.0,8.0,,24 / 24,,5213,2021-05-04 15:54:07:415
-0.251399,-1.285726,9.718362,-0.3274,0.16078,9.799865,-0.175753,0.078596,2.746875,-1.92,-20.94,-43.5,173.0184,-1.114,2.1218,55.814007,37.500263,206.3973,NaN,0.0,8.0,,24 / 24,,5222,2021-05-04 15:54:07:424
-0.227456,-1.259389,9.596253,-0.330662,0.150872,9.799913,-0.151929,0.049275,2.72916,-2.22,-21.18,-43.08,173.0184,-1.114,2.1218,55.814007,37.500263,206.3973,NaN,0.0,8.0,,24 / 24,,5233,2021-05-04 15:54:07:435
-0.150839,-1.407834,9.828498,-0.323458,0.138059,9.800342,-0.12444,-0.065568,2.69434,-2.34,-21.12,-43.56,170.2755,-0.8815,1.9325,55.814007,37.500263,206.3973,NaN,0.0,8.0,,24 / 24,,5242,2021-05-04 15:54:07:444
0.119714,-1.324034,10.209188,-0.323458,0.138059,9.800342,-0.127494,-0.071066,2.674793,-2.34,-21.12,-43.56,170.2755,-0.8815,1.9325,55.814007,37.500263,206.3973,NaN,0.0,8.0,,24 / 24,,5252,2021-05-04 15:54:07:454
0.119714,-1.324034,10.209188,-0.323458,0.138059,9.800342,-0.143988,-0.020975,2.65891,-2.34,-21.12,-43.56,170.2755,-0.8815,1.9325,55.814007,37.500263,206.3973,NaN,0.0,8.0,,24 / 24,,5262,2021-05-04 15:54:07:464
-0.136474,-1.426988,10.132571,-0.303867,0.1258,9.801133,-0.157427,0.046221,2.650969,-2.76,-20.28,-43.38,170.2755,-0.8815,1.9325,55.814007,37.500263,206.3973,NaN,0.0,8.0,,24 / 24,,5272,2021-05-04 15:54:07:474
-0.007183,-1.297697,9.656111,-0.301429,0.117354,9.801314,-0.156205,0.026673,2.638752,-2.52,-20.22,-42.78,170.2755,-0.8815,1.9325,55.814007,37.500263,206.3973,NaN,0.0,8.0,,24 / 24,,5282,2021-05-04 15:54:07:484
0.028731,-1.211503,9.347249,-0.30125,0.099582,9.801517,-0.151929,-0.026472,2.617982,-3.18,-20.04,-42.18,167.5919,-0.6857,1.7615,55.814007,37.500263,206.3973,NaN,0.0,8.0,,24 / 24,,5293,2021-05-04 15:54:07:495
0.028731,-1.211503,9.347249,-0.30125,0.099582,9.801517,-0.157427,-0.018531,2.586828,-3.18,-20.04,-42.18,167.5919,-0.6857,1.7615,55.814007,37.500263,206.3973,NaN,0.0,8.0,,24 / 24,,5303,2021-05-04 15:54:07:505
0.03352,-1.331217,9.672871,-0.29134,0.081891,9.80198,-0.155594,-0.033803,2.560561,-3.78,-19.08,-42.78,167.5919,-0.6857,1.7615,55.814007,37.500263,206.3973,NaN,0.0,8.0,,24 / 24,,5312,2021-05-04 15:54:07:514
0.011971,-1.132492,10.362421,-0.29134,0.081891,9.80198,-0.135436,-0.037468,2.545289,-3.78,-19.08,-42.78,167.5919,-0.6857,1.7615,55.814007,37.500263,206.3973,NaN,0.0,8.0,,24 / 24,,5322,2021-05-04 15:54:07:524
-0.019154,-1.252206,10.410307,-0.29134,0.081891,9.80198,-0.135436,-0.037468,2.545289,-3.78,-19.08,-43.2,167.5919,-0.6857,1.7615,55.814007,37.500263,206.3973,NaN,0.0,8.0,,24 / 24,,5332,2021-05-04 15:54:07:534
0.272947,-1.386285,9.811738,-0.280091,0.06521,9.802433,-0.121386,-0.022196,2.534294,-3.9,-18.54,-43.2,164.1979,-0.4785,1.7025,55.814007,37.500263,206.3973,NaN,0.0,8.0,,24 / 24,,5342,2021-05-04 15:54:07:544
0.272947,-1.386285,9.811738,-0.280091,0.06521,9.802433,-0.12444,-0.004481,2.521465,-3.24,-18.42,-42.96,164.1979,-0.4785,1.7025,55.814007,37.500263,206.3973,NaN,0.0,8.0,,24 / 24,,5352,2021-05-04 15:54:07:554
0.306467,-1.20432,9.273026,-0.27386,0.052394,9.802686,-0.139712,0.049886,2.493977,-3.24,-18.42,-42.96,164.1979,-0.4785,1.7025,55.814007,37.500263,206.3973,NaN,0.0,8.0,,24 / 24,,5362,2021-05-04 15:54:07:564
0.31365,-1.182772,9.778218,-0.277496,0.035695,9.802658,-0.142766,0.013845,2.462211,-3.36,-17.7,-42.78,166.7034,-0.3061,1.6003,55.814007,37.500263,206.3973,NaN,0.0,8.0,,24 / 24,,5372,2021-05-04 15:54:07:574
0.191542,-1.053481,10.431855,-0.277496,0.035695,9.802658,-0.128716,-0.01059,2.434723,-3.36,-17.7,-42.78,166.7034,-0.3061,1.6003,55.814007,37.500263,206.3973,NaN,0.0,8.0,,24 / 24,,5382,2021-05-04 15:54:07:584
0.174782,-0.945739,10.257073,-0.271237,0.022254,9.802874,-0.106725,-0.030749,2.408455,-4.02,-17.04,-42.9,166.7034,-0.3061,1.6003,55.814007,37.500263,206.3973,NaN,0.0,8.0,,24 / 24,,5392,2021-05-04 15:54:07:594
0.478855,-1.079818,9.548368,-0.271237,0.022254,9.802874,-0.107947,0.009569,2.384021,-4.02,-17.04,-42.9,166.7034,-0.3061,1.6003,55.814007,37.500263,206.3973,NaN,0.0,8.0,,24 / 24,,5402,2021-05-04 15:54:07:604
0.478855,-1.079818,9.548368,-0.271237,0.022254,9.802874,-0.122607,-0.00326,2.367527,-4.02,-17.04,-42.9,166.7034,-0.3061,1.6003,55.814007,37.500263,206.3973,NaN,0.0,8.0,,24 / 24,,5412,2021-05-04 15:54:07:614
0.392661,-0.804476,9.531608,-0.268796,0.010964,9.802959,-0.137268,0.035225,2.340038,-4.44,-16.32,-43.08,161.9326,-0.13,1.5849,55.814007,37.500263,206.3973,NaN,0.0,8.0,,24 / 24,,5423,2021-05-04 15:54:07:625
0.514769,-0.998413,9.62259,-0.268796,0.010964,9.802959,-0.148875,0.034003,2.320491,-4.44,-16.32,-43.08,161.9326,-0.13,1.5849,55.814007,37.500263,206.3973,NaN,0.0,8.0,,24 / 24,,5432,2021-05-04 15:54:07:634
0.057463,-1.003201,9.909904,-0.273735,-0.005278,9.802828,-0.142155,0.014456,2.296056,-4.44,-16.26,-42.96,161.9326,-0.13,1.5849,55.814007,37.500263,206.3973,NaN,0.0,8.0,,24 / 24,,5443,2021-05-04 15:54:07:645
0.057463,-1.003201,9.909904,-0.277469,-0.022236,9.802699,-0.133603,-8.16E-4,2.261848,-4.14,-16.02,-42.96,162.0243,0.0308,1.5995,55.814007,37.500263,206.3973,NaN,0.0,8.0,,24 / 24,,5452,2021-05-04 15:54:07:654
0.287313,-0.773351,10.091868,-0.277469,-0.022236,9.802699,-0.116499,-0.053961,2.245354,-4.14,-16.02,-42.96,162.0243,0.0308,1.5995,55.814007,37.500263,206.3973,NaN,0.0,8.0,,24 / 24,,5463,2021-05-04 15:54:07:665
0.196331,-1.149252,10.170879,-0.269614,-0.03555,9.802878,-0.119553,-0.008146,2.2142,-4.2,-15.3,-42.96,162.0243,0.0308,1.5995,55.814007,37.500263,206.3973,NaN,0.0,8.0,,24 / 24,,5472,2021-05-04 15:54:07:674
0.282524,-0.859545,9.727939,-0.269614,-0.03555,9.802878,-0.129327,0.055994,2.201983,-4.2,-15.3,-42.96,162.0243,0.0308,1.5995,55.814007,37.500263,206.3973,NaN,0.0,8.0,,24 / 24,,5482,2021-05-04 15:54:07:684
0.215485,-0.814053,9.464568,-0.275988,-0.050374,9.802636,-0.137879,0.03156,2.175105,-4.32,-14.64,-42.78,161.1275,0.2077,1.5754,55.814007,37.500263,206.3973,NaN,0.0,8.0,,24 / 24,,5493,2021-05-04 15:54:07:695
0.215485,-0.814053,9.464568,-0.275988,-0.050374,9.802636,-0.136657,0.015066,2.154946,-4.32,-14.64,-42.78,161.1275,0.2077,1.5754,55.814007,37.500263,206.3973,NaN,0.0,8.0,,24 / 24,,5502,2021-05-04 15:54:07:704
0.150839,-1.218686,9.799767,-0.275988,-0.050374,9.802636,-0.136657,0.015066,2.154946,-4.32,-14.64,-42.78,161.1275,0.2077,1.5754,55.814007,37.500263,206.3973,NaN,0.0,8.0,,24 / 24,,5512,2021-05-04 15:54:07:714
0.03352,-0.945739,10.35045,-0.282017,-0.067057,9.802365,-0.122607,-0.004481,2.130512,-4.26,-14.16,-42.9,161.1275,0.2077,1.5754,55.814007,37.500263,206.3973,NaN,0.0,8.0,,24 / 24,,5522,2021-05-04 15:54:07:724
-0.275342,-0.967287,10.199611,-0.284176,-0.079414,9.802211,-0.101227,0.014456,2.102412,-4.2,-14.46,-43.14,159.884,0.3918,1.648,55.814007,37.500263,206.3973,NaN,0.0,8.0,,24 / 24,,5532,2021-05-04 15:54:07:734
-0.462095,-0.99123,9.648928,-0.284176,-0.079414,9.802211,-0.091453,0.030338,2.084086,-4.2,-14.46,-43.14,159.884,0.3918,1.648,55.814007,37.500263,206.3973,NaN,0.0,8.0,,24 / 24,,5543,2021-05-04 15:54:07:745
-0.462095,-0.99123,9.648928,-0.292448,-0.087112,9.801902,-0.092064,0.023618,2.081642,-4.32,-14.34,-42.72,159.884,0.3918,1.648,55.814007,37.500263,206.3973,NaN,0.0,8.0,,24 / 24,,5552,2021-05-04 15:54:07:754
-0.521952,-0.849968,9.390346,-0.292448,-0.087112,9.801902,-0.109779,0.005293,2.068814,-4.32,-14.34,-42.72,159.884,0.3918,1.648,55.814007,37.500263,206.3973,NaN,0.0,8.0,,24 / 24,,5563,2021-05-04 15:54:07:765
-0.684763,-0.684763,9.751882,-0.297109,-0.098186,9.801657,-0.122607,0.015066,2.056597,-4.38,-13.44,-42.3,158.5607,0.509,1.709,55.814007,37.500263,206.3973,NaN,0.0,8.0,,24 / 24,,5572,2021-05-04 15:54:07:774
-0.663214,-1.211503,9.953,-0.297109,-0.098186,9.801657,-0.123218,0.015066,2.052321,-4.38,-13.44,-42.3,158.5607,0.509,1.709,55.814007,37.500263,206.3973,NaN,0.0,8.0,,24 / 24,,5582,2021-05-04 15:54:07:784
-0.505192,-0.641666,10.168485,-0.297109,-0.098186,9.801657,-0.114666,-0.041133,2.032162,-4.38,-13.44,-42.3,158.5607,0.509,1.709,55.814007,37.500263,206.3973,NaN,0.0,8.0,,24 / 24,,5592,2021-05-04 15:54:07:794
-0.505192,-0.641666,10.168485,-0.302229,-0.111023,9.801363,-0.095729,-0.055183,2.012004,-4.32,-12.78,-42.24,158.5607,0.509,1.709,55.814007,37.500263,206.3973,NaN,0.0,8.0,,24 / 24,,5602,2021-05-04 15:54:07:804
-0.553077,-0.921796,9.73991,-0.302229,-0.111023,9.801363,-0.098784,-0.011201,1.999787,-4.32,-12.78,-42.24,158.5607,0.509,1.709,55.814007,37.500263,206.3973,NaN,0.0,8.0,,24 / 24,,5612,2021-05-04 15:54:07:814
-0.323227,-0.306467,9.555551,-0.298406,-0.120162,9.801373,-0.105503,-0.008757,1.993067,-4.56,-12.42,-41.34,153.3227,0.6487,1.7662,55.814007,37.500263,206.3973,NaN,0.0,8.0,,24 / 24,,5622,2021-05-04 15:54:07:824
-0.217879,-0.689551,9.466963,-0.298406,-0.120162,9.801373,-0.113444,-0.02464,1.969243,-4.62,-12.3,-41.4,153.3227,0.6487,1.7662,55.814007,37.500263,206.3973,NaN,0.0,8.0,,24 / 24,,5632,2021-05-04 15:54:07:834
-0.742225,-0.976864,9.593859,-0.30113,-0.129742,9.801167,-0.126273,0.051107,1.971687,-4.62,-12.3,-41.4,153.3227,0.6487,1.7662,55.814007,37.500263,206.3973,NaN,0.0,8.0,,24 / 24,,5642,2021-05-04 15:54:07:844
-0.742225,-0.976864,9.593859,-0.30113,-0.129742,9.801167,-0.142155,0.053551,1.963746,-4.62,-12.3,-41.4,153.3227,0.6487,1.7662,55.814007,37.500263,206.3973,NaN,0.0,8.0,,24 / 24,,5652,2021-05-04 15:54:07:854
-0.423787,-0.905036,9.830893,-0.315153,-0.144168,9.800525,-0.136657,-0.066179,1.940533,-4.5,-12.0,-41.7,157.1565,0.758,1.7598,55.814007,37.500263,206.3973,NaN,0.0,8.0,,24 / 24,,5663,2021-05-04 15:54:07:865
-0.531529,-1.434171,10.518049,-0.310181,-0.159837,9.80044,-0.119553,-0.092446,1.912433,-4.5,-10.92,-41.76,157.1565,0.758,1.7598,55.814007,37.500263,206.3973,NaN,0.0,8.0,,24 / 24,,5672,2021-05-04 15:54:07:874
-0.069434,-0.548289,10.494106,-0.310181,-0.159837,9.80044,-0.100616,-0.036246,1.899605,-4.5,-10.92,-41.76,157.1565,0.758,1.7598,55.814007,37.500263,206.3973,NaN,0.0,8.0,,24 / 24,,5683,2021-05-04 15:54:07:885
-0.069434,-0.548289,10.494106,-0.308635,-0.168235,9.800348,-0.065186,-0.026472,1.880057,-4.14,-10.2,-42.12,153.4941,0.9339,1.8128,55.814007,37.500263,206.3973,NaN,0.0,8.0,,24 / 24,,5692,2021-05-04 15:54:07:894
0.428575,-0.766168,9.641745,-0.308635,-0.168235,9.800348,-0.051136,-0.052129,1.843405,-4.14,-10.2,-42.12,153.4941,0.9339,1.8128,55.814007,37.500263,206.3973,NaN,0.0,8.0,,24 / 24,,5702,2021-05-04 15:54:07:904
0.234639,-0.399844,9.560339,-0.307828,-0.168913,9.800362,-0.059688,0.037058,1.817138,-3.96,-9.96,-42.0,153.4941,0.9339,1.8128,55.814007,37.500263,206.3973,NaN,0.0,8.0,,24 / 24,,5713,2021-05-04 15:54:07:915
0.203513,-0.153234,9.28021,-0.307828,-0.168913,9.800362,-0.089621,0.086538,1.782319,-3.96,-9.96,-42.0,153.4941,0.9339,1.8128,55.814007,37.500263,206.3973,NaN,0.0,8.0,,24 / 24,,5723,2021-05-04 15:54:07:925
0.203513,-0.153234,9.28021,-0.307828,-0.168913,9.800362,-0.10306,0.02484,1.74811,-3.96,-9.96,-42.0,153.4941,0.9339,1.8128,55.814007,37.500263,206.3973,NaN,0.0,8.0,,24 / 24,,5732,2021-05-04 15:54:07:934
-0.055068,-0.282524,9.27542,-0.328259,-0.174322,9.799604,-0.133603,-0.025251,1.721843,-3.6,-10.02,-42.54,153.5218,0.9869,1.7991,55.814007,37.500263,206.3973,NaN,0.0,8.0,,24 / 24,,5742,2021-05-04 15:54:07:944
-0.675185,-0.268159,9.859624,-0.33191,-0.187256,9.799243,-0.144599,0.001627,1.718178,-2.82,-10.38,-42.78,153.5218,0.9869,1.7991,55.814007,37.500263,206.3973,NaN,0.0,8.0,,24 / 24,,5752,2021-05-04 15:54:07:954
-0.787716,-0.696734,10.034406,-0.33191,-0.187256,9.799243,-0.144599,0.001627,1.718178,-2.82,-10.38,-42.78,153.5218,0.9869,1.7991,55.814007,37.500263,206.3973,NaN,0.0,8.0,,24 / 24,,5762,2021-05-04 15:54:07:964
