ACCELEROMETER X (m/s²),ACCELEROMETER Y (m/s²),ACCELEROMETER Z (m/s²),GRAVITY X (m/s²),GRAVITY Y (m/s²),GRAVITY Z (m/s²),GYROSCOPE X (rad/s),GYROSCOPE Y (rad/s),GYROSCOPE Z (rad/s),MAGNETIC FIELD X (μT),MAGNETIC FIELD Y (μT),MAGNETIC FIELD Z (μT),ORIENTATION Z (azimuth °),ORIENTATION X (pitch °),ORIENTATION Y (roll °),LOCATION Latitude : ,LOCATION Longitude : ,LOCATION Altitude ( m),LOCATION Altitude-google ( m),LOCATION Speed ( m/s),LOCATION Accuracy ( m),LOCATION ORIENTATION (°),Satellites in range,GPS NMEA,Time since start in ms ,YYYY-MO-DD HH-MI-SS_SSS
-0.253793,0.459701,9.438231,-0.304306,0.088024,9.801533,0.019113,0.037668,0.01142,8.46,-3.12,-40.86,248.3145,-0.4751,1.8336,55.814007,37.500294,202.9318,NaN,0.0,6.0,,23 / 24,,7,2021-05-04 15:50:52:821
-0.253793,0.459701,9.438231,-0.310063,0.094727,9.80129,-0.033421,0.051107,0.001646,7.92,-3.48,-40.2,248.3145,-0.4751,1.8336,55.814007,37.500294,202.9318,NaN,0.0,6.0,,23 / 24,,18,2021-05-04 15:50:52:832
-0.375901,0.464489,9.340066,-0.310063,0.094727,9.80129,-0.100005,0.038279,-0.002019,7.92,-3.48,-40.2,248.3145,-0.4751,1.8336,55.814007,37.500294,202.9318,NaN,0.0,6.0,,23 / 24,,27,2021-05-04 15:50:52:841
-0.452518,0.404632,9.404712,-0.318942,0.085447,9.80109,-0.139712,0.013845,0.005311,8.28,-3.3,-39.42,248.8166,-0.5535,1.8119,55.814007,37.500294,202.9318,NaN,0.0,6.0,,23 / 24,,37,2021-05-04 15:50:52:851
-0.387873,0.251399,9.526819,-0.318942,0.085447,9.80109,-0.180029,-0.013033,0.015696,8.28,-3.3,-39.42,248.8166,-0.5535,1.8119,55.814007,37.500294,202.9318,NaN,0.0,6.0,,23 / 24,,47,2021-05-04 15:50:52:861
-0.430969,0.158022,9.591465,-0.319104,0.055293,9.801301,-0.198966,-0.044798,0.015085,8.34,-3.24,-39.12,248.8166,-0.5535,1.8119,55.814007,37.500294,202.9318,NaN,0.0,6.0,,23 / 24,,58,2021-05-04 15:50:52:872
-0.430969,0.158022,9.591465,-0.319104,0.055293,9.801301,-0.198966,-0.098555,0.016918,8.34,-3.24,-39.12,248.8166,-0.5535,1.8119,55.814007,37.500294,202.9318,NaN,0.0,6.0,,23 / 24,,67,2021-05-04 15:50:52:881
-0.354353,0.040703,9.732727,-0.30657,0.017832,9.801841,-0.186748,-0.113215,0.015085,8.46,-3.48,-39.84,247.4981,-0.3231,1.8647,55.814007,37.500294,202.9318,NaN,0.0,6.0,,23 / 24,,78,2021-05-04 15:50:52:892
-0.332804,-0.081405,10.015251,-0.30657,0.017832,9.801841,-0.159259,-0.110161,0.009588,8.46,-3.48,-39.84,247.4981,-0.3231,1.8647,55.814007,37.500294,202.9318,NaN,0.0,6.0,,23 / 24,,88,2021-05-04 15:50:52:902
-0.308861,0.011971,10.094262,-0.285132,-0.016056,9.80249,-0.115888,-0.072287,0.021194,8.58,-3.42,-40.32,247.4981,-0.3231,1.8647,55.814007,37.500294,202.9318,NaN,0.0,6.0,,23 / 24,,98,2021-05-04 15:50:52:912
-0.225062,0.10056,9.996098,-0.285132,-0.016056,9.80249,-0.107947,-0.017309,0.023027,8.58,-3.42,-40.32,247.4981,-0.3231,1.8647,55.814007,37.500294,202.9318,NaN,0.0,6.0,,23 / 24,,108,2021-05-04 15:50:52:922
-0.225062,0.10056,9.996098,-0.273467,-0.03849,9.802761,-0.114055,0.026062,0.018751,8.04,-3.24,-40.26,245.837,0.0938,1.6661,55.814007,37.500294,202.9318,NaN,0.0,6.0,,23 / 24,,118,2021-05-04 15:50:52:932
-0.339987,0.186753,9.885961,-0.273467,-0.03849,9.802761,-0.11772,0.037058,0.015696,8.04,-3.24,-40.26,245.837,0.0938,1.6661,55.814007,37.500294,202.9318,NaN,0.0,6.0,,23 / 24,,127,2021-05-04 15:50:52:941
-0.390267,0.205908,9.70639,-0.278881,-0.060393,9.802498,-0.11711,0.019953,0.014474,7.8,-2.7,-39.78,245.837,0.0938,1.6661,55.814007,37.500294,202.9318,NaN,0.0,6.0,,23 / 24,,137,2021-05-04 15:50:52:951
-0.36393,0.244216,9.471751,-0.278881,-0.060393,9.802498,-0.112223,-0.045409,-0.002019,7.8,-2.7,-39.78,245.837,0.0938,1.6661,55.814007,37.500294,202.9318,NaN,0.0,6.0,,23 / 24,,147,2021-05-04 15:50:52:961
-0.36393,0.244216,9.471751,-0.278625,-0.082522,9.802343,-0.11772,-0.118713,-0.014847,8.34,-2.16,-39.72,251.8573,0.3529,1.6296,55.814007,37.500294,202.9318,NaN,0.0,6.0,,23 / 24,,157,2021-05-04 15:50:52:971
-0.450124,0.282524,9.522031,-0.278625,-0.082522,9.802343,-0.11711,-0.223171,-0.025232,8.34,-2.16,-39.72,251.8573,0.3529,1.6296,55.814007,37.500294,202.9318,NaN,0.0,6.0,,23 / 24,,168,2021-05-04 15:50:52:982
-0.426181,0.256187,9.854836,-0.252587,-0.104982,9.802835,-0.098784,-0.32824,-0.036227,8.52,-2.16,-40.38,251.8573,0.3529,1.6296,55.814007,37.500294,202.9318,NaN,0.0,6.0,,23 / 24,,177,2021-05-04 15:50:52:991
-0.512375,0.110137,10.606637,-0.252587,-0.104982,9.802835,-0.041362,-0.440028,-0.03806,8.52,-2.16,-40.38,251.8573,0.3529,1.6296,55.814007,37.500294,202.9318,NaN,0.0,6.0,,23 / 24,,187,2021-05-04 15:50:53:001
-0.512375,0.110137,10.606637,-0.185801,-0.122248,9.804128,0.096693,-0.467517,-0.023399,7.8,-2.16,-39.54,250.7708,0.6134,1.476,55.814007,37.500294,202.9318,NaN,0.0,6.0,,23 / 24,,197,2021-05-04 15:50:53:011
-0.29689,-0.079011,11.016058,-0.185801,-0.122248,9.804128,0.132123,-0.311136,-0.022788,7.8,-2.16,-39.54,250.7708,0.6134,1.476,55.814007,37.500294,202.9318,NaN,0.0,6.0,,23 / 24,,207,2021-05-04 15:50:53:021
-0.047885,-0.225062,10.589877,-0.096704,-0.107143,9.805588,0.085087,-0.132152,-0.003241,7.8,-2.04,-39.42,250.7708,0.6134,1.476,55.814007,37.500294,202.9318,NaN,0.0,6.0,,23 / 24,,218,2021-05-04 15:50:53:032
-0.021548,-0.062251,9.960183,-0.096704,-0.107143,9.805588,-0.054801,0.053551,0.046239,7.8,-2.04,-39.42,250.7708,0.6134,1.476,55.814007,37.500294,202.9318,NaN,0.0,6.0,,23 / 24,,228,2021-05-04 15:50:53:042
0.289707,0.069434,9.249084,-0.070193,-0.091951,9.805968,-0.246613,0.165339,0.063344,7.98,-2.28,-40.38,252.2274,0.626,0.565,55.814007,37.500294,202.9318,NaN,0.0,6.0,,23 / 24,,238,2021-05-04 15:50:53:052
0.289707,0.069434,9.249084,-0.070193,-0.091951,9.805968,-0.424986,0.164728,0.058457,7.98,-2.28,-40.38,252.2274,0.626,0.565,55.814007,37.500294,202.9318,NaN,0.0,6.0,,23 / 24,,247,2021-05-04 15:50:53:061
0.294496,0.306467,9.047964,-0.098582,-0.134663,9.80523,-0.561819,0.186109,0.0328,7.44,-2.46,-40.14,252.2274,0.626,0.565,55.814007,37.500294,202.9318,NaN,0.0,6.0,,23 / 24,,257,2021-05-04 15:50:53:071
0.493221,0.715888,9.268238,-0.098582,-0.134663,9.80523,-0.638178,0.228869,-0.03073,7.44,-2.46,-40.14,252.2274,0.626,0.565,55.814007,37.500294,202.9318,NaN,0.0,6.0,,23 / 24,,267,2021-05-04 15:50:53:081
0.488432,0.770957,9.519637,-0.134525,-0.239698,9.802797,-0.638178,0.228869,-0.03073,7.38,-1.86,-39.96,248.8678,0.7868,0.576,55.814007,37.500294,202.9318,NaN,0.0,6.0,,23 / 24,,277,2021-05-04 15:50:53:091
0.21309,0.421392,9.720756,-0.134525,-0.239698,9.802797,-0.635123,0.217874,-0.102201,7.38,-1.86,-39.96,248.8678,0.7868,0.576,55.814007,37.500294,202.9318,NaN,0.0,6.0,,23 / 24,,287,2021-05-04 15:50:53:101
0.21309,0.421392,9.720756,-0.17727,-0.363638,9.798303,-0.569761,0.170837,-0.131522,7.5,-0.78,-40.44,248.8678,0.7868,0.576,55.814007,37.500294,202.9318,NaN,0.0,6.0,,23 / 24,,298,2021-05-04 15:50:53:112
-0.119714,-0.095771,9.792584,-0.191982,-0.417,9.795899,-0.493403,0.117692,-0.128468,7.56,-0.78,-39.9,248.8678,0.7868,0.576,55.814007,37.500294,202.9318,NaN,0.0,6.0,,23 / 24,,307,2021-05-04 15:50:53:121
-0.658426,-0.529135,9.96976,-0.191982,-0.417,9.795899,-0.401773,-0.002038,-0.042947,7.56,-0.78,-39.9,248.8678,0.7868,0.576,55.814007,37.500294,202.9318,NaN,0.0,6.0,,23 / 24,,317,2021-05-04 15:50:53:131
-0.708705,-0.866727,10.180456,-0.200511,-0.501784,9.791751,-0.310143,-0.057627,0.049294,7.92,-0.3,-40.02,256.6869,2.4371,1.1228,55.814007,37.500294,202.9318,NaN,0.0,6.0,,23 / 24,,327,2021-05-04 15:50:53:141
-0.06704,-0.517163,9.696813,-0.200511,-0.501784,9.791751,-0.286319,-0.051518,0.098163,7.92,-0.3,-40.02,256.6869,2.4371,1.1228,55.814007,37.500294,202.9318,NaN,0.0,6.0,,23 / 24,,337,2021-05-04 15:50:53:151
-0.06704,-0.517163,9.696813,-0.190562,-0.558955,9.788853,-0.339465,-0.049074,0.067009,8.22,-0.54,-40.2,256.6869,2.4371,1.1228,55.814007,37.500294,202.9318,NaN,0.0,6.0,,23 / 24,,347,2021-05-04 15:50:53:161
0.217879,-0.035914,9.713573,-0.190562,-0.558955,9.788853,-0.437814,0.026673,-0.008128,8.22,-0.54,-40.2,256.6869,2.4371,1.1228,55.814007,37.500294,202.9318,NaN,0.0,6.0,,23 / 24,,358,2021-05-04 15:50:53:172
0.572232,0.203513,9.996098,-0.18629,-0.632229,9.784476,-0.459194,0.170837,-0.067381,7.98,-0.24,-40.26,252.4141,3.2675,1.1153,55.814007,37.500294,202.9318,NaN,0.0,6.0,,23 / 24,,368,2021-05-04 15:50:53:182
0.572232,0.203513,9.996098,-0.18629,-0.632229,9.784476,-0.421931,0.209322,-0.125414,7.98,-0.24,-40.26,252.4141,3.2675,1.1153,55.814007,37.500294,202.9318,NaN,0.0,6.0,,23 / 24,,377,2021-05-04 15:50:53:191
0.275342,0.028731,9.596253,-0.217489,-0.719487,9.777802,-0.421931,0.209322,-0.125414,7.62,0.6,-40.68,252.4141,3.2675,1.1153,55.814007,37.500294,202.9318,NaN,0.0,6.0,,23 / 24,,387,2021-05-04 15:50:53:201
-0.019154,-0.299284,9.37598,-0.217489,-0.719487,9.777802,-0.417655,0.184887,-0.147405,7.62,0.6,-40.68,252.4141,3.2675,1.1153,55.814007,37.500294,202.9318,NaN,0.0,6.0,,23 / 24,,397,2021-05-04 15:50:53:211
-0.260976,-0.569837,9.289786,-0.251605,-0.800512,9.770684,-0.439036,0.163507,-0.138242,7.44,1.02,-40.38,252.3126,4.2074,1.2742,55.814007,37.500294,202.9318,NaN,0.0,6.0,,23 / 24,,407,2021-05-04 15:50:53:221
-0.260976,-0.569837,9.289786,-0.251605,-0.800512,9.770684,-0.474466,0.119524,-0.109531,7.44,1.02,-40.38,252.3126,4.2074,1.2742,55.814007,37.500294,203.3856,NaN,0.0,6.0,,22 / 25,,417,2021-05-04 15:50:53:231
-0.854756,-0.687157,9.603436,-0.274724,-0.890213,9.762297,-0.483018,0.113416,-0.071047,8.28,1.02,-40.32,252.3126,4.2074,1.2742,55.814007,37.500294,203.3856,NaN,0.0,6.0,,22 / 25,,427,2021-05-04 15:50:53:241
-0.854756,-0.687157,9.603436,-0.274724,-0.890213,9.762297,-0.483018,0.113416,-0.071047,8.28,1.02,-40.32,252.3126,4.2074,1.2742,55.814007,37.500294,203.3856,NaN,0.0,6.0,,22 / 25,,438,2021-05-04 15:50:53:252
-0.703917,-0.7111,9.91948,-0.286111,-0.936874,9.757603,-0.480574,0.149457,0.001646,8.52,0.84,-40.62,250.6944,5.2083,1.612,55.814007,37.500294,203.3856,NaN,0.0,6.0,,22 / 25,,448,2021-05-04 15:50:53:262
-0.521952,-0.92419,10.000886,-0.286111,-0.936874,9.757603,-0.401162,-0.051518,-0.057608,8.52,0.84,-40.62,250.6944,5.2083,1.612,55.814007,37.500294,203.3856,NaN,0.0,6.0,,22 / 25,,459,2021-05-04 15:50:53:273
-0.521952,-0.92419,10.000886,-0.330104,-1.073087,9.742171,-0.401162,-0.051518,-0.057608,8.64,2.04,-39.96,250.6944,5.2083,1.612,55.814007,37.500294,203.3856,NaN,0.0,6.0,,22 / 25,,467,2021-05-04 15:50:53:281
-0.69434,-1.680781,9.73991,-0.330104,-1.073087,9.742171,-0.359012,-0.06007,-0.063105,8.64,2.04,-39.96,250.6944,5.2083,1.612,55.814007,37.500294,203.3856,NaN,0.0,6.0,,22 / 25,,477,2021-05-04 15:50:53:291
-1.161223,-1.728666,9.830893,-0.315916,-1.143606,9.734616,-0.368786,-0.06679,0.01142,8.76,2.34,-39.24,253.2444,6.2821,1.9407,55.814007,37.500294,203.3856,NaN,0.0,6.0,,22 / 25,,487,2021-05-04 15:50:53:301
-1.161223,-1.728666,9.830893,-0.315916,-1.143606,9.734616,-0.33641,-0.110772,0.122598,8.76,2.34,-39.24,253.2444,6.2821,1.9407,55.814007,37.500294,203.3856,NaN,0.0,6.0,,22 / 25,,497,2021-05-04 15:50:53:311
-0.888276,-1.230657,9.957788,-0.300645,-1.211113,9.726932,-0.298537,-0.154143,0.142145,8.4,2.52,-39.66,253.2444,6.2821,1.9407,55.814007,37.500294,203.3856,NaN,0.0,6.0,,22 / 25,,507,2021-05-04 15:50:53:321
-0.158022,-0.876305,9.821315,-0.300645,-1.211113,9.726932,-0.214237,-0.157198,0.067009,8.4,2.52,-39.66,253.2444,6.2821,1.9407,55.814007,37.500294,203.3856,NaN,0.0,6.0,,22 / 25,,518,2021-05-04 15:50:53:332
-0.158022,-0.876305,9.821315,-0.273875,-1.261529,9.721313,-0.142155,-0.153532,0.024859,8.1,2.88,-39.78,253.5891,7.0941,1.7704,55.814007,37.500294,203.3856,NaN,0.0,6.0,,22 / 25,,527,2021-05-04 15:50:53:341
-0.198725,-1.031932,9.842864,-0.273875,-1.261529,9.721313,-0.078625,-0.118713,0.027303,8.1,2.88,-39.78,253.5891,7.0941,1.7704,55.814007,37.500294,203.3856,NaN,0.0,6.0,,22 / 25,,538,2021-05-04 15:50:53:352
-0.545895,-1.503604,9.984126,-0.246666,-1.287114,9.718687,-0.052969,-0.01059,0.082891,8.16,3.06,-40.02,253.5891,7.0941,1.7704,55.814007,37.500294,203.3856,NaN,0.0,6.0,,22 / 25,,547,2021-05-04 15:50:53:361
-0.474066,-1.63529,9.90272,-0.241734,-1.292101,9.718149,-0.049304,0.022397,0.104883,7.92,2.88,-39.84,253.5891,7.0941,1.7704,55.814007,37.500294,203.3856,NaN,0.0,6.0,,22 / 25,,558,2021-05-04 15:50:53:372
-0.474066,-1.63529,9.90272,-0.241734,-1.292101,9.718149,-0.049304,0.022397,0.104883,7.92,2.88,-39.84,253.5891,7.0941,1.7704,55.814007,37.500294,203.3856,NaN,0.0,6.0,,22 / 25,,567,2021-05-04 15:50:53:381
-0.351958,-1.316851,9.703996,-0.255578,-1.302183,9.716449,-0.07496,0.076764,0.181241,7.44,3.06,-40.2,248.8889,7.5712,1.4249,55.814007,37.500294,203.3856,NaN,0.0,6.0,,22 / 25,,578,2021-05-04 15:50:53:392
-0.433364,-1.166012,9.636956,-0.255578,-1.302183,9.716449,-0.097562,-0.028305,0.232553,7.44,3.06,-40.2,248.8889,7.5712,1.4249,55.814007,37.500294,203.3856,NaN,0.0,6.0,,22 / 25,,587,2021-05-04 15:50:53:401
-0.244216,-1.264177,9.680053,-0.264815,-1.318962,9.713939,-0.092064,-0.079618,0.247214,7.44,3.48,-40.2,248.8889,7.5712,1.4249,55.814007,37.500294,203.3856,NaN,0.0,6.0,,22 / 25,,598,2021-05-04 15:50:53:412
-0.136474,-1.077424,9.818921,-0.264815,-1.318962,9.713939,-0.09634,-0.080839,0.221558,7.44,3.48,-40.2,248.8889,7.5712,1.4249,55.814007,37.500294,203.3856,NaN,0.0,6.0,,22 / 25,,607,2021-05-04 15:50:53:421
-0.136474,-1.077424,9.818921,-0.255564,-1.335711,9.711898,-0.137879,0.041334,0.049294,8.1,3.84,-39.9,258.1953,7.7295,1.5616,55.814007,37.500294,203.3856,NaN,0.0,6.0,,22 / 25,,617,2021-05-04 15:50:53:431
-0.031126,-0.550683,9.699207,-0.255564,-1.335711,9.711898,-0.172698,0.143348,-0.300732,8.1,3.84,-39.9,258.1953,7.7295,1.5616,55.814007,37.500294,203.3856,NaN,0.0,6.0,,22 / 25,,627,2021-05-04 15:50:53:441
-0.311256,0.045491,9.373586,-0.269648,-1.364735,9.70748,-0.167811,0.104864,-0.474218,8.4,3.48,-40.38,258.1953,7.7295,1.5616,55.814007,37.500294,203.3856,NaN,0.0,6.0,,22 / 25,,637,2021-05-04 15:50:53:451
-0.311256,0.045491,9.373586,-0.269648,-1.364735,9.70748,-0.195911,-0.006925,-0.678858,8.4,3.48,-40.38,258.1953,7.7295,1.5616,55.814007,37.500294,203.3856,NaN,0.0,6.0,,22 / 25,,648,2021-05-04 15:50:53:462
-0.598569,-0.663214,9.411894,-0.267494,-1.40029,9.702475,-0.203852,-0.028305,-0.679468,8.1,3.24,-40.26,249.1369,7.9995,1.5911,55.814007,37.500294,203.3856,NaN,0.0,6.0,,22 / 25,,672,2021-05-04 15:50:53:486
-0.598569,-0.663214,9.411894,-0.267494,-1.40029,9.702475,-0.203852,-0.028305,-0.679468,8.1,3.24,-40.26,249.1369,7.9995,1.5911,55.814007,37.500294,203.3856,NaN,0.0,6.0,,22 / 25,,673,2021-05-04 15:50:53:487
-0.598569,-0.663214,9.411894,-0.267494,-1.40029,9.702475,-0.203852,-0.028305,-0.679468,8.1,3.24,-40.26,249.1369,7.9995,1.5911,55.814007,37.500294,203.3856,NaN,0.0,6.0,,22 / 25,,677,2021-05-04 15:50:53:491
-0.150839,-0.821236,9.256267,-0.267494,-1.40029,9.702475,-0.321749,-0.034414,-0.460779,8.1,3.24,-40.26,249.1369,7.9995,1.5911,55.814007,37.500294,203.3856,NaN,0.0,6.0,,22 / 25,,687,2021-05-04 15:50:53:501
0.002394,-0.876305,9.380769,-0.221747,-1.506411,9.687721,-0.354125,-0.061292,-0.411909,7.98,3.78,-39.9,249.1369,7.9995,1.5911,55.814007,37.500294,203.3856,NaN,0.0,6.0,,22 / 25,,697,2021-05-04 15:50:53:511
0.002394,-0.876305,9.380769,-0.209546,-1.540516,9.682628,-0.404216,-0.025251,-0.378923,7.92,4.02,-40.02,249.1369,7.9995,1.5911,55.814007,37.500294,203.3856,NaN,0.0,6.0,,22 / 25,,708,2021-05-04 15:50:53:522
0.227456,-1.156435,9.352037,-0.209546,-1.540516,9.682628,-0.489127,-0.006314,-0.34899,7.92,4.02,-40.02,249.1369,7.9995,1.5911,55.814007,37.500294,203.3856,NaN,0.0,6.0,,22 / 25,,717,2021-05-04 15:50:53:531
0.225062,-1.673598,9.474146,-0.195039,-1.626968,9.66878,-0.606413,0.076764,-0.282406,7.44,4.62,-40.2,257.4259,9.038,1.2398,55.814007,37.500294,203.3856,NaN,0.0,6.0,,22 / 25,,727,2021-05-04 15:50:53:541
0.225062,-1.673598,9.474146,-0.195039,-1.626968,9.66878,-0.718201,0.106085,-0.229261,7.44,4.62,-40.2,257.4259,9.038,1.2398,55.814007,37.500294,203.3856,NaN,0.0,6.0,,22 / 25,,737,2021-05-04 15:50:53:551
0.225062,-1.963305,9.742304,-0.20424,-1.755923,9.646005,-0.820215,0.142126,-0.144351,7.74,4.98,-40.38,257.4259,9.038,1.2398,55.814007,37.500294,203.3856,NaN,0.0,6.0,,22 / 25,,750,2021-05-04 15:50:53:564
-0.155628,-2.351178,9.828498,-0.20424,-1.755923,9.646005,-0.877637,0.157398,-0.020956,7.74,4.98,-40.38,257.4259,9.038,1.2398,55.814007,37.500294,203.3856,NaN,0.0,6.0,,22 / 25,,758,2021-05-04 15:50:53:572
-0.411815,-2.351178,9.950606,-0.228809,-1.918751,9.614387,-0.825713,0.147624,0.038298,7.68,6.0,-40.5,259.7914,10.3147,1.213,55.814007,37.500294,203.3856,NaN,0.0,6.0,,22 / 25,,769,2021-05-04 15:50:53:583
-0.507586,-2.193156,9.993703,-0.244166,-2.001107,9.597204,-0.825713,0.147624,0.038298,7.02,7.02,-40.92,259.7914,10.3147,1.213,55.814007,37.500294,203.3856,NaN,0.0,6.0,,22 / 25,,779,2021-05-04 15:50:53:593
-0.507586,-2.193156,9.993703,-0.244166,-2.001107,9.597204,-0.714536,0.153733,0.062122,7.02,7.02,-40.92,259.7914,10.3147,1.213,55.814007,37.500294,203.3856,NaN,0.0,6.0,,22 / 25,,787,2021-05-04 15:50:53:601
-0.409421,-1.968094,9.895537,-0.275227,-2.141996,9.565903,-0.591141,0.163507,0.059068,7.68,7.38,-39.84,259.7914,10.3147,1.213,55.814007,37.500294,203.3856,NaN,0.0,6.0,,22 / 25,,797,2021-05-04 15:50:53:611
-0.538712,-1.984854,9.742304,-0.275227,-2.141996,9.565903,-0.467746,0.076153,0.082891,7.68,7.38,-39.84,259.7914,10.3147,1.213,55.814007,37.500294,203.3856,NaN,0.0,6.0,,22 / 25,,807,2021-05-04 15:50:53:621
-0.538712,-1.984854,9.742304,-0.305597,-2.245276,9.541265,-0.467746,0.076153,0.082891,8.46,7.86,-39.06,263.7052,12.6164,1.648,55.814007,37.500294,203.3856,NaN,0.0,6.0,,22 / 25,,817,2021-05-04 15:50:53:631
-0.600963,-1.927391,9.63935,-0.305597,-2.245276,9.541265,-0.408492,-0.001427,0.084113,8.46,7.86,-39.06,263.7052,12.6164,1.648,55.814007,37.500294,203.3856,NaN,0.0,6.0,,22 / 25,,827,2021-05-04 15:50:53:641
-0.10056,-1.647261,9.469357,-0.310464,-2.323224,9.522427,-0.398718,-0.043577,-0.013014,7.98,8.1,-39.72,263.7052,12.6164,1.648,55.814007,37.500294,203.3856,NaN,0.0,6.0,,22 / 25,,837,2021-05-04 15:50:53:651
-0.265764,-1.960911,9.538791,-0.305285,-2.361621,9.513144,-0.415823,-0.041744,-0.061273,7.74,8.34,-39.66,263.7052,12.6164,1.648,55.814007,37.500294,203.3856,NaN,0.0,6.0,,22 / 25,,847,2021-05-04 15:50:53:661
-0.265764,-1.960911,9.538791,-0.305285,-2.361621,9.513144,-0.510507,0.057216,-0.195663,7.74,8.34,-39.66,263.7052,12.6164,1.648,55.814007,37.500294,203.3856,NaN,0.0,6.0,,22 / 25,,857,2021-05-04 15:50:53:671
-0.177176,-2.166818,9.387952,-0.305285,-2.361621,9.513144,-0.572204,0.117692,-0.239645,7.74,8.34,-39.66,263.7052,12.6164,1.648,55.814007,37.500294,203.3856,NaN,0.0,6.0,,22 / 25,,868,2021-05-04 15:50:53:682
-0.272947,-2.209916,9.402317,-0.303638,-2.456227,9.489211,-0.577702,0.125022,-0.238424,8.04,9.06,-39.72,261.908,13.9348,1.838,55.814007,37.500294,203.3856,NaN,0.0,6.0,,22 / 25,,877,2021-05-04 15:50:53:691
-0.272947,-2.209916,9.402317,-0.303638,-2.456227,9.489211,-0.577702,0.125022,-0.238424,8.04,9.06,-39.72,261.908,13.9348,1.838,55.814007,37.500294,203.3856,NaN,0.0,6.0,,22 / 25,,888,2021-05-04 15:50:53:702
-0.569837,-2.621731,9.419077,-0.325879,-2.62763,9.442444,-0.594806,0.093257,-0.116862,8.58,9.48,-39.3,261.908,13.9348,1.838,55.814007,37.500294,203.3856,NaN,0.0,6.0,,22 / 25,,897,2021-05-04 15:50:53:711
-0.569837,-2.621731,9.419077,-0.325879,-2.62763,9.442444,-0.515394,0.119524,-0.099146,8.58,9.48,-39.3,261.908,13.9348,1.838,55.814007,37.500294,203.3856,NaN,0.0,6.0,,22 / 25,,908,2021-05-04 15:50:53:722
-0.232245,-2.655251,9.378374,-0.339344,-2.731601,9.412416,-0.515394,0.119524,-0.099146,8.88,10.26,-39.3,263.3457,15.5419,1.9766,55.814007,37.500294,203.3856,NaN,0.0,6.0,,22 / 25,,917,2021-05-04 15:50:53:731
-0.435758,-2.660039,9.337671,-0.339344,-2.731601,9.412416,-0.469579,0.145792,-0.08021,8.88,10.26,-39.3,263.3457,15.5419,1.9766,55.814007,37.500294,203.3856,NaN,0.0,6.0,,22 / 25,,927,2021-05-04 15:50:53:741
-0.435758,-2.660039,9.337671,-0.359055,-2.817978,9.386185,-0.387112,0.049886,0.013253,9.18,10.62,-38.94,263.3457,15.5419,1.9766,55.814007,37.500294,203.3856,NaN,0.0,6.0,,22 / 25,,937,2021-05-04 15:50:53:751
-0.634483,-2.961718,9.608225,-0.359055,-2.817978,9.386185,-0.341908,0.048053,0.121376,9.18,10.62,-38.94,263.3457,15.5419,1.9766,55.814007,37.500294,203.3856,NaN,0.0,6.0,,22 / 25,,947,2021-05-04 15:50:53:761
-0.464489,-2.863552,9.581888,-0.372046,-2.883419,9.365781,-0.327247,0.062103,0.18063,9.18,10.44,-39.42,257.0935,16.6996,2.1907,55.814007,37.500294,203.3856,NaN,0.0,6.0,,22 / 25,,957,2021-05-04 15:50:53:771
-0.282524,-2.449343,9.526819,-0.372046,-2.883419,9.365781,-0.32908,0.041334,0.206286,9.18,10.44,-39.42,257.0935,16.6996,2.1907,55.814007,37.500294,203.3856,NaN,0.0,6.0,,22 / 25,,967,2021-05-04 15:50:53:781
-0.579414,-2.5092,9.428655,-0.392989,-2.942543,9.346518,-0.367564,0.062714,0.219725,9.36,10.92,-39.54,257.0935,16.6996,2.1907,55.814007,37.500294,203.3856,NaN,0.0,6.0,,22 / 25,,977,2021-05-04 15:50:53:791
-0.579414,-2.5092,9.428655,-0.392989,-2.942543,9.346518,-0.367564,0.062714,0.219725,9.36,10.92,-39.54,257.0935,16.6996,2.1907,55.814007,37.500294,203.3856,NaN,0.0,6.0,,22 / 25,,987,2021-05-04 15:50:53:801
-0.663214,-2.49244,9.423865,-0.420018,-3.018166,9.321193,-0.496457,0.069433,0.217282,9.24,11.52,-38.76,267.211,17.461,2.4077,55.814007,37.500294,203.3856,NaN,0.0,6.0,,22 / 25,,998,2021-05-04 15:50:53:812
-0.524346,-2.753416,9.433443,-0.420018,-3.018166,9.321193,-0.617408,0.024229,0.170245,9.24,11.52,-38.76,267.211,17.461,2.4077,55.814007,37.500294,203.3856,NaN,0.0,6.0,,22 / 25,,1007,2021-05-04 15:50:53:821
-0.524346,-2.753416,9.433443,-0.437132,-3.126057,9.284776,-0.705373,0.012012,0.088389,9.42,11.64,-38.94,267.211,17.461,2.4077,55.814007,37.500294,203.3856,NaN,0.0,6.0,,22 / 25,,1017,2021-05-04 15:50:53:831
-0.507586,-3.01918,9.399923,-0.440493,-3.192278,9.262056,-0.755464,0.018121,0.016307,8.94,11.76,-39.36,267.211,17.461,2.4077,55.814007,37.500294,203.3856,NaN,0.0,6.0,,22 / 25,,1027,2021-05-04 15:50:53:841
-0.61054,-3.471698,9.464568,-0.440493,-3.192278,9.262056,-0.763405,-0.013644,-0.022177,8.94,11.76,-39.36,267.211,17.461,2.4077,55.814007,37.500294,203.3856,NaN,0.0,6.0,,22 / 25,,1037,2021-05-04 15:50:53:851
-0.72786,-3.574652,9.500483,-0.438216,-3.331463,9.213017,-0.72431,-0.06007,-0.011182,8.82,12.72,-39.24,265.767,18.9972,2.7229,55.814007,37.500294,203.3856,NaN,0.0,6.0,,22 / 25,,1047,2021-05-04 15:50:53:861
-0.72786,-3.574652,9.500483,-0.438216,-3.331463,9.213017,-0.646119,-0.028916,0.037076,8.82,12.72,-39.24,265.767,18.9972,2.7229,55.814007,37.500294,203.3856,NaN,0.0,6.0,,22 / 25,,1058,2021-05-04 15:50:53:872
-0.59378,-3.263396,9.385557,-0.431253,-3.454718,9.167842,-0.577091,-0.028305,0.058457,8.46,13.56,-38.4,265.767,18.9972,2.7229,55.814007,37.500294,203.3856,NaN,0.0,6.0,,22 / 25,,1068,2021-05-04 15:50:53:882
-0.629694,-3.287339,9.318518,-0.430836,-3.506835,9.148052,-0.545326,-0.05274,0.059678,8.16,13.92,-38.28,265.767,18.9972,2.7229,55.814007,37.500294,203.3856,NaN,0.0,6.0,,22 / 25,,1077,2021-05-04 15:50:53:891
-0.555472,-3.615355,9.249084,-0.430836,-3.506835,9.148052,-0.573426,-0.016088,0.015085,8.16,13.92,-38.28,265.767,18.9972,2.7229,55.814007,37.500294,203.3856,NaN,0.0,6.0,,22 / 25,,1088,2021-05-04 15:50:53:902
-0.555472,-3.615355,9.249084,-0.424261,-3.603997,9.110519,-0.573426,-0.016088,0.015085,8.7,13.98,-38.58,261.9812,20.9527,2.6964,55.814007,37.500294,203.3856,NaN,0.0,6.0,,22 / 25,,1097,2021-05-04 15:50:53:911
-0.249005,-3.648875,9.14613,-0.424261,-3.603997,9.110519,-0.659558,0.023008,-0.025843,8.7,13.98,-38.58,261.9812,20.9527,2.6964,55.814007,37.500294,203.3856,NaN,0.0,6.0,,22 / 25,,1107,2021-05-04 15:50:53:921
-0.272947,-3.840417,9.143736,-0.42568,-3.725372,9.061499,-0.754853,0.02484,-0.050277,9.12,14.16,-38.76,261.9812,20.9527,2.6964,55.814007,37.500294,203.3856,NaN,0.0,6.0,,22 / 25,,1117,2021-05-04 15:50:53:931
-0.272947,-3.840417,9.143736,-0.42568,-3.725372,9.061499,-0.754853,0.02484,-0.050277,9.12,14.16,-38.76,261.9812,20.9527,2.6964,55.814007,37.500294,203.3856,NaN,0.0,6.0,,22 / 25,,1128,2021-05-04 15:50:53:942
-0.304073,-3.821262,9.086273,-0.42712,-3.798297,9.031105,-0.863587,0.054162,-0.053332,9.12,14.4,-38.4,257.259,22.3264,2.6896,55.814007,37.500294,203.3856,NaN,0.0,6.0,,22 / 25,,1138,2021-05-04 15:50:53:952
-0.591386,-3.936188,9.043176,-0.42712,-3.798297,9.031105,-0.867252,0.043777,-1.86E-4,9.12,14.4,-38.4,257.259,22.3264,2.6896,55.814007,37.500294,203.3856,NaN,0.0,6.0,,22 / 25,,1147,2021-05-04 15:50:53:961
-0.591386,-3.936188,9.043176,-0.438662,-4.034162,8.927681,-0.825102,0.03156,0.028524,9.36,15.3,-37.56,257.259,22.3264,2.6896,55.814007,37.500294,203.3856,NaN,0.0,6.0,,22 / 25,,1158,2021-05-04 15:50:53:972
-0.500403,-4.201952,9.007262,-0.442636,-4.107094,8.894166,-0.79517,0.079818,0.027913,9.42,15.42,-37.32,256.5767,24.2909,2.813,55.814007,37.500294,203.3856,NaN,0.0,6.0,,22 / 25,,1167,2021-05-04 15:50:53:981
-0.335198,-4.268992,8.997684,-0.442636,-4.107094,8.894166,-0.79517,0.079818,0.027913,9.42,15.42,-37.32,256.5767,24.2909,2.813,55.814007,37.500294,203.3856,NaN,0.0,6.0,,22 / 25,,1177,2021-05-04 15:50:53:991
-0.289707,-4.233078,8.923462,-0.465187,-4.245246,8.827903,-0.756075,0.132353,0.019361,8.7,16.32,-37.74,256.5767,24.2909,2.813,55.814007,37.500294,203.3856,NaN,0.0,6.0,,22 / 25,,1187,2021-05-04 15:50:54:001
-0.768562,-4.173221,8.877971,-0.492032,-4.36487,8.767906,-0.615576,0.156787,0.090833,8.76,17.7,-37.56,256.5767,24.2909,2.813,55.814007,37.500294,203.3856,NaN,0.0,6.0,,22 / 25,,1198,2021-05-04 15:50:54:012
-0.768562,-4.173221,8.877971,-0.492032,-4.36487,8.767906,-0.615576,0.156787,0.090833,8.76,17.7,-37.56,256.5767,24.2909,2.813,55.814007,37.500294,203.3856,NaN,0.0,6.0,,22 / 25,,1208,2021-05-04 15:50:54:022
-0.742225,-4.11097,8.772623,-0.492032,-4.36487,8.767906,-0.492181,0.020564,0.204454,8.76,17.7,-37.56,256.5767,24.2909,2.813,55.814007,37.500294,203.3856,NaN,0.0,6.0,,22 / 25,,1217,2021-05-04 15:50:54:031
-0.421392,-4.106181,8.700794,-0.518938,-4.454826,8.720984,-0.455529,-0.027083,0.217893,9.06,17.7,-37.44,265.465,26.4293,3.2119,55.814007,37.500294,203.3856,NaN,0.0,6.0,,22 / 25,,1228,2021-05-04 15:50:54:042
-0.421392,-4.106181,8.700794,-0.518938,-4.454826,8.720984,-0.483018,-0.024029,0.185517,9.06,17.7,-37.44,265.465,26.4293,3.2119,55.814007,37.500294,203.3856,NaN,0.0,6.0,,22 / 25,,1238,2021-05-04 15:50:54:052
-0.481249,-4.233078,8.6984,-0.532699,-4.533399,8.679567,-0.563041,0.022397,0.151919,9.36,17.58,-37.14,265.465,26.4293,3.2119,55.814007,37.500294,203.3856,NaN,0.0,6.0,,22 / 25,,1248,2021-05-04 15:50:54:062
-0.512375,-4.563488,8.588264,-0.532699,-4.533399,8.679567,-0.687047,0.058438,0.142145,9.36,17.58,-37.14,265.465,26.4293,3.2119,55.814007,37.500294,203.3856,NaN,0.0,6.0,,22 / 25,,1257,2021-05-04 15:50:54:071
-0.790111,-4.534756,8.530801,-0.551478,-4.636373,8.62382,-0.757296,0.158009,0.151919,9.36,18.24,-36.72,258.5057,27.5342,3.5121,55.814007,37.500294,203.3856,NaN,0.0,6.0,,22 / 25,,1268,2021-05-04 15:50:54:082
-0.900247,-4.608979,8.566715,-0.551478,-4.636373,8.62382,-0.757296,0.158009,0.151919,9.36,18.24,-36.72,258.5057,27.5342,3.5121,55.814007,37.500294,203.3856,NaN,0.0,6.0,,22 / 25,,1278,2021-05-04 15:50:54:092
-0.900247,-4.608979,8.566715,-0.5907,-4.762522,8.552181,-0.749966,0.041944,0.109769,9.0,19.32,-36.54,258.5057,27.5342,3.5121,55.814007,37.500294,203.3856,NaN,0.0,6.0,,22 / 25,,1287,2021-05-04 15:50:54:101
-0.751802,-4.774184,8.561927,-0.598266,-4.825632,8.516203,-0.752409,0.040723,0.012642,9.0,19.32,-36.54,258.5057,27.5342,3.5121,55.814007,37.500294,203.3856,NaN,0.0,6.0,,22 / 25,,1297,2021-05-04 15:50:54:111
-0.811659,-4.817281,8.660092,-0.598266,-4.825632,8.516203,-0.743857,0.086538,-0.116251,8.82,20.04,-36.06,264.9487,29.4772,4.0184,55.814007,37.500294,203.3856,NaN,0.0,6.0,,22 / 25,,1307,2021-05-04 15:50:54:121
-0.811659,-4.817281,8.660092,-0.602159,-4.952189,8.442959,-0.694377,0.114027,-0.218876,8.82,20.04,-36.06,264.9487,29.4772,4.0184,55.814007,37.500294,203.3856,NaN,0.0,6.0,,22 / 25,,1317,2021-05-04 15:50:54:131
-0.847573,-5.06868,8.633755,-0.600025,-5.01034,8.408733,-0.624128,0.118913,-0.27141,8.94,20.16,-35.94,264.9487,29.4772,4.0184,55.814007,37.500294,203.3856,NaN,0.0,6.0,,22 / 25,,1327,2021-05-04 15:50:54:141
-0.95771,-5.05192,8.648121,-0.596656,-5.062235,8.377836,-0.550824,0.12319,-0.243311,9.42,20.46,-35.7,257.0012,30.7246,4.0816,55.814007,37.500294,203.3856,NaN,0.0,6.0,,22 / 25,,1338,2021-05-04 15:50:54:152
-0.95771,-5.05192,8.648121,-0.596656,-5.062235,8.377836,-0.373673,-0.044798,-0.105255,9.42,20.46,-35.7,257.0012,30.7246,4.0816,55.814007,37.500294,203.3856,NaN,0.0,6.0,,22 / 25,,1348,2021-05-04 15:50:54:162
-1.101366,-5.111777,8.545167,-0.589543,-5.14171,8.329803,-0.373673,-0.044798,-0.105255,9.66,20.88,-34.98,257.0012,30.7246,4.0816,55.814007,37.500294,203.3856,NaN,0.0,6.0,,22 / 25,,1357,2021-05-04 15:50:54:171
-0.67758,-4.778972,8.595447,-0.589543,-5.14171,8.329803,-0.370619,-0.126043,-0.069825,9.66,20.88,-34.98,257.0012,30.7246,4.0816,55.814007,37.500294,203.3856,NaN,0.0,6.0,,22 / 25,,1367,2021-05-04 15:50:54:181
-0.67758,-4.778972,8.595447,-0.564781,-5.205024,8.292112,-0.500122,-0.131541,-0.111975,9.6,21.42,-34.62,257.0012,30.7246,4.0816,55.814007,37.500294,203.3856,NaN,0.0,6.0,,22 / 25,,1377,2021-05-04 15:50:54:191
-0.531529,-4.915446,8.442213,-0.564781,-5.205024,8.292112,-0.785396,-0.058848,-0.193831,9.6,21.42,-34.62,257.0012,30.7246,4.0816,55.814007,37.500294,203.3856,NaN,0.0,6.0,,22 / 25,,1387,2021-05-04 15:50:54:201
-0.316044,-5.128536,8.372779,-0.53338,-5.316063,8.223463,-1.007751,-0.041744,-0.209102,9.42,21.78,-34.62,268.1517,32.0571,3.8964,55.814007,37.500294,203.3856,NaN,0.0,6.0,,22 / 25,,1398,2021-05-04 15:50:54:212
-0.59378,-5.566689,8.269825,-0.53338,-5.316063,8.223463,-1.200174,0.013845,-0.173061,9.42,21.78,-34.62,268.1517,32.0571,3.8964,55.814007,37.500294,203.3856,NaN,0.0,6.0,,22 / 25,,1408,2021-05-04 15:50:54:222
-0.59378,-5.566689,8.269825,-0.510728,-5.497223,8.104938,-1.31074,0.021175,-0.039893,9.12,22.44,-34.44,268.1517,32.0571,3.8964,55.814007,37.500294,203.3856,NaN,0.0,6.0,,22 / 25,,1417,2021-05-04 15:50:54:231
-0.581809,-5.796539,8.207574,-0.510728,-5.497223,8.104938,-1.31074,0.021175,-0.039893,9.12,22.44,-34.44,268.1517,32.0571,3.8964,55.814007,37.500294,203.3856,NaN,0.0,6.0,,22 / 25,,1438,2021-05-04 15:50:54:252
-0.581809,-5.796539,8.207574,-0.510728,-5.497223,8.104938,-1.31074,0.021175,-0.039893,9.12,22.44,-34.44,268.1517,32.0571,3.8964,55.814007,37.500294,203.3856,NaN,0.0,6.0,,22 / 25,,1438,2021-05-04 15:50:54:252
-0.565049,-5.827665,8.20518,-0.509337,-5.602277,8.032768,-1.277754,-0.045409,0.062122,8.88,23.1,-34.2,267.5567,34.0946,3.6057,55.814007,37.500294,203.3856,NaN,0.0,6.0,,22 / 25,,1447,2021-05-04 15:50:54:261
-0.723071,-5.552323,8.011244,-0.522453,-5.877741,7.832596,-0.944221,-0.104052,0.296694,9.12,24.6,-33.96,267.5567,34.0946,3.6057,55.814007,37.500294,203.3856,NaN,0.0,6.0,,22 / 25,,1457,2021-05-04 15:50:54:271
-0.723071,-5.552323,8.011244,-0.522453,-5.877741,7.832596,-0.935669,-0.146202,0.27226,9.12,24.6,-33.96,267.5567,34.0946,3.6057,55.814007,37.500294,203.3856,NaN,0.0,6.0,,22 / 25,,1468,2021-05-04 15:50:54:282
-0.85715,-5.351204,7.972935,-0.538808,-6.019164,7.72332,-0.935669,-0.146202,0.27226,9.24,24.48,-33.42,267.5567,34.0946,3.6057,55.814007,37.500294,203.3856,NaN,0.0,6.0,,22 / 25,,1477,2021-05-04 15:50:54:291
-1.053481,-5.435004,7.953781,-0.54194,-6.091192,7.666422,-0.981484,-0.125433,0.213006,9.36,24.6,-33.54,257.5015,37.8636,3.9907,55.814007,37.500294,203.3856,NaN,0.0,6.0,,25 / 26,,1487,2021-05-04 15:50:54:301
-1.053481,-5.435004,7.953781,-0.54194,-6.091192,7.666422,-0.985149,-0.080839,0.040131,9.36,24.6,-33.54,257.5015,37.8636,3.9907,55.814007,37.500294,203.3856,NaN,0.0,6.0,,25 / 26,,1498,2021-05-04 15:50:54:312
-0.967287,-6.349617,7.568303,-0.545113,-6.241074,7.544676,-0.927117,-0.044188,-0.014236,9.18,25.56,-32.88,257.5015,37.8636,3.9907,55.814007,37.500294,203.3856,NaN,0.0,6.0,,25 / 26,,1508,2021-05-04 15:50:54:322
-0.778139,-6.598621,7.369578,-0.545113,-6.241074,7.544676,-0.927117,-0.044188,-0.014236,9.18,25.56,-32.88,257.5015,37.8636,3.9907,55.814007,37.500294,203.3856,NaN,0.0,6.0,,25 / 26,,1517,2021-05-04 15:50:54:331
-0.778139,-6.598621,7.369578,-0.535874,-6.379,7.429098,-0.859311,-0.030749,-0.055775,9.54,26.28,-31.92,264.6668,39.5248,4.1325,55.814007,37.500294,203.3856,NaN,0.0,6.0,,25 / 26,,1527,2021-05-04 15:50:54:341
-0.835602,-6.8165,7.199585,-0.535874,-6.379,7.429098,-0.777455,-0.061903,-0.068603,9.54,26.28,-31.92,264.6668,39.5248,4.1325,55.814007,37.500294,203.3856,NaN,0.0,6.0,,25 / 26,,1538,2021-05-04 15:50:54:352
-0.696734,-6.632141,7.23071,-0.517284,-6.491084,7.332701,-0.621073,-0.135817,-0.068603,9.42,26.58,-31.74,264.6668,39.5248,4.1325,55.814007,37.500294,203.3856,NaN,0.0,6.0,,25 / 26,,1547,2021-05-04 15:50:54:361
-0.696734,-6.632141,7.23071,-0.517284,-6.491084,7.332701,-0.531276,-0.094278,-0.075323,9.42,26.58,-31.74,264.6668,39.5248,4.1325,55.814007,37.500294,203.3856,NaN,0.0,6.0,,25 / 26,,1557,2021-05-04 15:50:54:371
-0.464489,-5.918647,7.465349,-0.491394,-6.573413,7.260791,-0.524557,-0.044188,-0.056997,9.0,27.48,-31.74,255.4353,42.0904,3.8717,55.814007,37.500294,203.3856,NaN,0.0,6.0,,25 / 26,,1567,2021-05-04 15:50:54:381
-0.620117,-6.002447,7.656891,-0.483649,-6.611013,7.227097,-0.557543,-0.071676,-0.010571,9.18,27.72,-31.08,255.4353,42.0904,3.8717,55.814007,37.500294,203.3856,NaN,0.0,6.0,,25 / 26,,1577,2021-05-04 15:50:54:391
-0.620117,-6.002447,7.656891,-0.483649,-6.611013,7.227097,-0.557543,-0.071676,-0.010571,9.18,27.72,-31.08,255.4353,42.0904,3.8717,55.814007,37.500294,203.3856,NaN,0.0,6.0,,25 / 26,,1588,2021-05-04 15:50:54:402
-0.931373,-6.624958,7.585063,-0.473911,-6.691463,7.153324,-0.653449,-0.03197,0.045018,9.18,28.62,-30.96,255.4353,42.0904,3.8717,55.814007,37.500294,203.3856,NaN,0.0,6.0,,25 / 26,,1597,2021-05-04 15:50:54:411
-0.519558,-6.88354,7.336058,-0.477945,-6.740392,7.106966,-0.742636,0.021786,0.057235,8.82,28.86,-31.26,267.421,43.0267,3.7903,55.814007,37.500294,203.3856,NaN,0.0,6.0,,25 / 26,,1607,2021-05-04 15:50:54:421
-0.519558,-6.88354,7.336058,-0.477945,-6.740392,7.106966,-0.818994,0.061492,0.048072,8.82,28.86,-31.26,267.421,43.0267,3.7903,55.814007,37.500294,203.3856,NaN,0.0,6.0,,25 / 26,,1617,2021-05-04 15:50:54:431
-0.768562,-7.106208,7.125362,-0.493146,-6.852471,6.997908,-0.78845,0.035836,0.094498,8.64,29.34,-31.44,267.421,43.0267,3.7903,55.814007,37.500294,203.3856,NaN,0.0,6.0,,25 / 26,,1627,2021-05-04 15:50:54:441
-0.768562,-7.106208,7.125362,-0.493146,-6.852471,6.997908,-0.78845,0.035836,0.094498,8.64,29.34,-31.44,267.421,43.0267,3.7903,55.814007,37.500294,203.3856,NaN,0.0,6.0,,25 / 26,,1637,2021-05-04 15:50:54:451
-0.703917,-7.355212,6.912272,-0.512614,-6.960273,6.889279,-0.769514,0.058438,0.102439,8.7,30.18,-30.6,265.0464,44.3274,4.031,55.814007,37.500294,203.3856,NaN,0.0,6.0,,25 / 26,,1647,2021-05-04 15:50:54:461
-0.232245,-7.084659,6.964946,-0.523972,-7.012454,6.83529,-0.861143,0.081651,0.095109,8.94,30.0,-30.3,265.0464,44.3274,4.031,55.814007,37.500294,203.3856,NaN,0.0,6.0,,25 / 26,,1657,2021-05-04 15:50:54:471
-0.354353,-7.300143,6.754249,-0.523972,-7.012454,6.83529,-0.861143,0.081651,0.095109,8.94,30.0,-30.3,265.0464,44.3274,4.031,55.814007,37.500294,203.3856,NaN,0.0,6.0,,25 / 26,,1667,2021-05-04 15:50:54:481
-0.354353,-7.300143,6.754249,-0.549149,-7.128374,6.712305,-0.969877,0.036447,0.169634,9.0,30.42,-30.18,265.0464,44.3274,4.031,55.814007,37.500294,203.3856,NaN,0.0,6.0,,25 / 26,,1677,2021-05-04 15:50:54:491
-0.093377,-6.976917,6.818895,-0.549149,-7.128374,6.712305,-0.995534,-0.05274,0.163526,9.0,30.42,-30.18,265.0464,44.3274,4.031,55.814007,37.500294,203.3856,NaN,0.0,6.0,,25 / 26,,1687,2021-05-04 15:50:54:501
-0.428575,-7.101419,6.732701,-0.571835,-7.257198,6.570877,-0.952773,-0.126654,0.154363,9.06,30.42,-29.1,261.8959,46.6265,4.6771,55.814007,37.500294,203.3856,NaN,0.0,6.0,,25 / 26,,1697,2021-05-04 15:50:54:511
-0.72786,-7.553937,6.538765,-0.571835,-7.257198,6.570877,-0.921008,-0.13032,0.15253,9.06,30.42,-29.1,261.8959,46.6265,4.6771,55.814007,37.500294,203.3856,NaN,0.0,6.0,,25 / 26,,1708,2021-05-04 15:50:54:522
-0.72786,-7.553937,6.538765,-0.577396,-7.376539,6.436118,-0.895963,-0.087559,0.165358,9.48,31.02,-28.14,261.8959,46.6265,4.6771,55.814007,37.500294,203.3856,NaN,0.0,6.0,,25 / 26,,1717,2021-05-04 15:50:54:531
-0.952921,-7.644919,6.3568,-0.584399,-7.433139,6.370023,-0.8587,-0.13765,0.158639,9.6,31.44,-27.84,261.8959,46.6265,4.6771,55.814007,37.500294,203.3856,NaN,0.0,6.0,,25 / 26,,1727,2021-05-04 15:50:54:541
-0.545895,-7.767027,6.232298,-0.584399,-7.433139,6.370023,-0.702318,-0.446748,0.092054,9.6,31.44,-27.84,261.8959,46.6265,4.6771,55.814007,37.500294,203.3856,NaN,0.0,6.0,,25 / 26,,1737,2021-05-04 15:50:54:551
-0.545895,-7.767027,6.232298,-0.57394,-7.531541,6.25434,-0.693766,-0.475458,0.058457,9.48,32.28,-26.7,268.8575,49.2855,5.2418,55.814007,37.500294,203.3856,NaN,0.0,6.0,,25 / 26,,1747,2021-05-04 15:50:54:561
-0.351958,-7.391126,6.189201,-0.547262,-7.573418,6.205976,-0.693766,-0.475458,0.058457,9.9,32.76,-26.64,268.8575,49.2855,5.2418,55.814007,37.500294,203.3856,NaN,0.0,6.0,,25 / 26,,1757,2021-05-04 15:50:54:571
0.107742,-7.362395,6.148498,-0.547262,-7.573418,6.205976,-0.771957,-0.333127,0.028524,9.9,32.76,-26.64,268.8575,49.2855,5.2418,55.814007,37.500294,203.3856,NaN,0.0,6.0,,25 / 26,,1767,2021-05-04 15:50:54:581
0.107742,-7.362395,6.148498,-0.508532,-7.666392,6.094106,-0.837931,-0.296475,-0.008738,9.6,32.58,-26.88,268.8575,49.2855,5.2418,55.814007,37.500294,203.3856,NaN,0.0,6.0,,25 / 26,,1777,2021-05-04 15:50:54:591
-0.684763,-7.671256,6.122161,-0.508532,-7.666392,6.094106,-0.919786,-0.245162,0.049905,9.6,32.58,-26.88,268.8575,49.2855,5.2418,55.814007,37.500294,203.3856,NaN,0.0,6.0,,25 / 26,,1788,2021-05-04 15:50:54:602
-1.130098,-7.778999,6.129344,-0.480136,-7.7724,5.960663,-0.924673,-0.234778,0.148254,9.0,32.7,-26.52,261.1987,51.4215,4.7701,55.814007,37.500294,203.3856,NaN,0.0,6.0,,25 / 26,,1797,2021-05-04 15:50:54:611
-0.648848,-7.929838,5.832454,-0.477856,-7.82615,5.890104,-0.867252,-0.29281,0.177575,8.76,33.24,-26.34,261.1987,51.4215,4.7701,55.814007,37.500294,203.3856,NaN,0.0,6.0,,25 / 26,,1807,2021-05-04 15:50:54:621
-0.316044,-8.181237,5.478101,-0.477856,-7.82615,5.890104,-0.820215,-0.275705,0.125041,8.76,33.24,-26.34,261.1987,51.4215,4.7701,55.814007,37.500294,203.3856,NaN,0.0,6.0,,25 / 26,,1818,2021-05-04 15:50:54:632
-0.316044,-8.181237,5.478101,-0.469974,-7.922745,5.760167,-0.822048,-0.278149,0.08228,8.52,34.32,-25.68,261.1987,51.4215,4.7701,55.814007,37.500294,203.3856,NaN,0.0,6.0,,25 / 26,,1828,2021-05-04 15:50:54:642
-0.251399,-8.557138,5.504438,-0.469974,-7.922745,5.760167,-0.856257,-0.26471,0.062122,8.52,34.32,-25.68,261.1987,51.4215,4.7701,55.814007,37.500294,203.3856,NaN,0.0,6.0,,25 / 26,,1837,2021-05-04 15:50:54:651
-0.299284,-8.487704,5.497255,-0.450989,-8.015897,5.631361,-0.856257,-0.26471,0.062122,8.34,34.92,-25.26,269.7137,53.8908,4.6645,55.814007,37.500294,203.3856,NaN,0.0,6.0,,25 / 26,,1847,2021-05-04 15:50:54:661
0.055068,-7.975329,5.564295,-0.450989,-8.015897,5.631361,-0.899628,-0.211565,0.050516,8.34,34.92,-25.26,269.7137,53.8908,4.6645,55.814007,37.500294,203.3856,NaN,0.0,6.0,,25 / 26,,1857,2021-05-04 15:50:54:671
-0.512375,-7.980118,5.616969,-0.434499,-8.114226,5.490062,-0.883745,-0.209732,0.024859,7.8,35.1,-24.72,269.7137,53.8908,4.6645,55.814007,37.500294,203.3856,NaN,0.0,6.0,,25 / 26,,1867,2021-05-04 15:50:54:681
-0.512375,-7.980118,5.616969,-0.434499,-8.114226,5.490062,-0.900239,-0.192017,0.045629,7.8,35.1,-24.72,269.7137,53.8908,4.6645,55.814007,37.500294,203.3856,NaN,0.0,6.0,,25 / 26,,1877,2021-05-04 15:50:54:691
-0.553077,-8.013637,5.7295,-0.418392,-8.210218,5.346731,-0.887411,-0.20851,0.055402,7.92,35.46,-24.06,263.7773,55.8348,4.5251,55.814007,37.500294,203.3856,NaN,0.0,6.0,,25 / 26,,1887,2021-05-04 15:50:54:701
-0.196331,-8.008849,5.372753,-0.418392,-8.210218,5.346731,-0.845261,-0.221338,0.034022,7.92,35.46,-24.06,263.7773,55.8348,4.5251,55.814007,37.500294,203.3856,NaN,0.0,6.0,,25 / 26,,1897,2021-05-04 15:50:54:711
-0.03352,-7.917866,5.083046,-0.403076,-8.300649,5.206432,-0.785396,-0.185297,-0.023399,7.86,36.0,-23.34,263.7773,55.8348,4.5251,55.814007,37.500294,203.3856,NaN,0.0,6.0,,25 / 26,,1907,2021-05-04 15:50:54:721
-0.447729,-8.066312,5.114171,-0.403076,-8.300649,5.206432,-0.812274,-0.051518,-0.112586,7.86,36.0,-23.34,263.7773,55.8348,4.5251,55.814007,37.500294,203.3856,NaN,0.0,6.0,,25 / 26,,1917,2021-05-04 15:50:54:731
-0.447729,-8.066312,5.114171,-0.378882,-8.381834,5.076568,-0.861754,-0.025862,-0.126025,7.68,36.72,-23.04,261.7745,58.7277,4.2683,55.814007,37.500294,203.3856,NaN,0.0,6.0,,25 / 26,,1928,2021-05-04 15:50:54:742
-0.256187,-8.006455,5.095017,-0.378882,-8.381834,5.076568,-0.906958,-0.042355,-0.135188,7.68,36.72,-23.04,261.7745,58.7277,4.2683,55.814007,37.500294,203.3856,NaN,0.0,6.0,,25 / 26,,1937,2021-05-04 15:50:54:751
-0.138868,-7.977723,5.126143,-0.354333,-8.468754,4.932032,-0.906958,-0.042355,-0.135188,7.74,37.5,-22.5,261.7745,58.7277,4.2683,55.814007,37.500294,203.3856,NaN,0.0,6.0,,25 / 26,,1948,2021-05-04 15:50:54:762
-0.615329,-8.190814,5.05192,-0.354333,-8.468754,4.932032,-0.95033,-0.07412,-0.11564,7.74,37.5,-22.5,261.7745,58.7277,4.2683,55.814007,37.500294,203.3856,NaN,0.0,6.0,,25 / 26,,1957,2021-05-04 15:50:54:771
-0.500403,-8.648121,4.711933,-0.327421,-8.559833,4.774114,-0.950941,-0.141315,-0.10159,8.22,37.92,-21.66,267.4575,59.7202,4.1092,55.814007,37.500294,203.3856,NaN,0.0,6.0,,25 / 26,,1967,2021-05-04 15:50:54:781
-0.500403,-8.648121,4.711933,-0.327421,-8.559833,4.774114,-0.906958,-0.218895,-0.100368,8.22,37.92,-21.66,267.4575,59.7202,4.1092,55.814007,37.500294,203.3856,NaN,0.0,6.0,,25 / 26,,1977,2021-05-04 15:50:54:791
-0.653637,-8.952193,4.417437,-0.292294,-8.646285,4.618061,-0.856867,-0.223782,-0.090594,8.46,37.92,-21.3,267.4575,59.7202,4.1092,55.814007,37.500294,203.3856,NaN,0.0,6.0,,25 / 26,,1987,2021-05-04 15:50:54:801
-0.533923,-9.268238,4.314483,-0.292294,-8.646285,4.618061,-0.888021,-0.157198,-0.093038,8.46,37.92,-21.3,267.4575,59.7202,4.1092,55.814007,37.500294,203.3856,NaN,0.0,6.0,,25 / 26,,1998,2021-05-04 15:50:54:812
-0.316044,-9.074302,4.249838,-0.25938,-8.725553,4.468519,-0.961936,-0.162695,-0.077766,8.34,38.58,-21.54,252.2104,62.8431,3.3221,55.814007,37.500294,203.3856,NaN,0.0,6.0,,25 / 26,,2007,2021-05-04 15:50:54:821
-0.339987,-8.722343,4.422226,-0.25938,-8.725553,4.468519,-1.013249,-0.177967,-0.047223,8.34,38.58,-21.54,252.2104,62.8431,3.3221,55.814007,37.500294,203.3856,NaN,0.0,6.0,,25 / 26,,2017,2021-05-04 15:50:54:831
-0.339987,-8.722343,4.422226,-0.233859,-8.812017,4.296952,-1.024855,-0.166971,-0.015458,8.1,39.12,-20.7,252.2104,62.8431,3.3221,55.814007,37.500294,203.3856,NaN,0.0,6.0,,25 / 26,,2027,2021-05-04 15:50:54:841
-0.572232,-8.490098,4.690385,-0.233859,-8.812017,4.296952,-1.010805,-0.128487,0.019361,8.1,39.12,-20.7,252.2104,62.8431,3.3221,55.814007,37.500294,203.3856,NaN,0.0,6.0,,25 / 26,,2037,2021-05-04 15:50:54:851
-0.605751,-8.382355,4.534757,-0.221213,-8.897424,4.117905,-0.967434,-0.121767,0.043796,7.44,38.88,-19.44,267.35,63.9716,3.1152,55.814007,37.500294,203.3856,NaN,0.0,6.0,,25 / 26,,2047,2021-05-04 15:50:54:861
-0.287313,-8.444607,4.403072,-0.221213,-8.897424,4.117905,-0.864809,-0.163306,0.028524,7.44,38.88,-19.44,267.35,63.9716,3.1152,55.814007,37.500294,203.3856,NaN,0.0,6.0,,25 / 26,,2058,2021-05-04 15:50:54:872
-0.287313,-8.444607,4.403072,-0.217426,-8.971421,3.954297,-0.797003,-0.121767,-0.024621,7.2,39.3,-18.54,267.35,63.9716,3.1152,55.814007,37.500294,203.3856,NaN,0.0,6.0,,25 / 26,,2067,2021-05-04 15:50:54:881
-0.062251,-8.707977,4.115759,-0.217426,-8.971421,3.954297,-0.831822,-0.093668,-0.055775,7.2,39.3,-18.54,267.35,63.9716,3.1152,55.814007,37.500294,203.3856,NaN,0.0,6.0,,25 / 26,,2077,2021-05-04 15:50:54:891
0.007183,-9.296969,3.55071,-0.203437,-9.033603,3.810907,-0.925895,-0.149867,-0.041114,7.2,39.9,-17.94,263.91,66.1818,3.1472,55.814007,37.500294,203.3856,NaN,0.0,6.0,,25 / 26,,2088,2021-05-04 15:50:54:902
-0.146051,-9.397529,3.632115,-0.203437,-9.033603,3.810907,-1.003475,-0.229891,0.008977,7.2,39.9,-17.94,263.91,66.1818,3.1472,55.814007,37.500294,203.3856,NaN,0.0,6.0,,25 / 26,,2097,2021-05-04 15:50:54:911
-0.529135,-9.493299,3.387899,-0.185903,-9.102684,3.643743,-1.045014,-0.298918,0.078615,7.2,40.38,-17.1,263.91,66.1818,3.1472,55.814007,37.500294,203.3856,NaN,0.0,6.0,,25 / 26,,2107,2021-05-04 15:50:54:921
-0.529135,-9.493299,3.387899,-0.185903,-9.102684,3.643743,-1.044403,-0.34229,0.128095,7.2,40.38,-17.1,263.91,66.1818,3.1472,55.814007,37.500294,203.3856,NaN,0.0,6.0,,25 / 26,,2117,2021-05-04 15:50:54:931
-0.632089,-9.845258,3.18678,-0.179588,-9.175764,3.455886,-1.044403,-0.323964,0.169023,7.02,41.04,-16.02,270.8394,68.1584,2.9207,55.814007,37.500294,203.3856,NaN,0.0,6.0,,25 / 26,,2127,2021-05-04 15:50:54:941
-0.155628,-9.917087,2.827639,-0.179588,-9.175764,3.455886,-1.076168,-0.290977,0.173299,7.02,41.04,-16.02,270.8394,68.1584,2.9207,55.814007,37.500294,203.3856,NaN,0.0,6.0,,25 / 26,,2137,2021-05-04 15:50:54:951
0.074223,-9.93624,2.640885,-0.189255,-9.245565,3.26402,-1.139698,-0.353896,0.162915,6.96,41.22,-16.38,270.8394,68.1584,2.9207,55.814007,37.500294,203.3856,NaN,0.0,6.0,,25 / 26,,2147,2021-05-04 15:50:54:961
0.064645,-9.847652,2.92341,-0.189255,-9.245565,3.26402,-1.266758,-0.400933,0.161082,6.96,41.22,-16.38,270.8394,68.1584,2.9207,55.814007,37.500294,203.3856,NaN,0.0,6.0,,25 / 26,,2157,2021-05-04 15:50:54:971
0.011971,-9.615408,2.961718,-0.196808,-9.318116,3.050256,-1.393818,-0.380163,0.178186,7.2,40.98,-16.2,253.7056,70.5249,3.3184,55.814007,37.500294,203.3856,NaN,0.0,6.0,,25 / 26,,2167,2021-05-04 15:50:54:981
0.011971,-9.615408,2.961718,-0.196808,-9.318116,3.050256,-1.483615,-0.343511,0.188571,7.2,40.98,-16.2,253.7056,70.5249,3.3184,55.814007,37.500294,203.3856,NaN,0.0,6.0,,25 / 26,,2178,2021-05-04 15:50:54:992
-0.076617,-9.498088,2.808484,-0.207614,-9.398985,2.790351,-1.472619,-0.262266,0.205064,7.32,41.64,-14.7,253.7056,70.5249,3.3184,55.814007,37.500294,203.3856,NaN,0.0,6.0,,25 / 26,,2187,2021-05-04 15:50:55:001
-0.383084,-9.45978,2.494835,-0.207614,-9.398985,2.790351,-1.377935,-0.234167,0.195901,7.32,41.64,-14.7,253.7056,70.5249,3.3184,55.814007,37.500294,203.3856,NaN,0.0,6.0,,25 / 26,,2197,2021-05-04 15:50:55:011
-0.385478,-9.634562,1.9657,-0.231865,-9.475265,2.517079,-1.307686,-0.284258,0.163526,6.66,43.02,-13.26,263.7944,73.4218,4.2552,55.814007,37.500294,203.3856,NaN,0.0,6.0,,25 / 26,,2208,2021-05-04 15:50:55:022
-0.141262,-9.414289,2.133299,-0.231865,-9.475265,2.517079,-1.280197,-0.246384,0.140924,6.66,43.02,-13.26,263.7944,73.4218,4.2552,55.814007,37.500294,203.3856,NaN,0.0,6.0,,25 / 26,,2217,2021-05-04 15:50:55:031
-0.141262,-9.414289,2.133299,-0.249766,-9.536861,2.27069,-1.285084,-0.162695,0.101828,6.24,43.44,-11.76,263.7944,73.4218,4.2552,55.814007,37.500294,203.3856,NaN,0.0,6.0,,25 / 26,,2227,2021-05-04 15:50:55:041
-0.335198,-9.29218,2.116539,-0.249766,-9.536861,2.27069,-1.285695,-0.122989,0.069452,6.24,43.44,-11.76,263.7944,73.4218,4.2552,55.814007,37.500294,203.3856,NaN,0.0,6.0,,25 / 26,,2238,2021-05-04 15:50:55:052
-0.409421,-9.244295,2.188367,-0.261875,-9.591269,2.027125,-1.301577,-0.110161,0.054792,6.48,42.96,-10.98,255.2372,76.5296,6.277,55.814007,37.500294,203.3856,NaN,0.0,6.0,,25 / 26,,2247,2021-05-04 15:50:55:061
-0.409421,-9.244295,2.188367,-0.261875,-9.591269,2.027125,-1.301577,-0.110161,0.054792,6.48,42.96,-10.98,255.2372,76.5296,6.277,55.814007,37.500294,203.3856,NaN,0.0,6.0,,25 / 26,,2257,2021-05-04 15:50:55:071
-0.320833,-9.414289,2.018374,-0.265287,-9.616372,1.90394,-1.328455,-0.124822,0.057235,6.6,43.26,-10.56,255.2372,76.5296,6.277,55.814007,37.500294,203.3856,NaN,0.0,6.0,,25 / 26,,2267,2021-05-04 15:50:55:081
-0.517163,-9.62259,1.908237,-0.265287,-9.616372,1.90394,-1.410922,-0.08817,0.109769,6.6,43.26,-10.56,255.2372,76.5296,6.277,55.814007,37.500294,203.3856,NaN,0.0,6.0,,25 / 26,,2277,2021-05-04 15:50:55:091
-0.517163,-9.62259,1.908237,-0.280904,-9.6855,1.510736,-1.402981,-0.030749,0.104272,7.14,43.86,-8.88,259.4182,78.6955,7.9323,55.814007,37.500294,203.3856,NaN,0.0,6.0,,25 / 26,,2287,2021-05-04 15:50:55:101
-0.205908,-9.268238,1.582616,-0.291554,-9.705321,1.375447,-1.40237,-0.00326,0.086557,7.14,43.98,-7.98,259.4182,78.6955,7.9323,55.814007,37.500294,203.3856,NaN,0.0,6.0,,25 / 26,,2297,2021-05-04 15:50:55:111
-0.117319,-9.093455,1.122915,-0.291554,-9.705321,1.375447,-1.381601,-2.05E-4,0.0328,7.14,43.98,-7.98,259.4182,78.6955,7.9323,55.814007,37.500294,203.3856,NaN,0.0,6.0,,25 / 26,,2307,2021-05-04 15:50:55:121
-0.234639,-9.368797,0.837996,-0.304431,-9.739319,1.10587,-1.374881,-0.084505,-0.002019,6.48,44.28,-6.0,259.4182,78.6955,7.9323,55.814007,37.500294,203.3856,NaN,0.0,6.0,,25 / 26,,2317,2021-05-04 15:50:55:131
-0.234639,-9.368797,0.837996,-0.304431,-9.739319,1.10587,-1.366329,-0.17308,-0.017901,6.48,44.28,-6.0,259.4182,78.6955,7.9323,55.814007,37.500294,203.3856,NaN,0.0,6.0,,25 / 26,,2328,2021-05-04 15:50:55:142
-0.462095,-9.447808,0.955316,-0.30041,-9.7659,0.840921,-1.329066,-0.161474,-0.00996,6.6,44.4,-4.74,254.6693,83.2832,15.3915,55.814007,37.500294,203.3856,NaN,0.0,6.0,,25 / 26,,2337,2021-05-04 15:50:55:151
-0.421392,-9.464568,0.92419,-0.30041,-9.7659,0.840921,-1.329066,-0.161474,-0.00996,6.6,44.4,-4.74,254.6693,83.2832,15.3915,55.814007,37.500294,203.3856,NaN,0.0,6.0,,25 / 26,,2347,2021-05-04 15:50:55:161
-0.830813,-9.857229,0.919402,-0.296211,-9.784834,0.582592,-1.253319,-0.17308,0.012031,7.38,44.94,-3.48,254.6693,83.2832,15.3915,55.814007,37.500294,203.3856,NaN,0.0,6.0,,25 / 26,,2357,2021-05-04 15:50:55:171
-0.830813,-9.857229,0.919402,-0.296211,-9.784834,0.582592,-1.167798,-0.178578,0.054792,7.38,44.94,-3.48,254.6693,83.2832,15.3915,55.814007,37.500294,203.3856,NaN,0.0,6.0,,25 / 26,,2367,2021-05-04 15:50:55:181
-0.701522,-10.343267,0.356747,-0.303407,-9.79561,0.351966,-1.12015,-0.196904,0.097552,6.9,45.18,-3.06,239.8493,86.1787,26.9505,55.814007,37.500294,203.3856,NaN,0.0,6.0,,25 / 26,,2378,2021-05-04 15:50:55:192
-0.435758,-9.941029,0.158022,-0.303407,-9.79561,0.351966,-1.139698,-0.235999,0.133593,6.9,45.18,-3.06,239.8493,86.1787,26.9505,55.814007,37.500294,203.3856,NaN,0.0,6.0,,25 / 26,,2388,2021-05-04 15:50:55:202
-0.392661,-9.438231,0.33041,-0.326998,-9.800279,0.133026,-1.154359,-0.210954,0.146421,7.02,45.42,-2.52,239.8493,86.1787,26.9505,55.814007,37.500294,203.3856,NaN,0.0,6.0,,25 / 26,,2397,2021-05-04 15:50:55:211
-0.392661,-9.438231,0.33041,-0.326998,-9.800279,0.133026,-1.114653,-0.096722,0.115878,7.02,45.42,-2.52,239.8493,86.1787,26.9505,55.814007,37.500294,203.3856,NaN,0.0,6.0,,25 / 27,,2407,2021-05-04 15:50:55:221
-0.143656,-9.574705,-0.217879,-0.352495,-9.799928,-0.086106,-1.076168,-0.082672,0.079226,7.08,45.42,-1.14,198.0994,87.9369,67.863,55.814007,37.500294,203.3856,NaN,0.0,6.0,,25 / 27,,2417,2021-05-04 15:50:55:231
-0.301679,-9.888355,-0.509981,-0.352495,-9.799928,-0.086106,-1.045014,-0.126043,0.05357,7.08,45.42,-1.14,198.0994,87.9369,67.863,55.814007,37.500294,203.3856,NaN,0.0,6.0,,25 / 27,,2428,2021-05-04 15:50:55:242
-0.337593,-10.156514,-0.696734,-0.365986,-9.795454,-0.29164,-1.074335,-0.143759,0.034633,6.9,45.66,0.06,198.0994,87.9369,67.863,55.814007,37.500294,203.3856,NaN,0.0,6.0,,25 / 27,,2437,2021-05-04 15:50:55:251
-0.337593,-10.156514,-0.696734,-0.365986,-9.795454,-0.29164,-1.153137,-0.115659,0.049905,6.9,45.66,0.06,198.0994,87.9369,67.863,55.814007,37.500294,203.3856,NaN,0.0,6.0,,25 / 27,,2447,2021-05-04 15:50:55:261
-0.474066,-10.173274,-0.591386,-0.3761,-9.786364,-0.505492,-1.273477,-0.05274,0.089,7.38,45.6,1.38,137.4147,87.2648,128.55,55.814007,37.500294,203.3856,NaN,0.0,6.0,,25 / 27,,2457,2021-05-04 15:50:55:271
-0.584203,-9.792584,-0.572232,-0.3761,-9.786364,-0.505492,-1.359609,0.004682,0.118932,7.38,45.6,1.38,137.4147,87.2648,128.55,55.814007,37.500294,203.3856,NaN,0.0,6.0,,25 / 27,,2467,2021-05-04 15:50:55:281
-0.584203,-9.792584,-0.572232,-0.395003,-9.769345,-0.757469,-1.359609,0.004682,0.118932,7.2,45.6,2.88,137.4147,87.2648,128.55,55.814007,37.500294,203.3856,NaN,0.0,6.0,,25 / 27,,2477,2021-05-04 15:50:55:291
-0.466884,-9.646533,-0.658426,-0.395003,-9.769345,-0.757469,-1.371216,0.099977,0.112824,7.2,45.6,2.88,137.4147,87.2648,128.55,55.814007,37.500294,203.3856,NaN,0.0,6.0,,25 / 27,,2488,2021-05-04 15:50:55:302
-0.438152,-9.529214,-1.051087,-0.416364,-9.744003,-1.025208,-1.278975,0.168394,0.087778,7.14,46.32,3.6,122.2619,85.0025,152.459,55.814007,37.500294,203.3856,NaN,0.0,6.0,,25 / 27,,2497,2021-05-04 15:50:55:311
-0.438152,-9.529214,-1.051087,-0.416364,-9.744003,-1.025208,-1.175739,0.201991,0.041353,7.14,46.32,3.6,122.2619,85.0025,152.459,55.814007,37.500294,203.3856,NaN,0.0,6.0,,25 / 27,,2508,2021-05-04 15:50:55:322
-0.344776,-9.596253,-1.359948,-0.422989,-9.716073,-1.260588,-1.125037,0.220928,0.019361,7.68,46.38,4.02,122.2619,85.0025,152.459,55.814007,37.500294,203.3856,NaN,0.0,6.0,,25 / 27,,2517,2021-05-04 15:50:55:331
-0.24661,-9.550762,-1.640078,-0.422989,-9.716073,-1.260588,-1.101824,0.272241,-0.025843,7.68,46.38,4.02,122.2619,85.0025,152.459,55.814007,37.500294,203.3856,NaN,0.0,6.0,,25 / 27,,2527,2021-05-04 15:50:55:341
-0.292102,-9.799767,-1.970488,-0.413393,-9.686275,-1.474939,-1.145196,0.256969,-0.05211,7.14,45.66,5.1,97.5156,82.2074,161.4509,55.814007,37.500294,203.3856,NaN,0.0,6.0,,25 / 27,,2537,2021-05-04 15:50:55:351
-0.615329,-10.125388,-2.099779,-0.404601,-9.669212,-1.585117,-1.189178,0.22215,-0.047223,7.2,45.48,5.7,97.5156,82.2074,161.4509,55.814007,37.500294,203.3856,NaN,0.0,6.0,,25 / 27,,2547,2021-05-04 15:50:55:361
-0.615329,-10.125388,-2.099779,-0.404601,-9.669212,-1.585117,-1.232549,0.196493,-0.017291,7.2,45.48,5.7,97.5156,82.2074,161.4509,55.814007,37.500294,203.3856,NaN,0.0,6.0,,25 / 27,,2557,2021-05-04 15:50:55:371
-1.072635,-10.324113,-2.193156,-0.390443,-9.628597,-1.818685,-1.261871,0.157398,0.065787,7.38,45.9,7.02,97.5156,82.2074,161.4509,55.814007,37.500294,203.3856,NaN,0.0,6.0,,25 / 27,,2567,2021-05-04 15:50:55:381
-0.622511,-10.060742,-2.171607,-0.390443,-9.628597,-1.818685,-1.21911,0.110972,0.085946,7.38,45.9,7.02,97.5156,82.2074,161.4509,55.814007,37.500294,203.3856,NaN,0.0,6.0,,25 / 27,,2577,2021-05-04 15:50:55:391
-0.361535,-9.646533,-2.202733,-0.395442,-9.579819,-2.059278,-1.131146,0.057216,0.067009,7.14,45.24,7.86,96.4819,79.0659,167.8834,55.814007,37.500294,203.3856,NaN,0.0,6.0,,25 / 27,,2587,2021-05-04 15:50:55:401
-0.555472,-9.581888,-2.513988,-0.395442,-9.579819,-2.059278,-1.065783,0.020564,0.070674,7.14,45.24,7.86,96.4819,79.0659,167.8834,55.814007,37.500294,203.3856,NaN,0.0,6.0,,25 / 27,,2598,2021-05-04 15:50:55:412
-0.555472,-9.581888,-2.513988,-0.406398,-9.530771,-2.273593,-1.076168,-0.008146,0.090833,6.96,45.42,9.3,96.4819,79.0659,167.8834,55.814007,37.500294,203.3856,NaN,0.0,6.0,,25 / 27,,2607,2021-05-04 15:50:55:421
-0.28013,-9.344854,-2.978478,-0.406398,-9.530771,-2.273593,-1.164743,-0.082672,0.114045,6.96,45.42,9.3,96.4819,79.0659,167.8834,55.814007,37.500294,203.3856,NaN,0.0,6.0,,25 / 27,,2617,2021-05-04 15:50:55:431
-0.035914,-9.287392,-2.707925,-0.425561,-9.478242,-2.480249,-1.259428,-0.113215,0.128095,7.26,45.48,10.02,91.8513,76.3779,169.8656,55.814007,37.500294,203.3856,NaN,0.0,6.0,,25 / 27,,2628,2021-05-04 15:50:55:442
-0.275342,-9.474146,-2.272167,-0.425561,-9.478242,-2.480249,-1.332731,-0.01792,0.130539,7.26,45.48,10.02,91.8513,76.3779,169.8656,55.814007,37.500294,203.3856,NaN,0.0,6.0,,25 / 27,,2637,2021-05-04 15:50:55:451
-0.581809,-9.529214,-2.185973,-0.454242,-9.411687,-2.717323,-1.379157,0.27163,0.147032,7.5,45.24,11.04,91.8513,76.3779,169.8656,55.814007,37.500294,203.3856,NaN,0.0,6.0,,25 / 27,,2647,2021-05-04 15:50:55:461
-0.66082,-9.462174,-2.497228,-0.454242,-9.411687,-2.717323,-1.366329,0.454889,0.154973,7.5,45.24,11.04,91.8513,76.3779,169.8656,55.814007,37.500294,203.3856,NaN,0.0,6.0,,25 / 27,,2659,2021-05-04 15:50:55:473
-0.66082,-9.462174,-2.497228,-0.465702,-9.332856,-2.975052,-1.238658,0.612493,0.126263,7.44,44.64,12.3,87.9615,73.684,170.5099,55.814007,37.500294,203.3856,NaN,0.0,6.0,,25 / 27,,2668,2021-05-04 15:50:55:482
-0.718282,-9.500483,-3.076643,-0.465702,-9.332856,-2.975052,-1.182459,0.595388,0.128706,7.44,44.64,12.3,87.9615,73.684,170.5099,55.814007,37.500294,203.3856,NaN,0.0,6.0,,25 / 27,,2677,2021-05-04 15:50:55:491
-0.715888,-9.498088,-3.261002,-0.452949,-9.254635,-3.211948,-1.182459,0.595388,0.128706,7.02,43.98,13.26,87.9615,73.684,170.5099,55.814007,37.500294,203.3856,NaN,0.0,6.0,,25 / 27,,2687,2021-05-04 15:50:55:501
-0.641666,-9.225141,-3.234665,-0.452949,-9.254635,-3.211948,-1.205061,0.583171,0.160471,7.02,43.98,13.26,87.9615,73.684,170.5099,55.814007,37.500294,203.3856,NaN,0.0,6.0,,25 / 27,,2697,2021-05-04 15:50:55:511
-0.641666,-9.225141,-3.234665,-0.442669,-9.174158,-3.436434,-1.238658,0.591723,0.198956,6.66,44.52,14.28,79.9761,70.6845,171.9731,55.814007,37.500294,203.3856,NaN,0.0,6.0,,25 / 27,,2707,2021-05-04 15:50:55:521
-0.708705,-9.227535,-3.268185,-0.442669,-9.174158,-3.436434,-1.261871,0.614936,0.242327,6.66,44.52,14.28,79.9761,70.6845,171.9731,55.814007,37.500294,203.3856,NaN,0.0,6.0,,25 / 27,,2718,2021-05-04 15:50:55:532
-0.469278,-9.201198,-3.469304,-0.441063,-9.083663,-3.669121,-1.265536,0.633262,0.270427,7.5,44.82,14.76,79.9761,70.6845,171.9731,55.814007,37.500294,203.3856,NaN,0.0,6.0,,25 / 27,,2727,2021-05-04 15:50:55:541
-0.141262,-9.069513,-3.742252,-0.441063,-9.083663,-3.669121,-1.222165,0.628375,0.271038,7.5,44.82,14.76,79.9761,70.6845,171.9731,55.814007,37.500294,203.3856,NaN,0.0,6.0,,25 / 27,,2737,2021-05-04 15:50:55:551
-0.191542,-9.11261,-4.312089,-0.441976,-8.989128,-3.894853,-1.143974,0.586225,0.245992,8.16,44.28,16.86,89.3954,67.8619,173.1454,55.814007,37.500294,203.3856,NaN,0.0,6.0,,25 / 27,,2747,2021-05-04 15:50:55:561
-0.191542,-9.11261,-4.312089,-0.441976,-8.989128,-3.894853,-1.008973,0.422514,0.196512,8.16,44.28,16.86,89.3954,67.8619,173.1454,55.814007,37.500294,203.3856,NaN,0.0,6.0,,25 / 27,,2757,2021-05-04 15:50:55:571
-0.52674,-8.909097,-4.508419,-0.442516,-8.905297,-4.082892,-0.916732,0.238032,0.190404,7.56,43.68,18.3,89.3954,67.8619,173.1454,55.814007,37.500294,203.3856,NaN,0.0,6.0,,25 / 27,,2768,2021-05-04 15:50:55:582
-0.565049,-9.086273,-4.189981,-0.442516,-8.905297,-4.082892,-0.850148,0.119524,0.200177,7.56,43.68,18.3,89.3954,67.8619,173.1454,55.814007,37.500294,203.3856,NaN,0.0,6.0,,25 / 27,,2777,2021-05-04 15:50:55:591
-0.541106,-9.031204,-3.665635,-0.464721,-8.831547,-4.237689,-0.863587,0.196493,0.222169,7.38,43.86,18.48,73.4585,65.2425,173.8143,55.814007,37.500294,203.3856,NaN,0.0,6.0,,25 / 27,,2787,2021-05-04 15:50:55:601
-0.435758,-8.9498,-3.668029,-0.464721,-8.831547,-4.237689,-0.896574,0.365092,0.245382,7.38,43.86,18.48,73.4585,65.2425,173.8143,55.814007,37.500294,203.3856,NaN,0.0,6.0,,25 / 27,,2797,2021-05-04 15:50:55:611
-0.435758,-8.9498,-3.668029,-0.477025,-8.753273,-4.395756,-0.911234,0.666249,0.264318,7.68,43.8,19.02,73.4585,65.2425,173.8143,55.814007,37.500294,203.3856,NaN,0.0,6.0,,25 / 27,,2807,2021-05-04 15:50:55:621
-0.407027,-8.980925,-4.168432,-0.477025,-8.753273,-4.395756,-0.884356,0.814078,0.264318,7.68,43.8,19.02,73.4585,65.2425,173.8143,55.814007,37.500294,203.3856,NaN,0.0,6.0,,25 / 27,,2817,2021-05-04 15:50:55:631
-0.38069,-8.904308,-5.236279,-0.454817,-8.671412,-4.557388,-0.891076,0.80858,0.274703,7.62,43.2,20.16,81.4658,63.2002,173.8065,55.814007,37.500294,203.3856,NaN,0.0,6.0,,25 / 27,,2827,2021-05-04 15:50:55:641
-0.335198,-8.710372,-5.894704,-0.454817,-8.671412,-4.557388,-0.911234,0.587447,0.277757,7.62,43.2,20.16,81.4658,63.2002,173.8065,55.814007,37.500294,203.3856,NaN,0.0,6.0,,25 / 27,,2837,2021-05-04 15:50:55:651
-0.483643,-8.506859,-5.995264,-0.436441,-8.5861,-4.717862,-0.944832,0.324164,0.27959,7.86,43.44,21.06,81.4658,63.2002,173.8065,55.814007,37.500294,203.3856,NaN,0.0,6.0,,25 / 27,,2847,2021-05-04 15:50:55:661
-0.483643,-8.506859,-5.995264,-0.436441,-8.5861,-4.717862,-0.953384,0.223982,0.27959,7.86,43.44,21.06,81.4658,63.2002,173.8065,55.814007,37.500294,203.3856,NaN,0.0,6.0,,25 / 27,,2857,2021-05-04 15:50:55:671
-0.761379,-8.597841,-5.789356,-0.455149,-8.493027,-4.881718,-0.94361,0.17267,0.295472,8.04,42.84,22.08,80.913,61.1091,174.7147,55.814007,37.500294,203.3856,NaN,0.0,6.0,,25 / 27,,2867,2021-05-04 15:50:55:681
-0.967287,-8.691217,-5.882733,-0.455149,-8.493027,-4.881718,-0.942999,0.114027,0.342509,8.04,42.84,22.08,80.913,61.1091,174.7147,55.814007,37.500294,203.3856,NaN,0.0,6.0,,25 / 27,,2877,2021-05-04 15:50:55:691
-0.579414,-8.298556,-5.794145,-0.491746,-8.396438,-5.042608,-0.970488,0.078596,0.372442,7.98,41.52,23.28,80.913,61.1091,174.7147,55.814007,37.500294,203.3856,NaN,0.0,6.0,,25 / 27,,2887,2021-05-04 15:50:55:701
-0.138868,-7.939415,-5.39909,-0.491746,-8.396438,-5.042608,-0.986982,0.044999,0.373052,7.98,41.52,23.28,80.913,61.1091,174.7147,55.814007,37.500294,203.3856,NaN,0.0,6.0,,25 / 27,,2897,2021-05-04 15:50:55:711
-0.138868,-7.939415,-5.39909,-0.547126,-8.292648,-5.206006,-0.92895,0.008347,0.332124,7.86,41.7,23.88,84.0968,58.8926,174.4302,55.814007,37.500294,203.3856,NaN,0.0,6.0,,25 / 27,,2907,2021-05-04 15:50:55:721
-0.160416,-8.10462,-5.128536,-0.547126,-8.292648,-5.206006,-0.835487,0.033392,0.293029,7.86,41.7,23.88,84.0968,58.8926,174.4302,55.814007,37.500294,203.3856,NaN,0.0,6.0,,25 / 27,,2917,2021-05-04 15:50:55:731
-0.323227,-8.310528,-4.944177,-0.598207,-8.194545,-5.353631,-0.734083,0.088981,0.254545,8.28,41.7,25.32,84.0968,58.8926,174.4302,55.814007,37.500294,203.3856,NaN,0.0,6.0,,25 / 27,,2927,2021-05-04 15:50:55:741
0.007183,-8.320104,-3.373533,-0.598207,-8.194545,-5.353631,-0.572815,0.354707,0.176965,8.28,41.7,25.32,84.0968,58.8926,174.4302,55.814007,37.500294,203.3856,NaN,0.0,6.0,,25 / 27,,2937,2021-05-04 15:50:55:751
-0.498009,-8.413482,-4.371946,-0.615772,-8.118006,-5.46705,-0.480574,0.522695,0.139091,8.82,41.1,25.62,82.6358,55.8743,173.5737,55.814007,37.500294,203.3856,NaN,0.0,6.0,,25 / 27,,2948,2021-05-04 15:50:55:762
-0.498009,-8.413482,-4.371946,-0.615772,-8.118006,-5.46705,-0.531887,0.655864,0.169634,8.82,41.1,25.62,82.6358,55.8743,173.5737,55.814007,37.500294,203.3856,NaN,0.0,6.0,,25 / 27,,2957,2021-05-04 15:50:55:771
-0.785322,-8.22194,-5.774991,-0.577657,-8.062141,-5.55323,-0.633291,0.636927,0.220947,8.58,40.14,24.9,82.6358,55.8743,173.5737,55.814007,37.500294,203.3856,NaN,0.0,6.0,,25 / 27,,2967,2021-05-04 15:50:55:781
-0.36393,-8.05434,-6.617775,-0.577657,-8.062141,-5.55323,-0.739581,0.58928,0.233164,8.58,40.14,24.9,82.6358,55.8743,173.5737,55.814007,37.500294,203.3856,NaN,0.0,6.0,,25 / 27,,2978,2021-05-04 15:50:55:792
-0.031126,-7.728719,-7.178035,-0.543994,-7.98481,-5.667156,-0.783564,0.462831,0.202621,8.1,39.36,26.28,87.1396,55.2966,174.0613,55.814007,37.500294,203.3856,NaN,0.0,6.0,,25 / 27,,2987,2021-05-04 15:50:55:801
-0.129291,-7.697593,-7.312115,-0.543994,-7.98481,-5.667156,-0.861143,0.251471,0.156195,8.1,39.36,26.28,87.1396,55.2966,174.0613,55.814007,37.500294,203.3856,NaN,0.0,6.0,,25 / 27,,2997,2021-05-04 15:50:55:811
-0.129291,-7.697593,-7.312115,-0.528601,-7.89065,-5.798983,-0.972321,0.103031,0.143367,8.04,39.06,27.12,87.1396,55.2966,174.0613,55.814007,37.500294,203.3856,NaN,0.0,6.0,,25 / 27,,3007,2021-05-04 15:50:55:821
-0.615329,-7.683228,-6.658478,-0.528601,-7.89065,-5.798983,-1.069448,0.117692,0.155584,8.04,39.06,27.12,87.1396,55.2966,174.0613,55.814007,37.500294,203.3856,NaN,0.0,6.0,,25 / 27,,3018,2021-05-04 15:50:55:832
-0.871516,-7.49408,-6.148497,-0.537777,-7.771695,-5.956647,-1.066394,0.126244,0.169634,8.58,39.06,27.36,82.4328,53.574,174.7916,55.814007,37.500294,203.3856,NaN,0.0,6.0,,25 / 27,,3027,2021-05-04 15:50:55:841
-0.533923,-7.261835,-6.198777,-0.537777,-7.771695,-5.956647,-1.059064,0.135407,0.183073,8.58,39.06,27.36,82.4328,53.574,174.7916,55.814007,37.500294,203.3856,NaN,0.0,6.0,,25 / 27,,3037,2021-05-04 15:50:55:851
0.138868,-7.170853,-6.246663,-0.549256,-7.6415,-6.121733,-1.060896,0.175724,0.164136,8.46,39.06,28.32,82.4328,53.574,174.7916,55.814007,37.500294,203.3856,NaN,0.0,6.0,,25 / 27,,3048,2021-05-04 15:50:55:862
0.138868,-7.170853,-6.246663,-0.549256,-7.6415,-6.121733,-1.040738,0.15862,0.091443,8.46,39.06,28.32,82.4328,53.574,174.7916,55.814007,37.500294,203.3856,NaN,0.0,6.0,,25 / 27,,3057,2021-05-04 15:50:55:871
0.395055,-7.101419,-6.524399,-0.549115,-7.509374,-6.28312,-1.043181,0.057216,0.006533,8.64,38.58,28.92,78.3858,51.1891,174.873,55.814007,37.500294,203.3856,NaN,0.0,6.0,,25 / 27,,3067,2021-05-04 15:50:55:881
0.217879,-7.139727,-6.184412,-0.549115,-7.509374,-6.28312,-1.017525,0.080429,-0.056997,8.64,38.58,28.92,78.3858,51.1891,174.873,55.814007,37.500294,203.3856,NaN,0.0,6.0,,25 / 27,,3077,2021-05-04 15:50:55:891
-0.339987,-7.458166,-6.107795,-0.538814,-7.378188,-6.437519,-0.997977,0.137239,-0.088151,8.94,38.16,30.0,78.3858,51.1891,174.873,55.814007,37.500294,203.3856,NaN,0.0,6.0,,25 / 27,,3087,2021-05-04 15:50:55:901
-0.569837,-7.379155,-6.229903,-0.538814,-7.378188,-6.437519,-0.982706,0.172059,-0.091205,8.94,38.16,30.0,78.3858,51.1891,174.873,55.814007,37.500294,203.3856,NaN,0.0,6.0,,25 / 27,,3097,2021-05-04 15:50:55:911
-0.569837,-7.379155,-6.229903,-0.507594,-7.249958,-6.584073,-0.96438,0.156176,-0.089373,8.28,37.26,31.44,83.3367,48.796,175.2156,55.814007,37.500294,203.3856,NaN,0.0,6.0,,25 / 27,,3108,2021-05-04 15:50:55:922
-0.517163,-7.211556,-6.567496,-0.507594,-7.249958,-6.584073,-1.005308,0.117081,-0.085707,8.28,37.26,31.44,83.3367,48.796,175.2156,55.814007,37.500294,203.3856,NaN,0.0,6.0,,25 / 27,,3117,2021-05-04 15:50:55:931
-0.483643,-7.110996,-6.505244,-0.47419,-7.121987,-6.724751,-1.021801,0.106696,-0.088762,8.64,36.78,31.86,83.3367,48.796,175.2156,55.814007,37.500294,203.3856,NaN,0.0,6.0,,25 / 27,,3127,2021-05-04 15:50:55:941
-0.349564,-7.094236,-6.533976,-0.47419,-7.121987,-6.724751,-0.98576,0.027284,-0.098536,8.64,36.78,31.86,83.3367,48.796,175.2156,55.814007,37.500294,203.3856,NaN,0.0,6.0,,25 / 27,,3137,2021-05-04 15:50:55:951
-0.239427,-6.488485,-6.229903,-0.447942,-6.985702,-6.867997,-0.949719,0.028505,-0.103423,8.4,35.7,32.04,78.5838,46.5723,175.9665,55.814007,37.500294,203.3856,NaN,0.0,6.0,,25 / 27,,3147,2021-05-04 15:50:55:961
-0.239427,-6.488485,-6.229903,-0.447942,-6.985702,-6.867997,-0.945443,0.156787,-0.111975,8.4,35.7,32.04,78.5838,46.5723,175.9665,55.814007,37.500294,203.3856,NaN,0.0,6.0,,25 / 27,,3158,2021-05-04 15:50:55:972
-0.045491,-6.000052,-6.265817,-0.428512,-6.85442,-7.000209,-0.968656,0.294843,-0.145572,7.56,34.62,32.58,78.5838,46.5723,175.9665,55.814007,37.500294,203.3856,NaN,0.0,6.0,,25 / 27,,3168,2021-05-04 15:50:55:982
0.191542,-5.885127,-6.560312,-0.428512,-6.85442,-7.000209,-0.980873,0.378531,-0.205437,7.56,34.62,32.58,78.5838,46.5723,175.9665,55.814007,37.500294,203.3856,NaN,0.0,6.0,,25 / 27,,3177,2021-05-04 15:50:55:991
0.047885,-6.071881,-7.26423,-0.370237,-6.719978,-7.132643,-1.022412,0.394414,-0.267745,7.86,34.8,32.7,74.4005,44.3436,176.4971,55.814007,37.500294,203.3856,NaN,0.0,6.0,,25 / 27,,3188,2021-05-04 15:50:56:002
0.047885,-6.071881,-7.26423,-0.370237,-6.719978,-7.132643,-1.083498,0.399912,-0.29951,7.86,34.8,32.7,74.4005,44.3436,176.4971,55.814007,37.500294,203.3856,NaN,0.0,6.0,,25 / 27,,3197,2021-05-04 15:50:56:011
-0.160416,-6.22272,-7.599428,-0.278698,-6.575013,-7.270573,-1.130535,0.386472,-0.319669,7.62,34.14,32.88,74.4005,44.3436,176.4971,55.814007,37.500294,203.3856,NaN,0.0,6.0,,25 / 27,,3208,2021-05-04 15:50:56:022
-0.237033,-6.703969,-7.963358,-0.278698,-6.575013,-7.270573,-1.191011,0.325386,-0.326999,7.62,34.14,32.88,74.4005,44.3436,176.4971,55.814007,37.500294,203.3856,NaN,0.0,6.0,,25 / 27,,3217,2021-05-04 15:50:56:031
-0.239427,-6.931425,-8.219545,-0.181803,-6.409887,-7.419579,-1.191011,0.325386,-0.326999,7.68,33.9,33.84,64.6988,40.8157,178.5964,55.814007,37.500294,203.3856,NaN,0.0,6.0,,25 / 27,,3227,2021-05-04 15:50:56:041
-0.371113,-6.864386,-9.483723,-0.181803,-6.409887,-7.419579,-1.283862,0.383418,-0.319058,7.68,33.9,33.84,64.6988,40.8157,178.5964,55.814007,37.500294,203.3856,NaN,0.0,6.0,,25 / 27,,3237,2021-05-04 15:50:56:051
-0.371113,-6.864386,-9.483723,-0.086504,-6.22142,-7.580007,-1.446963,0.380364,-0.268967,7.68,33.72,34.98,64.6988,40.8157,178.5964,55.814007,37.500294,203.3856,NaN,0.0,6.0,,25 / 27,,3247,2021-05-04 15:50:56:061
-0.612934,-6.632141,-9.912297,-0.086504,-6.22142,-7.580007,-1.474452,0.036447,-0.204826,7.68,33.72,34.98,64.6988,40.8157,178.5964,55.814007,37.500294,203.3856,NaN,0.0,6.0,,25 / 27,,3257,2021-05-04 15:50:56:071
-0.672791,-6.371165,-9.665688,-0.03239,-5.997214,-7.758999,-1.59296,-0.157198,-0.097925,6.3,32.52,35.46,59.7756,39.3762,179.3462,55.814007,37.500294,203.3856,NaN,0.0,6.0,,25 / 27,,3267,2021-05-04 15:50:56:081
-0.672791,-6.371165,-9.665688,-0.03239,-5.997214,-7.758999,-1.59296,-0.157198,-0.097925,6.3,32.52,35.46,59.7756,39.3762,179.3462,55.814007,37.500294,203.3856,NaN,0.0,6.0,,25 / 27,,3277,2021-05-04 15:50:56:091
-0.505192,-6.170046,-9.543579,-0.039818,-5.871037,-7.854904,-1.850134,-0.047242,-0.001408,5.22,31.92,35.82,59.7756,39.3762,179.3462,55.814007,37.500294,203.3856,NaN,0.0,6.0,,25 / 27,,3288,2021-05-04 15:50:56:102
0.196331,-5.547535,-9.342461,-0.037116,-5.543435,-8.089411,-2.332107,0.10975,0.034022,4.74,30.84,37.2,59.7756,39.3762,179.3462,55.814007,37.500294,203.3856,NaN,0.0,6.0,,25 / 27,,3297,2021-05-04 15:50:56:111
0.490826,-5.585843,-8.885154,-0.037116,-5.543435,-8.089411,-2.352876,0.04561,-0.047834,4.74,30.84,37.2,59.7756,39.3762,179.3462,55.814007,37.500294,203.3856,NaN,0.0,6.0,,25 / 27,,3307,2021-05-04 15:50:56:121
0.239427,-5.245856,-8.085466,-0.02278,-5.157387,-8.340908,-2.234979,-0.147424,-0.098536,5.46,29.58,38.4,56.0085,34.4214,179.7371,55.814007,37.500294,203.3856,NaN,0.0,6.0,,25 / 27,,3317,2021-05-04 15:50:56:131
0.172388,-5.008823,-7.568302,-0.02278,-5.157387,-8.340908,-2.069435,-0.200569,-0.123581,5.46,29.58,38.4,56.0085,34.4214,179.7371,55.814007,37.500294,203.3856,NaN,0.0,6.0,,25 / 27,,3327,2021-05-04 15:50:56:141
0.172388,-5.008823,-7.568302,-0.041139,-4.795167,-8.554202,-1.772554,-0.229891,-0.138853,5.76,28.56,39.96,56.0085,34.4214,179.7371,55.814007,37.500294,203.3856,NaN,0.0,6.0,,25 / 27,,3337,2021-05-04 15:50:56:151
0.181965,-4.685596,-7.743085,-0.041139,-4.795167,-8.554202,-1.545312,-0.369779,-0.146183,5.76,28.56,39.96,56.0085,34.4214,179.7371,55.814007,37.500294,203.3856,NaN,0.0,6.0,,25 / 27,,3347,2021-05-04 15:50:56:161
0.354353,-4.771789,-7.826884,-0.076842,-4.503329,-8.711154,-1.463456,-0.397268,-0.154735,5.88,27.48,40.98,58.9734,29.2731,179.7245,55.814007,37.500294,203.3856,NaN,0.0,6.0,,25 / 27,,3357,2021-05-04 15:50:56:171
0.201119,-4.532362,-7.676045,-0.076842,-4.503329,-8.711154,-1.528819,-0.170637,-0.152292,5.88,27.48,40.98,58.9734,29.2731,179.7245,55.814007,37.500294,203.3856,NaN,0.0,6.0,,25 / 27,,3367,2021-05-04 15:50:56:181
0.026337,-4.067873,-7.802942,-0.11743,-4.244724,-8.839591,-1.638775,0.094479,-0.148016,5.94,25.68,41.22,58.9734,29.2731,179.7245,55.814007,37.500294,203.3856,NaN,0.0,6.0,,25 / 27,,3377,2021-05-04 15:50:56:191
0.026337,-4.067873,-7.802942,-0.11743,-4.244724,-8.839591,-1.591127,0.171448,-0.145572,5.88,24.66,41.64,58.9734,29.2731,179.7245,55.814007,37.500294,203.3856,NaN,0.0,6.0,,25 / 27,,3388,2021-05-04 15:50:56:202
-0.021548,-3.78056,-7.747873,-0.085415,-3.957862,-8.972046,-1.443298,0.156176,-0.148627,5.88,24.66,41.64,58.9734,29.2731,179.7245,55.814007,37.500294,203.3856,NaN,0.0,6.0,,26 / 26,,3397,2021-05-04 15:50:56:211
0.074223,-4.103787,-7.867587,-0.085415,-3.957862,-8.972046,-1.21911,0.146402,-0.171839,6.48,23.7,42.54,50.6621,23.8029,179.4546,55.814007,37.500294,203.3856,NaN,0.0,6.0,,26 / 26,,3407,2021-05-04 15:50:56:221
0.074223,-4.103787,-7.867587,-0.044629,-3.705381,-9.079551,-0.973543,0.030949,-0.190165,6.48,23.7,42.54,50.6621,23.8029,179.4546,55.814007,37.500294,203.3856,NaN,0.0,6.0,,26 / 26,,3417,2021-05-04 15:50:56:231
-0.057463,-4.314483,-8.461368,-0.044629,-3.705381,-9.079551,-0.845261,-0.019753,-0.165731,5.88,22.86,43.2,50.6621,23.8029,179.4546,55.814007,37.500294,203.3856,NaN,0.0,6.0,,26 / 26,,3427,2021-05-04 15:50:56:241
-0.474066,-4.008016,-8.858817,-0.022632,-3.526168,-9.150691,-0.836098,0.049275,-0.090594,5.88,22.86,43.2,50.6621,23.8029,179.4546,55.814007,37.500294,203.3856,NaN,0.0,6.0,,26 / 26,,3438,2021-05-04 15:50:56:252
-0.457306,-3.73028,-9.651321,-0.022632,-3.526168,-9.150691,-0.910013,0.030949,-0.028897,5.16,21.9,43.5,46.123,21.0738,179.8583,55.814007,37.500294,203.3856,NaN,0.0,6.0,,26 / 26,,3447,2021-05-04 15:50:56:261
-0.201119,-3.553104,-10.012857,-0.009844,-3.374225,-9.20785,-1.034629,0.001016,0.012642,5.16,21.9,43.5,46.123,21.0738,179.8583,55.814007,37.500294,203.3856,NaN,0.0,6.0,,26 / 26,,3457,2021-05-04 15:50:56:271
0.138868,-3.268185,-9.972155,-0.009844,-3.374225,-9.20785,-1.174517,-0.022196,0.029746,5.52,21.18,44.4,46.123,21.0738,179.8583,55.814007,37.500294,203.3856,NaN,0.0,6.0,,26 / 26,,3467,2021-05-04 15:50:56:281
0.138868,-3.268185,-9.972155,-0.009505,-3.187518,-9.274126,-1.304632,0.058438,0.02547,5.52,21.18,44.4,46.123,21.0738,179.8583,55.814007,37.500294,203.3856,NaN,0.0,6.0,,26 / 26,,3477,2021-05-04 15:50:56:291
0.36393,-2.906649,-9.4095,-0.009505,-3.187518,-9.274126,-1.316849,0.124411,-0.005073,5.64,20.88,44.52,48.6976,18.9678,179.9413,55.814007,37.500294,203.3856,NaN,0.0,6.0,,26 / 26,,3487,2021-05-04 15:50:56:301
0.533923,-2.631308,-9.42626,-0.001863,-2.951437,-9.351948,-1.230106,0.051107,-0.050277,5.64,20.88,44.52,48.6976,18.9678,179.9413,55.814007,37.500294,203.3856,NaN,0.0,6.0,,26 / 26,,3497,2021-05-04 15:50:56:311
0.61054,-2.729473,-9.402317,-0.001863,-2.951437,-9.351948,-1.1342,-0.014866,-0.114418,5.1,20.04,44.7,48.6976,18.9678,179.9413,55.814007,37.500294,203.3856,NaN,0.0,6.0,,26 / 26,,3508,2021-05-04 15:50:56:322
0.61054,-2.729473,-9.402317,0.011971,-2.721593,-9.421399,-1.067616,-0.035025,-0.159622,5.1,20.04,44.7,48.6976,18.9678,179.9413,55.814007,37.500294,203.3856,NaN,0.0,6.0,,26 / 26,,3517,2021-05-04 15:50:56:331
0.10056,-2.686376,-9.584282,0.012197,-2.619665,-9.450259,-1.07739,-0.017309,-0.153513,4.92,18.66,45.72,42.6612,16.1126,-179.9272,55.814007,37.500294,203.3856,NaN,0.0,6.0,,26 / 26,,3527,2021-05-04 15:50:56:341
-0.433364,-2.437372,-9.864412,0.012197,-2.619665,-9.450259,-1.088385,-0.03197,-0.111364,4.92,18.66,45.72,42.6612,16.1126,-179.9272,55.814007,37.500294,203.3856,NaN,0.0,6.0,,26 / 26,,3537,2021-05-04 15:50:56:351
-0.545895,-2.324841,-9.96976,0.016142,-2.417366,-9.504011,-1.063951,-0.086337,-0.055775,4.68,17.7,46.14,42.6612,16.1126,-179.9272,55.814007,37.500294,203.3856,NaN,0.0,6.0,,26 / 26,,3547,2021-05-04 15:50:56:361
-0.371113,-2.324841,-10.077502,0.016142,-2.417366,-9.504011,-1.073114,-0.104052,-7.97E-4,4.68,17.7,46.14,42.6612,16.1126,-179.9272,55.814007,37.500294,203.3856,NaN,0.0,6.0,,26 / 26,,3558,2021-05-04 15:50:56:372
-0.371113,-2.324841,-10.077502,0.003985,-2.214382,-9.553364,-1.073114,-0.104052,-7.97E-4,4.62,16.86,45.9,44.662,14.2707,-179.9027,55.814007,37.500294,203.3856,NaN,0.0,6.0,,26 / 26,,3567,2021-05-04 15:50:56:381
0.181965,-2.231464,-10.08708,0.003985,-2.214382,-9.553364,-1.165965,-0.075953,0.048683,4.62,16.86,45.9,44.662,14.2707,-179.9027,55.814007,37.500294,203.3856,NaN,0.0,6.0,,26 / 26,,3577,2021-05-04 15:50:56:391
0.636877,-1.975277,-9.991309,-0.013586,-1.996797,-9.601185,-1.233771,-0.033803,0.041963,5.1,15.66,46.26,44.662,14.2707,-179.9027,55.814007,37.500294,203.3856,NaN,0.0,6.0,,26 / 26,,3588,2021-05-04 15:50:56:402
0.768562,-1.563461,-9.876384,-0.013586,-1.996797,-9.601185,-1.255151,-0.025862,0.005311,5.1,15.66,46.26,44.662,14.2707,-179.9027,55.814007,37.500294,203.3856,NaN,0.0,6.0,,26 / 26,,3597,2021-05-04 15:50:56:411
0.768562,-1.563461,-9.876384,-0.018652,-1.758029,-9.647734,-1.211169,-0.037468,-0.069214,4.98,14.76,46.62,43.9689,11.7485,179.9189,55.814007,37.500294,203.3856,NaN,0.0,6.0,,26 / 26,,3607,2021-05-04 15:50:56:421
0.687157,-1.185166,-10.264256,-0.018652,-1.758029,-9.647734,-1.177572,-0.112604,-0.126635,4.98,14.76,46.62,43.9689,11.7485,179.9189,55.814007,37.500294,203.3856,NaN,0.0,6.0,,26 / 26,,3618,2021-05-04 15:50:56:432
0.459701,-0.912219,-10.525232,-0.029401,-1.528239,-9.686753,-1.184291,-0.191406,-0.17245,4.74,13.8,46.62,43.9689,11.7485,179.9189,55.814007,37.500294,203.3856,NaN,0.0,6.0,,26 / 26,,3627,2021-05-04 15:50:56:441
0.354353,-1.017567,-10.599455,-0.029401,-1.528239,-9.686753,-1.250265,-0.199958,-0.206048,4.74,13.8,46.62,43.9689,11.7485,179.9189,55.814007,37.500294,203.3856,NaN,0.0,6.0,,26 / 26,,3637,2021-05-04 15:50:56:451
0.253793,-1.249811,-10.628186,-0.061298,-1.292977,-9.720828,-1.344949,-0.196293,-0.226206,4.92,12.9,47.22,41.3746,8.9654,179.8261,55.814007,37.500294,203.3856,NaN,0.0,6.0,,26 / 26,,3647,2021-05-04 15:50:56:461
0.253793,-1.249811,-10.628186,-0.061298,-1.292977,-9.720828,-1.450018,-0.223782,-0.233537,4.92,12.9,47.22,41.3746,8.9654,179.8261,55.814007,37.500294,203.3856,NaN,0.0,6.0,,26 / 26,,3657,2021-05-04 15:50:56:471
0.112531,-1.403045,-10.395941,-0.096365,-1.023358,-9.752605,-1.511715,-0.215841,-0.223763,5.22,12.18,47.88,41.3746,8.9654,179.8261,55.814007,37.500294,203.3856,NaN,0.0,6.0,,26 / 26,,3667,2021-05-04 15:50:56:481
-0.0838,-1.474873,-10.288198,-0.115008,-0.877263,-9.76662,-1.532484,-0.246384,-0.199939,5.04,11.88,48.12,41.3746,8.9654,179.8261,55.814007,37.500294,203.3856,NaN,0.0,6.0,,26 / 26,,3677,2021-05-04 15:50:56:491
-0.371113,-1.005595,-10.458193,-0.115008,-0.877263,-9.76662,-1.540426,-0.254325,-0.140074,5.04,11.88,48.12,41.3746,8.9654,179.8261,55.814007,37.500294,203.3856,NaN,0.0,6.0,,26 / 26,,3687,2021-05-04 15:50:56:501
-0.371113,-1.005595,-10.458193,-0.159193,-0.579367,-9.788212,-1.605177,-0.318466,-0.086929,4.56,10.38,47.94,38.0727,5.1323,179.3253,55.814007,37.500294,203.3856,NaN,0.0,6.0,,26 / 26,,3697,2021-05-04 15:50:56:511
-0.272947,-0.682368,-10.541992,-0.159193,-0.579367,-9.788212,-1.734681,-0.27204,-0.049056,4.56,10.38,47.94,38.0727,5.1323,179.3253,55.814007,37.500294,203.3856,NaN,0.0,6.0,,26 / 26,,3708,2021-05-04 15:50:56:522
-0.122108,-0.299284,-10.486923,-0.216691,-0.263197,-9.800685,-1.826921,-0.263488,-0.025843,5.04,9.0,48.18,38.0727,5.1323,179.3253,55.814007,37.500294,203.3856,NaN,0.0,6.0,,26 / 26,,3717,2021-05-04 15:50:56:531
0.136474,0.129291,-10.218765,-0.216691,-0.263197,-9.800685,-1.845858,-0.305027,-0.026454,5.04,9.0,48.18,38.0727,5.1323,179.3253,55.814007,37.500294,203.3856,NaN,0.0,6.0,,26 / 26,,3727,2021-05-04 15:50:56:541
0.476461,0.31365,-9.555551,-0.269995,0.090896,-9.802482,-1.784161,-0.262266,-0.075323,6.06,7.02,48.12,40.8704,1.5379,178.7334,55.814007,37.500294,203.3856,NaN,0.0,6.0,,26 / 26,,3737,2021-05-04 15:50:56:551
0.476461,0.31365,-9.555551,-0.269995,0.090896,-9.802482,-1.665042,-0.246384,-0.146183,6.06,7.02,48.12,40.8704,1.5379,178.7334,55.814007,37.500294,203.3856,NaN,0.0,6.0,,26 / 26,,3748,2021-05-04 15:50:56:562
0.524346,0.210696,-9.490906,-0.3227,0.438875,-9.791482,-1.528208,-0.302584,-0.203604,7.38,5.7,48.54,40.8704,1.5379,178.7334,55.814007,37.500294,203.3856,NaN,0.0,6.0,,26 / 26,,3757,2021-05-04 15:50:56:571
-0.079011,0.407027,-9.574705,-0.3227,0.438875,-9.791482,-1.528208,-0.302584,-0.203604,7.38,5.7,48.54,40.8704,1.5379,178.7334,55.814007,37.500294,203.3856,NaN,0.0,6.0,,26 / 26,,3767,2021-05-04 15:50:56:581
-0.581809,0.588992,-9.737515,-0.380345,0.737976,-9.771416,-1.421918,-0.311136,-0.20055,7.14,4.86,48.54,36.7904,-2.565,178.1124,55.814007,37.500294,203.3856,NaN,0.0,6.0,,26 / 26,,3777,2021-05-04 15:50:56:591
-0.85715,0.756591,-9.945818,-0.380345,0.737976,-9.771416,-1.414587,-0.276927,-0.153513,7.14,4.86,48.54,36.7904,-2.565,178.1124,55.814007,37.500294,203.3856,NaN,0.0,6.0,,26 / 26,,3788,2021-05-04 15:50:56:602
-0.85715,0.756591,-9.945818,-0.439206,1.010849,-9.744475,-1.429859,-0.287312,-0.085707,7.44,3.18,47.82,36.7904,-2.565,178.1124,55.814007,37.500294,203.3856,NaN,0.0,6.0,,26 / 26,,3797,2021-05-04 15:50:56:611
-0.732648,1.240234,-9.783007,-0.439206,1.010849,-9.744475,-1.454294,-0.273262,-0.02401,7.44,3.18,47.82,36.7904,-2.565,178.1124,55.814007,37.500294,203.3856,NaN,0.0,6.0,,26 / 26,,3807,2021-05-04 15:50:56:621
-0.323227,1.61853,-9.402317,-0.493729,1.290263,-9.708821,-1.459181,-0.223782,0.013253,7.8,2.16,47.58,39.9166,-5.9165,177.4193,55.814007,37.500294,203.3856,NaN,0.0,6.0,,26 / 26,,3817,2021-05-04 15:50:56:631
0.057463,1.975277,-9.325701,-0.493729,1.290263,-9.708821,-1.412144,-0.11627,-0.007517,7.8,2.16,47.58,39.9166,-5.9165,177.4193,55.814007,37.500294,203.3856,NaN,0.0,6.0,,26 / 26,,3827,2021-05-04 15:50:56:641
0.316044,1.98246,-9.301758,-0.524164,1.566044,-9.666578,-1.347392,-0.113826,-0.062495,7.2,0.84,47.82,39.9166,-5.9165,177.4193,55.814007,37.500294,203.3856,NaN,0.0,6.0,,26 / 26,,3837,2021-05-04 15:50:56:651
0.316044,1.98246,-9.301758,-0.524164,1.566044,-9.666578,-1.270423,-0.102831,-0.137631,7.2,0.84,47.82,39.9166,-5.9165,177.4193,55.814007,37.500294,203.3856,NaN,0.0,6.0,,26 / 26,,3847,2021-05-04 15:50:56:661
0.138868,2.085414,-9.505271,-0.547677,1.816027,-9.621443,-1.205061,-0.102831,-0.213378,7.86,-1.08,48.0,38.6625,-9.189,176.8962,55.814007,37.500294,203.3856,NaN,0.0,6.0,,26 / 26,,3857,2021-05-04 15:50:56:671
-0.124502,2.341601,-9.72315,-0.547677,1.816027,-9.621443,-1.172685,-0.14498,-0.241478,7.86,-1.08,48.0,38.6625,-9.189,176.8962,55.814007,37.500294,203.3856,NaN,0.0,6.0,,26 / 26,,3867,2021-05-04 15:50:56:681
-0.320833,2.430189,-9.687236,-0.57814,2.041604,-9.574302,-1.144585,-0.169415,-0.267134,8.16,-2.04,48.0,38.6625,-9.189,176.8962,55.814007,37.500294,203.3856,NaN,0.0,6.0,,26 / 26,,3877,2021-05-04 15:50:56:691
-0.359141,2.664828,-9.883567,-0.57814,2.041604,-9.574302,-1.167798,-0.131541,-0.267745,8.16,-2.04,48.0,38.6625,-9.189,176.8962,55.814007,37.500294,203.3856,NaN,0.0,6.0,,26 / 26,,3887,2021-05-04 15:50:56:701
-0.359141,2.664828,-9.883567,-0.618016,2.257204,-9.523289,-1.175739,-0.125433,-0.281795,7.38,-3.06,48.12,29.8704,-12.0161,176.5444,55.814007,37.500294,203.3856,NaN,0.0,6.0,,26 / 26,,3897,2021-05-04 15:50:56:711
-0.29689,2.791725,-9.766247,-0.618016,2.257204,-9.523289,-1.176961,-0.099165,-0.301954,7.38,-3.06,48.12,29.8704,-12.0161,176.5444,55.814007,37.500294,203.3856,NaN,0.0,6.0,,26 / 26,,3908,2021-05-04 15:50:56:722
-0.040703,2.387092,-11.430268,-0.652558,2.475513,-9.466553,-1.1061,-0.540821,-0.307452,7.14,-4.68,48.48,29.8704,-12.0161,176.5444,55.814007,37.500294,203.3856,NaN,0.0,6.0,,26 / 26,,3917,2021-05-04 15:50:56:731
-0.220273,2.269773,-10.5803,-0.652558,2.475513,-9.466553,-1.034629,-0.855417,-0.372203,7.14,-4.68,48.48,29.8704,-12.0161,176.5444,55.814007,37.500294,203.3856,NaN,0.0,6.0,,26 / 26,,3927,2021-05-04 15:50:56:741
-0.220273,2.269773,-10.5803,-0.782206,2.675305,-9.402158,-1.348003,-0.323964,-0.32028,8.22,-5.4,48.42,32.35,-14.6215,176.0567,55.814007,37.500294,203.3856,NaN,0.0,6.0,,26 / 26,,3937,2021-05-04 15:50:56:751
-0.656031,1.953728,-11.413508,-0.782206,2.675305,-9.402158,-1.593571,-0.207289,-0.252474,8.22,-5.4,48.42,32.35,-14.6215,176.0567,55.814007,37.500294,203.3856,NaN,0.0,6.0,,26 / 26,,3947,2021-05-04 15:50:56:761
-1.182772,1.987248,-10.465375,-0.872197,2.913903,-9.322999,-1.593571,-0.207289,-0.252474,9.12,-5.64,47.16,32.35,-14.6215,176.0567,55.814007,37.500294,203.3856,NaN,0.0,6.0,,26 / 26,,3957,2021-05-04 15:50:56:771
-1.400651,2.719896,-9.541185,-0.872197,2.913903,-9.322999,-1.686422,-0.132763,-0.166953,9.12,-5.64,47.16,32.35,-14.6215,176.0567,55.814007,37.500294,203.3856,NaN,0.0,6.0,,26 / 26,,3967,2021-05-04 15:50:56:781
-1.268966,3.110163,-9.198804,-0.911805,3.217311,-9.218869,-1.633888,-0.199958,-0.075934,8.88,-6.72,46.38,26.9882,-19.152,174.3514,55.814007,37.500294,203.3856,NaN,0.0,6.0,,26 / 26,,3978,2021-05-04 15:50:56:792
-1.268966,3.110163,-9.198804,-0.911805,3.217311,-9.218869,-1.613118,-0.27876,-0.027064,8.88,-6.72,46.38,26.9882,-19.152,174.3514,55.814007,37.500294,203.3856,NaN,0.0,6.0,,26 / 26,,3987,2021-05-04 15:50:56:801
-0.464489,3.241848,-7.903501,-0.960685,3.510373,-9.106282,-1.495832,-0.262266,-0.050277,9.06,-8.16,46.02,26.9882,-19.152,174.3514,55.814007,37.500294,203.3856,NaN,0.0,6.0,,26 / 26,,3997,2021-05-04 15:50:56:811
-0.409421,3.258608,-7.874769,-0.960685,3.510373,-9.106282,-1.376103,-0.261045,-0.086929,9.06,-8.16,46.02,26.9882,-19.152,174.3514,55.814007,37.500294,203.3856,NaN,0.0,6.0,,26 / 26,,4008,2021-05-04 15:50:56:822
-0.565049,3.320859,-7.666468,-1.012324,3.766917,-8.997521,-1.277143,-0.274484,-0.10892,9.42,-9.6,45.78,29.2119,-20.9749,173.9777,55.814007,37.500294,203.3856,NaN,0.0,6.0,,26 / 26,,4017,2021-05-04 15:50:56:831
-0.682368,3.548315,-7.520417,-1.012324,3.766917,-8.997521,-1.085942,-0.242108,-0.12969,9.42,-9.6,45.78,29.2119,-20.9749,173.9777,55.814007,37.500294,203.3856,NaN,0.0,6.0,,26 / 26,,4027,2021-05-04 15:50:56:841
-0.682368,3.548315,-7.520417,-1.067077,3.980162,-8.89887,-0.979651,-0.265321,-0.126635,9.42,-10.86,45.36,29.2119,-20.9749,173.9777,55.814007,37.500294,203.3856,NaN,0.0,6.0,,26 / 26,,4037,2021-05-04 15:50:56:851
-0.893064,4.01041,-7.798153,-1.067077,3.980162,-8.89887,-0.963158,-0.108939,-0.100979,9.42,-10.86,45.36,29.2119,-20.9749,173.9777,55.814007,37.500294,203.3856,NaN,0.0,6.0,,26 / 26,,4047,2021-05-04 15:50:56:861
-1.242629,4.168432,-7.249864,-1.119607,4.151611,-8.81364,-0.963158,-0.108939,-0.100979,9.84,-11.82,44.52,30.8604,-23.9453,173.1622,55.814007,37.500294,203.3856,NaN,0.0,6.0,,26 / 26,,4057,2021-05-04 15:50:56:871
-1.395862,4.762213,-8.023215,-1.119607,4.151611,-8.81364,-0.866641,0.099366,-0.070436,9.84,-11.82,44.52,30.8604,-23.9453,173.1622,55.814007,37.500294,203.3856,NaN,0.0,6.0,,26 / 26,,4067,2021-05-04 15:50:56:881
-1.300091,4.96812,-8.425453,-1.117378,4.30279,-8.741149,-0.712092,0.026062,-0.027675,10.74,-12.9,44.34,30.8604,-23.9453,173.1622,55.814007,37.500294,203.3856,NaN,0.0,6.0,,26 / 26,,4078,2021-05-04 15:50:56:892
-1.300091,4.96812,-8.425453,-1.117378,4.30279,-8.741149,-0.667499,-0.007536,0.005922,10.74,-12.9,44.34,30.8604,-23.9453,173.1622,55.814007,37.500294,203.3856,NaN,0.0,6.0,,26 / 26,,4087,2021-05-04 15:50:56:901
-1.079818,4.850801,-8.741497,-1.117687,4.420812,-8.682007,-0.720034,0.052329,0.015696,10.92,-13.86,43.62,36.5939,-26.025,172.7154,55.814007,37.500294,203.3856,NaN,0.0,6.0,,26 / 26,,4097,2021-05-04 15:50:56:911
-0.952921,5.104594,-9.289786,-1.117687,4.420812,-8.682007,-0.779287,0.034003,0.002257,10.92,-13.86,43.62,36.5939,-26.025,172.7154,55.814007,37.500294,203.3856,NaN,0.0,6.0,,26 / 26,,4107,2021-05-04 15:50:56:921
-0.905036,5.286559,-9.12937,-1.109254,4.550318,-8.615896,-0.826324,-0.072898,-0.025843,10.2,-14.1,42.96,36.5939,-26.025,172.7154,55.814007,37.500294,203.3856,NaN,0.0,6.0,,26 / 26,,4117,2021-05-04 15:50:56:931
-1.058269,5.305713,-9.237112,-1.109254,4.550318,-8.615896,-0.862976,-0.083283,-0.049666,10.2,-14.1,42.96,36.5939,-26.025,172.7154,55.814007,37.500294,203.3856,NaN,0.0,6.0,,26 / 26,,4128,2021-05-04 15:50:56:942
-1.058269,5.305713,-9.237112,-1.12589,4.694001,-8.536326,-0.916121,-0.124211,-0.060051,10.38,-14.52,43.32,31.9689,-27.6459,172.6638,55.814007,37.500294,203.3856,NaN,0.0,6.0,,26 / 26,,4138,2021-05-04 15:50:56:952
-1.084606,5.552324,-9.076695,-1.12589,4.694001,-8.536326,-1.005918,-0.107107,-0.079599,10.38,-14.52,43.32,31.9689,-27.6459,172.6638,55.814007,37.500294,203.3856,NaN,0.0,6.0,,26 / 26,,4147,2021-05-04 15:50:56:961
-0.90743,5.978504,-8.870789,-1.151852,4.855244,-8.442121,-1.064561,-0.108328,-0.104644,10.5,-15.3,43.8,31.9689,-27.6459,172.6638,55.814007,37.500294,203.3856,NaN,0.0,6.0,,26 / 26,,4157,2021-05-04 15:50:56:971
-0.6273,5.940196,-8.684034,-1.151852,4.855244,-8.442121,-1.072503,-0.128487,-0.1584,10.5,-15.3,43.8,31.9689,-27.6459,172.6638,55.814007,37.500294,203.3856,NaN,0.0,6.0,,26 / 26,,4167,2021-05-04 15:50:56:981
-0.450124,5.351205,-8.260248,-1.184209,5.031292,-8.333883,-1.078611,-0.168804,-0.220098,10.56,-16.2,43.56,30.4566,-29.6763,172.2305,55.814007,37.500294,203.3856,NaN,0.0,6.0,,26 / 26,,4177,2021-05-04 15:50:56:991
-0.450124,5.351205,-8.260248,-1.184209,5.031292,-8.333883,-1.012027,-0.174302,-0.279963,10.56,-16.2,43.56,30.4566,-29.6763,172.2305,55.814007,37.500294,203.3856,NaN,0.0,6.0,,26 / 26,,4188,2021-05-04 15:50:57:002
-0.782928,4.963332,-8.171659,-1.237354,5.198079,-8.223058,-0.932004,-0.179189,-0.304397,10.86,-17.28,42.66,30.4566,-29.6763,172.2305,55.814007,37.500294,203.3856,NaN,0.0,6.0,,26 / 26,,4197,2021-05-04 15:50:57:011
-1.130098,4.80531,-8.157294,-1.237354,5.198079,-8.223058,-0.88008,-0.168804,-0.301343,10.86,-17.28,42.66,30.4566,-29.6763,172.2305,55.814007,37.500294,203.3856,NaN,0.0,6.0,,26 / 26,,4207,2021-05-04 15:50:57:021
-1.522759,4.867561,-8.130957,-1.297298,5.338467,-8.123264,-0.834265,-0.142537,-0.262247,10.98,-18.42,42.48,31.2761,-32.0094,171.4427,55.814007,37.500294,203.3856,NaN,0.0,6.0,,26 / 26,,4217,2021-05-04 15:50:57:031
-1.525153,4.836436,-8.142929,-1.297298,5.338467,-8.123264,-0.848926,-0.154754,-0.187722,10.98,-18.42,42.48,31.2761,-32.0094,171.4427,55.814007,37.500294,203.3856,NaN,0.0,6.0,,26 / 26,,4227,2021-05-04 15:50:57:041
-1.525153,4.836436,-8.142929,-1.345488,5.467427,-8.029143,-0.814718,-0.235999,-0.114418,11.7,-18.48,41.88,31.2761,-32.0094,171.4427,55.814007,37.500294,203.3856,NaN,0.0,6.0,,26 / 26,,4238,2021-05-04 15:50:57:052
-1.273754,4.848407,-7.671256,-1.345488,5.467427,-8.029143,-0.750577,-0.263488,-0.064327,11.7,-18.48,41.88,31.2761,-32.0094,171.4427,55.814007,37.500294,203.3856,NaN,0.0,6.0,,26 / 26,,4247,2021-05-04 15:50:57:061
-0.90743,5.071074,-7.407886,-1.394425,5.593983,-7.933032,-0.686436,-0.223171,-0.053942,11.82,-18.0,41.64,27.8632,-33.8847,170.487,55.814007,37.500294,203.3856,NaN,0.0,6.0,,26 / 26,,4257,2021-05-04 15:50:57:071
-0.835602,5.621757,-7.489291,-1.394425,5.593983,-7.933032,-0.656504,-0.168193,-0.048445,11.82,-18.0,41.64,27.8632,-33.8847,170.487,55.814007,37.500294,203.3856,NaN,0.0,6.0,,26 / 26,,4267,2021-05-04 15:50:57:081
-0.964893,5.851608,-7.927444,-1.434876,5.701137,-7.849077,-0.64673,-0.268375,-0.041114,11.16,-18.66,42.0,27.8632,-33.8847,170.487,55.814007,37.500294,203.3856,NaN,0.0,6.0,,26 / 26,,4277,2021-05-04 15:50:57:091
-0.964893,5.851608,-7.927444,-1.434876,5.701137,-7.849077,-0.64673,-0.268375,-0.041114,11.16,-18.66,42.0,27.8632,-33.8847,170.487,55.814007,37.500294,203.3856,NaN,0.0,6.0,,26 / 26,,4287,2021-05-04 15:50:57:101
-1.127703,5.789357,-7.771816,-1.476858,5.800492,-7.768091,-0.633902,-0.301973,-0.020956,11.58,-19.56,41.58,25.2849,-35.546,169.6402,55.814007,37.500294,203.3856,NaN,0.0,6.0,,26 / 26,,4297,2021-05-04 15:50:57:111
-1.113338,5.719923,-7.771816,-1.476858,5.800492,-7.768091,-0.642454,-0.300751,-7.97E-4,11.58,-19.56,41.58,25.2849,-35.546,169.6402,55.814007,37.500294,203.3856,NaN,0.0,6.0,,26 / 26,,4307,2021-05-04 15:50:57:121
-1.276148,5.789357,-7.69041,-1.524195,5.89768,-7.685327,-0.688269,-0.21523,0.024859,12.54,-20.04,41.34,25.2849,-35.546,169.6402,55.814007,37.500294,203.3856,NaN,0.0,6.0,,26 / 26,,4317,2021-05-04 15:50:57:131
-1.383891,5.916253,-7.661679,-1.524195,5.89768,-7.685327,-0.725531,-0.111994,0.057235,12.54,-20.04,41.34,25.2849,-35.546,169.6402,55.814007,37.500294,203.3856,NaN,0.0,6.0,,26 / 26,,4328,2021-05-04 15:50:57:142
-1.383891,5.916253,-7.661679,-1.548787,6.004557,-7.597146,-0.76707,0.026673,0.093887,12.9,-20.4,41.1,26.147,-36.97,168.7824,55.814007,37.500294,203.3856,NaN,0.0,6.0,,26 / 26,,4337,2021-05-04 15:50:57:151
-1.434171,6.136526,-7.56112,-1.548787,6.004557,-7.597146,-0.779287,0.121357,0.112824,12.9,-20.4,41.1,26.147,-36.97,168.7824,55.814007,37.500294,203.3856,NaN,0.0,6.0,,26 / 26,,4347,2021-05-04 15:50:57:161
-1.225869,6.402291,-7.697593,-1.527688,6.123079,-7.506278,-0.795781,0.125633,0.108548,13.32,-20.04,40.44,26.147,-36.97,168.7824,55.814007,37.500294,203.3856,NaN,0.0,6.0,,26 / 26,,4358,2021-05-04 15:50:57:172
-1.132492,6.514822,-7.534783,-1.527688,6.123079,-7.506278,-0.814107,0.085316,0.093887,13.02,-20.52,40.32,26.147,-36.97,168.7824,55.814007,37.500294,203.3856,NaN,0.0,6.0,,26 / 26,,4367,2021-05-04 15:50:57:181
-1.256994,6.493274,-7.474926,-1.497937,6.245446,-7.410806,-0.811663,0.023618,0.0609,13.02,-20.52,40.32,26.147,-36.97,168.7824,55.814007,37.500294,203.3856,NaN,0.0,6.0,,26 / 26,,4377,2021-05-04 15:50:57:191
-1.256994,6.493274,-7.474926,-1.497937,6.245446,-7.410806,-0.793337,-0.141926,0.051126,12.36,-21.18,39.48,22.6537,-39.5582,168.5729,55.814007,37.500294,203.3856,NaN,0.0,6.0,,26 / 26,,4387,2021-05-04 15:50:57:201
-1.508393,6.428628,-7.383943,-1.494247,6.365334,-7.308859,-0.778677,-0.219506,0.056624,12.36,-21.18,39.48,22.6537,-39.5582,168.5729,55.814007,37.500294,203.3856,NaN,0.0,6.0,,26 / 26,,4397,2021-05-04 15:50:57:211
-1.362342,6.598622,-7.419857,-1.494247,6.365334,-7.308859,-0.76707,-0.31419,0.058457,11.94,-22.2,39.06,22.6537,-39.5582,168.5729,55.814007,37.50029,204.3014,NaN,0.0,6.0,,24 / 26,,4407,2021-05-04 15:50:57:221
-1.146858,6.562708,-7.539571,-1.525074,6.478609,-7.202199,-0.815329,-0.331294,0.07495,11.94,-22.2,39.06,22.6537,-39.5582,168.5729,55.814007,37.50029,204.3014,NaN,0.0,6.0,,24 / 26,,4417,2021-05-04 15:50:57:231
-1.113338,6.773404,-7.42704,-1.543934,6.537255,-7.144952,-0.881302,-0.301362,0.06762,12.18,-22.44,39.6,16.117,-41.8065,167.8066,55.814007,37.50029,204.3014,NaN,0.0,6.0,,24 / 26,,4427,2021-05-04 15:50:57:241
-1.113338,6.773404,-7.42704,-1.543934,6.537255,-7.144952,-0.956438,-0.254325,0.052959,12.18,-22.44,39.6,16.117,-41.8065,167.8066,55.814007,37.50029,204.3014,NaN,0.0,6.0,,24 / 26,,4437,2021-05-04 15:50:57:251
-1.127703,6.672844,-7.364789,-1.573865,6.667093,-7.017311,-0.987593,-0.240275,0.05357,12.36,-22.8,39.06,16.117,-41.8065,167.8066,55.814007,37.50029,204.3014,NaN,0.0,6.0,,24 / 26,,4447,2021-05-04 15:50:57:261
-1.161223,6.988889,-6.871568,-1.573865,6.667093,-7.017311,-0.97171,-0.117491,0.043796,12.36,-22.8,39.06,16.117,-41.8065,167.8066,55.814007,37.50029,204.3014,NaN,0.0,6.0,,24 / 26,,4457,2021-05-04 15:50:57:271
-1.041509,6.871569,-7.008042,-1.597056,6.804378,-6.878916,-0.982095,-0.044798,0.034022,12.66,-23.82,38.28,24.5998,-42.8324,167.3587,55.814007,37.50029,204.3014,NaN,0.0,6.0,,24 / 26,,4467,2021-05-04 15:50:57:281
-0.706311,6.706364,-6.919454,-1.597056,6.804378,-6.878916,-1.011416,-8.16E-4,-0.014847,12.66,-23.82,38.28,24.5998,-42.8324,167.3587,55.814007,37.50029,204.3014,NaN,0.0,6.0,,24 / 26,,4477,2021-05-04 15:50:57:291
-0.706311,6.706364,-6.919454,-1.599963,6.938378,-6.743051,-1.010805,0.192828,-0.099146,13.26,-24.54,37.86,24.5998,-42.8324,167.3587,55.814007,37.50029,204.3014,NaN,0.0,6.0,,24 / 26,,4488,2021-05-04 15:50:57:302
-0.658426,6.979311,-6.565101,-1.598695,7.005681,-6.673436,-0.993701,0.251471,-0.195052,13.26,-24.84,37.44,24.5998,-42.8324,167.3587,55.814007,37.50029,204.3014,NaN,0.0,6.0,,24 / 26,,4497,2021-05-04 15:50:57:311
-1.194743,7.249864,-7.16367,-1.598695,7.005681,-6.673436,-1.001032,0.052329,-0.238424,13.26,-24.84,37.44,24.5998,-42.8324,167.3587,55.814007,37.50029,204.3014,NaN,0.0,6.0,,24 / 26,,4507,2021-05-04 15:50:57:321
-2.109356,7.204373,-6.735095,-1.595406,7.130636,-6.540528,-0.992479,-0.050296,-0.20055,12.9,-25.44,36.78,21.1925,-45.5925,166.5281,55.814007,37.50029,204.3014,NaN,0.0,6.0,,24 / 26,,4517,2021-05-04 15:50:57:331
-2.521171,6.981705,-6.689604,-1.595406,7.130636,-6.540528,-1.005918,-0.120546,-0.111364,12.9,-25.44,36.78,21.1925,-45.5925,166.5281,55.814007,37.50029,204.3014,NaN,0.0,6.0,,24 / 26,,4527,2021-05-04 15:50:57:341
-2.521171,6.981705,-6.689604,-1.628408,7.252091,-6.397323,-1.062729,-0.129709,-0.00996,12.78,-26.1,36.0,21.1925,-45.5925,166.5281,55.814007,37.50029,204.3014,NaN,0.0,6.0,,24 / 26,,4537,2021-05-04 15:50:57:351
-2.037528,7.388732,-6.522004,-1.628408,7.252091,-6.397323,-1.090218,-0.065568,0.029746,12.78,-26.1,36.0,21.1925,-45.5925,166.5281,55.814007,37.50029,204.3014,NaN,0.0,6.0,,24 / 26,,4547,2021-05-04 15:50:57:361
-1.331217,7.673651,-6.510033,-1.647797,7.383391,-6.240201,-1.104879,-0.050296,0.005311,12.84,-26.82,34.74,23.1339,-47.6895,165.7189,55.814007,37.50029,204.3014,NaN,0.0,6.0,,24 / 26,,4557,2021-05-04 15:50:57:371
-0.897853,7.843644,-6.644112,-1.647797,7.383391,-6.240201,-1.126259,-0.10955,-0.054553,12.84,-26.82,34.74,23.1339,-47.6895,165.7189,55.814007,37.50029,204.3014,NaN,0.0,6.0,,24 / 26,,4568,2021-05-04 15:50:57:382
-0.744619,8.346442,-6.411868,-1.655153,7.518799,-6.074361,-1.161078,-0.168804,-0.149237,12.9,-27.84,34.62,23.1339,-47.6895,165.7189,55.814007,37.50029,204.3014,NaN,0.0,6.0,,24 / 26,,4577,2021-05-04 15:50:57:391
-0.744619,8.346442,-6.411868,-1.655153,7.518799,-6.074361,-1.161078,-0.168804,-0.149237,12.9,-27.84,34.62,23.1339,-47.6895,165.7189,55.814007,37.50029,204.3014,NaN,0.0,6.0,,24 / 26,,4587,2021-05-04 15:50:57:401
-0.917007,8.509253,-6.241874,-1.694501,7.651659,-5.894949,-1.175128,-0.234778,-0.239035,12.9,-28.2,33.9,20.2009,-50.0591,164.758,55.814007,37.50029,204.3014,NaN,0.0,6.0,,24 / 26,,4598,2021-05-04 15:50:57:412
-1.264177,8.12138,-5.827665,-1.694501,7.651659,-5.894949,-1.18368,-0.298918,-0.290958,12.9,-28.2,33.9,20.2009,-50.0591,164.758,55.814007,37.50029,204.3014,NaN,0.0,6.0,,24 / 26,,4607,2021-05-04 15:50:57:421
-1.616135,7.94181,-5.518803,-1.768677,7.778264,-5.704416,-1.170241,-0.283036,-0.300121,12.96,-28.38,32.52,20.2009,-50.0591,164.758,55.814007,37.50029,204.3014,NaN,0.0,6.0,,24 / 26,,4617,2021-05-04 15:50:57:431
-1.616135,7.94181,-5.518803,-1.768677,7.778264,-5.704416,-1.119539,-0.244551,-0.294623,12.96,-28.38,32.52,20.2009,-50.0591,164.758,55.814007,37.50029,204.3014,NaN,0.0,6.0,,24 / 26,,4627,2021-05-04 15:50:57:441
-1.843592,7.673651,-5.157268,-1.843609,7.895219,-5.516952,-1.065172,-0.144369,-0.260415,13.5,-29.04,32.34,21.5374,-52.4822,162.7737,55.814007,37.50029,204.3014,NaN,0.0,6.0,,24 / 26,,4637,2021-05-04 15:50:57:451
-2.037528,7.549149,-4.630527,-1.843609,7.895219,-5.516952,-0.993701,-0.068622,-0.240867,13.5,-29.04,32.34,21.5374,-52.4822,162.7737,55.814007,37.50029,204.3014,NaN,0.0,6.0,,24 / 26,,4647,2021-05-04 15:50:57:461
-2.250618,7.609006,-4.11097,-1.895674,7.997789,-5.348963,-0.850759,0.06699,-0.199939,14.52,-29.52,31.98,21.5374,-52.4822,162.7737,55.814007,37.50029,204.3014,NaN,0.0,6.0,,24 / 26,,4657,2021-05-04 15:50:57:471
-2.190761,7.647314,-4.486871,-1.895674,7.997789,-5.348963,-0.734694,0.159841,-0.137631,14.52,-29.52,31.98,21.5374,-52.4822,162.7737,55.814007,37.50029,204.3014,NaN,0.0,6.0,,24 / 26,,4667,2021-05-04 15:50:57:481
-2.190761,7.647314,-4.486871,-1.912887,8.07586,-5.224093,-0.699264,0.067601,-0.067992,15.12,-30.54,31.2,20.7656,-54.6419,160.4857,55.814007,37.50029,204.3014,NaN,0.0,6.0,,24 / 26,,4677,2021-05-04 15:50:57:491
-1.771763,7.84125,-4.767001,-1.912887,8.07586,-5.224093,-0.712092,-0.016699,-0.029508,15.12,-30.54,31.2,20.7656,-54.6419,160.4857,55.814007,37.50029,204.3014,NaN,0.0,6.0,,24 / 26,,4687,2021-05-04 15:50:57:501
-1.563461,8.193209,-4.879532,-1.917333,8.146152,-5.112165,-0.723088,-0.02464,-0.023399,14.7,-31.26,30.36,20.7656,-54.6419,160.4857,55.814007,37.50029,204.3014,NaN,0.0,6.0,,24 / 26,,4697,2021-05-04 15:50:57:511
-1.726272,8.458973,-5.523592,-1.917333,8.146152,-5.112165,-0.742025,-0.061903,-0.028897,14.7,-31.26,30.36,20.7656,-54.6419,160.4857,55.814007,37.50029,204.3014,NaN,0.0,6.0,,24 / 26,,4707,2021-05-04 15:50:57:521
-1.723878,8.547561,-5.485283,-1.924668,8.21834,-4.992431,-0.780509,-0.163306,-0.047834,14.52,-30.9,29.46,21.7615,-56.1684,159.4413,55.814007,37.50029,204.3014,NaN,0.0,6.0,,24 / 26,,4718,2021-05-04 15:50:57:532
-1.723878,8.547561,-5.485283,-1.924668,8.21834,-4.992431,-0.826324,-0.198126,-0.067992,14.52,-30.9,29.46,21.7615,-56.1684,159.4413,55.814007,37.50029,204.3014,NaN,0.0,6.0,,24 / 26,,4727,2021-05-04 15:50:57:541
-1.668809,8.573898,-5.418244,-1.94956,8.294323,-4.855275,-0.865419,-0.256769,-0.089373,14.76,-30.6,29.22,21.7615,-56.1684,159.4413,55.814007,37.50029,204.3014,NaN,0.0,6.0,,24 / 26,,4737,2021-05-04 15:50:57:551
-1.738243,8.253065,-5.274587,-1.94956,8.294323,-4.855275,-0.888632,-0.344733,-0.099146,14.76,-30.6,29.22,21.7615,-56.1684,159.4413,55.814007,37.50029,204.3014,NaN,0.0,6.0,,24 / 26,,4748,2021-05-04 15:50:57:562
-1.697541,8.363202,-4.594613,-1.992146,8.373907,-4.698836,-0.906347,-0.322742,-0.098536,15.06,-31.2,29.04,15.8748,-57.7562,158.1229,55.814007,37.50029,204.3014,NaN,0.0,6.0,,24 / 26,,4757,2021-05-04 15:50:57:571
-1.714301,8.76544,-4.896292,-1.992146,8.373907,-4.698836,-0.940556,-0.107107,-0.083875,15.06,-31.2,29.04,15.8748,-57.7562,158.1229,55.814007,37.50029,204.3014,NaN,0.0,6.0,,24 / 26,,4767,2021-05-04 15:50:57:581
-1.740638,8.779806,-5.705557,-2.031522,8.454144,-4.535477,-1.065783,-0.107107,-0.078377,15.84,-31.86,28.62,15.8748,-57.7562,158.1229,55.814007,37.50029,204.3014,NaN,0.0,6.0,,24 / 26,,4778,2021-05-04 15:50:57:592
-1.740638,8.779806,-5.705557,-2.031522,8.454144,-4.535477,-1.167798,-0.296475,-0.110753,15.84,-31.86,28.62,15.8748,-57.7562,158.1229,55.814007,37.50029,204.3014,NaN,0.0,6.0,,24 / 26,,4788,2021-05-04 15:50:57:602
-1.970488,8.719949,-5.514014,-2.056021,8.544647,-4.351054,-1.246599,-0.445526,-0.127857,16.08,-32.4,27.72,15.4089,-59.5513,155.8715,55.814007,37.50029,204.3014,NaN,0.0,6.0,,24 / 26,,4797,2021-05-04 15:50:57:611
-2.185973,8.865999,-5.013611,-2.056021,8.544647,-4.351054,-1.335786,-0.549984,-0.126025,16.08,-32.4,27.72,15.4089,-59.5513,155.8715,55.814007,37.50029,204.3014,NaN,0.0,6.0,,24 / 26,,4807,2021-05-04 15:50:57:621
-2.377515,8.607418,-4.276175,-2.116191,8.645369,-4.116955,-1.39504,-0.554871,-0.102201,16.08,-33.18,26.04,15.4089,-59.5513,155.8715,55.814007,37.50029,204.3014,NaN,0.0,6.0,,24 / 26,,4817,2021-05-04 15:50:57:631
-2.377515,8.607418,-4.276175,-2.116191,8.645369,-4.116955,-1.407868,-0.491952,-0.040503,16.08,-33.18,26.04,15.4089,-59.5513,155.8715,55.814007,37.50029,204.3014,NaN,0.0,6.0,,24 / 26,,4827,2021-05-04 15:50:57:641
-2.736656,8.353625,-4.142095,-2.174182,8.751871,-3.853239,-1.432913,-0.447359,0.069452,16.26,-33.12,25.08,14.9738,-61.834,152.796,55.814007,37.50029,204.3014,NaN,0.0,6.0,,24 / 26,,4837,2021-05-04 15:50:57:651
-2.693559,8.413482,-4.225895,-2.174182,8.751871,-3.853239,-1.432913,-0.447359,0.069452,16.26,-33.12,25.08,14.9738,-61.834,152.796,55.814007,37.50029,204.3014,NaN,0.0,6.0,,24 / 26,,4848,2021-05-04 15:50:57:662
-2.336812,8.616995,-4.125336,-2.198112,8.860096,-3.582887,-1.497665,-0.433309,0.150087,16.74,-33.3,23.82,14.9738,-61.834,152.796,55.814007,37.50029,204.3014,NaN,0.0,6.0,,24 / 26,,4857,2021-05-04 15:50:57:671
-2.336812,8.616995,-4.125336,-2.198112,8.860096,-3.582887,-1.608842,-0.355729,0.25149,16.74,-33.3,23.82,14.9738,-61.834,152.796,55.814007,37.50029,204.3014,NaN,0.0,6.0,,24 / 26,,4867,2021-05-04 15:50:57:681
-2.197944,8.423059,-4.180404,-2.185322,8.97709,-3.287317,-1.772554,-0.359394,0.349839,16.62,-33.78,22.74,12.4334,-64.6193,148.4708,55.814007,37.50029,204.3014,NaN,0.0,6.0,,24 / 26,,4877,2021-05-04 15:50:57:691
-1.929785,8.413482,-3.682395,-2.185322,8.97709,-3.287317,-1.884343,-0.280592,0.417035,16.62,-33.78,22.74,12.4334,-64.6193,148.4708,55.814007,37.50029,204.3014,NaN,0.0,6.0,,24 / 26,,4888,2021-05-04 15:50:57:702
-1.673598,8.554744,-3.323253,-2.136153,9.106591,-2.945635,-1.950316,-0.206678,0.415202,16.2,-34.8,21.6,12.4334,-64.6193,148.4708,55.814007,37.50029,204.3014,NaN,0.0,6.0,,24 / 26,,4897,2021-05-04 15:50:57:711
-1.908237,8.55235,-2.434977,-2.136153,9.106591,-2.945635,-1.961923,-0.107107,0.389546,16.2,-34.8,21.6,12.4334,-64.6193,148.4708,55.814007,37.50029,204.3014,NaN,0.0,6.0,,24 / 26,,4907,2021-05-04 15:50:57:721
-1.908237,8.55235,-2.434977,-2.071211,9.230723,-2.58333,-1.917329,0.101198,0.377939,16.38,-35.76,19.74,6.6427,-68.2201,144.0507,55.814007,37.50029,204.3014,NaN,0.0,6.0,,24 / 26,,4917,2021-05-04 15:50:57:731
-2.264984,9.002473,-2.176396,-2.071211,9.230723,-2.58333,-1.89656,0.29973,0.409704,16.38,-35.76,19.74,6.6427,-68.2201,144.0507,55.814007,37.50029,204.3014,NaN,0.0,6.0,,24 / 26,,4927,2021-05-04 15:50:57:741
-2.576239,8.851634,-2.444554,-1.988881,9.337893,-2.2401,-1.894727,0.223982,0.450632,16.02,-35.94,18.18,6.6427,-68.2201,144.0507,55.814007,37.50029,204.3014,NaN,0.0,6.0,,24 / 26,,4937,2021-05-04 15:50:57:751
-2.609759,9.225141,-1.869929,-1.94218,9.387182,-2.068466,-1.865406,0.048664,0.508054,16.02,-35.94,18.18,6.6427,-68.2201,144.0507,55.814007,37.50029,204.3014,NaN,0.0,6.0,,24 / 26,,4948,2021-05-04 15:50:57:762
-2.279349,9.744699,-0.917007,-1.94218,9.387182,-2.068466,-1.785382,-0.140704,0.550203,15.48,-36.48,16.92,356.4406,-73.1821,136.8035,55.814007,37.50029,204.3014,NaN,0.0,6.0,,24 / 26,,4957,2021-05-04 15:50:57:771
-2.279349,9.744699,-0.917007,-1.844895,9.475818,-1.724887,-1.702305,-0.246995,0.57586,15.48,-36.48,16.92,356.4406,-73.1821,136.8035,55.814007,37.50029,204.3014,NaN,0.0,6.0,,24 / 26,,4967,2021-05-04 15:50:57:781
-1.817254,9.771035,-0.524346,-1.844895,9.475818,-1.724887,-1.595403,-0.392381,0.571584,14.58,-37.08,15.9,356.4406,-73.1821,136.8035,55.814007,37.50029,204.3014,NaN,0.0,6.0,,24 / 26,,4977,2021-05-04 15:50:57:791
-1.070241,9.890749,-0.002394,-1.745692,9.547974,-1.399486,-1.478728,-0.502336,0.507443,14.58,-37.08,15.9,356.4406,-73.1821,136.8035,55.814007,37.50029,204.3014,NaN,0.0,6.0,,24 / 26,,4987,2021-05-04 15:50:57:801
-0.926584,9.747093,0.624906,-1.745692,9.547974,-1.399486,-1.351668,-0.551206,0.449411,13.98,-36.9,14.82,345.4204,-76.8116,128.7185,55.814007,37.50029,204.3014,NaN,0.0,6.0,,24 / 26,,4998,2021-05-04 15:50:57:812
-1.003201,9.869201,0.806871,-1.664274,9.600823,-1.106544,-1.1904,-0.564034,0.401763,13.98,-36.9,14.82,345.4204,-76.8116,128.7185,55.814007,37.50029,204.3014,NaN,0.0,6.0,,24 / 26,,5008,2021-05-04 15:50:57:822
-1.003201,9.869201,0.806871,-1.664274,9.600823,-1.106544,-1.054177,-0.592745,0.35045,14.22,-37.14,12.84,345.4204,-76.8116,128.7185,55.814007,37.50029,204.3014,NaN,0.0,6.0,,24 / 26,,5017,2021-05-04 15:50:57:831
-0.854756,10.091868,1.137281,-1.598455,9.637255,-0.859235,-0.902071,-0.522495,0.307079,14.22,-37.14,12.84,345.4204,-76.8116,128.7185,55.814007,37.50029,204.3014,NaN,0.0,6.0,,24 / 26,,5027,2021-05-04 15:50:57:841
-0.979258,10.125388,1.268966,-1.598455,9.637255,-0.859235,-0.790894,-0.37772,0.287531,13.86,-37.92,11.4,343.3061,-79.3357,118.2598,55.814007,37.50029,204.3014,NaN,0.0,6.0,,24 / 26,,5037,2021-05-04 15:50:57:851
-0.893064,10.041589,1.482056,-1.5477,9.660498,-0.670535,-0.698653,-0.072898,0.28692,13.86,-37.92,11.4,343.3061,-79.3357,118.2598,55.814007,37.50029,204.3014,NaN,0.0,6.0,,24 / 26,,5047,2021-05-04 15:50:57:861
-0.754197,9.80695,1.470085,-1.5477,9.660498,-0.670535,-0.588698,0.376699,0.310744,13.38,-38.34,10.62,343.3061,-79.3357,118.2598,55.814007,37.50029,204.3014,NaN,0.0,6.0,,24 / 26,,5057,2021-05-04 15:50:57:871
-0.754197,9.80695,1.470085,-1.491399,9.677692,-0.536498,-0.486072,0.615547,0.398709,13.38,-38.34,10.62,343.3061,-79.3357,118.2598,55.814007,37.50029,204.3014,NaN,0.0,6.0,,24 / 26,,5068,2021-05-04 15:50:57:882
-1.292908,9.450203,0.972076,-1.491399,9.677692,-0.536498,-0.367564,0.636927,0.42803,13.68,-38.28,9.66,335.3943,-80.699,109.7851,55.814007,37.50029,204.3014,NaN,0.0,6.0,,24 / 26,,5077,2021-05-04 15:50:57:891
-1.139675,10.484529,0.859545,-1.409676,9.693842,-0.460838,-0.26555,0.575841,0.414591,13.68,-38.28,9.66,335.3943,-80.699,109.7851,55.814007,37.50029,204.3014,NaN,0.0,6.0,,24 / 26,,5087,2021-05-04 15:50:57:901
-1.316851,10.458193,0.802082,-1.409676,9.693842,-0.460838,-0.184305,0.496428,0.410926,14.34,-38.52,9.42,335.3943,-80.699,109.7851,55.814007,37.50029,204.3014,NaN,0.0,6.0,,24 / 26,,5098,2021-05-04 15:50:57:912
-1.458113,9.75667,-0.047885,-1.323682,9.707659,-0.423207,-0.091453,0.303395,0.393822,14.34,-38.52,9.42,335.3943,-80.699,109.7851,55.814007,37.50029,204.3014,NaN,0.0,6.0,,24 / 26,,5107,2021-05-04 15:50:57:921
-1.458113,9.75667,-0.047885,-1.323682,9.707659,-0.423207,-0.064575,0.012012,0.382215,14.34,-38.88,9.42,337.4687,-81.8532,107.7301,55.814007,37.50029,204.3014,NaN,0.0,6.0,,24 / 26,,5117,2021-05-04 15:50:57:931
-1.122915,9.687236,-0.596174,-1.244317,9.718727,-0.409828,-0.083512,-0.264099,0.330903,14.34,-38.88,9.42,337.4687,-81.8532,107.7301,55.814007,37.50029,204.3014,NaN,0.0,6.0,,24 / 26,,5128,2021-05-04 15:50:57:942
-0.656031,10.111023,-1.058269,-1.244317,9.718727,-0.409828,-0.139101,-0.454689,0.252101,13.56,-39.0,9.3,337.4687,-81.8532,107.7301,55.814007,37.50029,204.3014,NaN,0.0,6.0,,24 / 26,,5137,2021-05-04 15:50:57:951
-0.562655,10.211582,-1.371919,-1.183822,9.727341,-0.384041,-0.229509,-0.56098,0.184295,13.56,-39.0,9.3,337.4687,-81.8532,107.7301,55.814007,37.50029,204.3014,NaN,0.0,6.0,,24 / 26,,5147,2021-05-04 15:50:57:961
-0.584203,10.029617,-1.233051,-1.183822,9.727341,-0.384041,-0.317473,-0.496228,0.134815,12.9,-38.88,8.94,335.69,-82.709,107.9735,55.814007,37.50029,204.3014,NaN,0.0,6.0,,24 / 26,,5157,2021-05-04 15:50:57:971
-0.584203,10.029617,-1.233051,-1.152158,9.733302,-0.32439,-0.438425,-0.336181,0.103661,12.9,-38.88,8.94,335.69,-82.709,107.9735,55.814007,37.50029,204.3014,NaN,0.0,6.0,,24 / 26,,5167,2021-05-04 15:50:57:981
-0.691945,9.660899,-1.687964,-1.152158,9.733302,-0.32439,-0.589919,-0.242108,0.101217,12.54,-38.82,8.94,335.69,-82.709,107.9735,55.814007,37.50029,204.3014,NaN,0.0,6.0,,24 / 26,,5177,2021-05-04 15:50:57:991
-0.67758,9.481328,-1.819649,-1.132943,9.738225,-0.231141,-0.751188,-0.146202,0.098774,12.54,-38.82,8.94,335.69,-82.709,107.9735,55.814007,37.50029,204.3014,NaN,0.0,6.0,,24 / 26,,5187,2021-05-04 15:50:58:001
-0.517163,9.517242,-1.987248,-1.132943,9.738225,-0.231141,-0.924063,-0.137039,0.063955,12.54,-39.12,9.18,327.6958,-83.2286,101.5311,55.814007,37.50029,204.3014,NaN,0.0,6.0,,24 / 26,,5197,2021-05-04 15:50:58:011
-0.366324,9.402317,-1.647261,-1.115502,9.742672,-0.078483,-1.088385,-0.13032,0.020583,12.54,-39.12,9.18,327.6958,-83.2286,101.5311,55.814007,37.50029,204.3014,NaN,0.0,6.0,,24 / 26,,5207,2021-05-04 15:50:58:021
-0.366324,9.402317,-1.647261,-1.115502,9.742672,-0.078483,-1.219721,-0.111383,-0.039282,12.54,-38.88,8.1,327.6958,-83.2286,101.5311,55.814007,37.50029,204.3014,NaN,0.0,6.0,,24 / 26,,5218,2021-05-04 15:50:58:032
-0.596174,9.514848,-1.3384,-1.112336,9.742401,0.136018,-1.373659,-0.097944,-0.096092,12.54,-38.88,8.1,327.6958,-83.2286,101.5311,55.814007,37.50029,204.3014,NaN,0.0,6.0,,24 / 26,,5227,2021-05-04 15:50:58:041
-0.960104,9.797373,-0.761379,-1.112336,9.742401,0.136018,-1.373659,-0.097944,-0.096092,12.18,-39.0,7.02,307.856,-83.4384,83.0284,55.814007,37.50029,204.3014,NaN,0.0,6.0,,24 / 26,,5237,2021-05-04 15:50:58:051
-1.616135,9.816526,-0.227456,-1.12819,9.733366,0.398736,-1.448796,-0.041133,-0.121138,12.18,-39.0,7.02,307.856,-83.4384,83.0284,55.814007,37.50029,204.3014,NaN,0.0,6.0,,24 / 26,,5248,2021-05-04 15:50:58:062
-2.092596,9.25866,-0.165205,-1.12819,9.733366,0.398736,-1.500719,0.03889,-0.077766,12.36,-38.94,6.72,307.856,-83.4384,83.0284,55.814007,37.50029,204.3014,NaN,0.0,6.0,,24 / 26,,5257,2021-05-04 15:50:58:071
-2.092596,9.25866,-0.165205,-1.144359,9.715499,0.685261,-1.619227,0.055994,0.055402,12.36,-38.94,6.72,307.856,-83.4384,83.0284,55.814007,37.50029,204.3014,NaN,0.0,6.0,,24 / 26,,5267,2021-05-04 15:50:58:081
-1.83162,9.081485,0.244216,-1.144359,9.715499,0.685261,-1.735292,0.050497,0.189182,12.96,-39.12,5.4,286.2651,-82.1827,59.0862,55.814007,37.50029,204.3014,NaN,0.0,6.0,,24 / 26,,5278,2021-05-04 15:50:58:092
-1.419805,9.239507,0.533923,-1.115495,9.690325,1.011597,-1.799432,0.071877,0.270427,12.96,-39.12,5.4,286.2651,-82.1827,59.0862,55.814007,37.50029,204.3014,NaN,0.0,6.0,,24 / 26,,5287,2021-05-04 15:50:58:101
-1.017567,8.973742,0.955316,-1.115495,9.690325,1.011597,-1.855632,0.06027,0.312577,12.72,-39.48,3.6,286.2651,-82.1827,59.0862,55.814007,37.50029,204.3014,NaN,0.0,6.0,,24 / 26,,5297,2021-05-04 15:50:58:111
-0.612934,8.76544,1.300091,-1.060341,9.65354,1.361915,-1.892895,0.104253,0.345563,12.72,-39.48,3.6,286.2651,-82.1827,59.0862,55.814007,37.50029,204.3014,NaN,0.0,6.0,,24 / 26,,5307,2021-05-04 15:50:58:121
-0.36393,9.608225,2.16203,-1.060341,9.65354,1.361915,-1.950316,0.092646,0.363889,12.24,-39.42,2.34,263.8068,-79.8629,37.9031,55.814007,37.50029,204.3014,NaN,0.0,6.0,,24 / 26,,5317,2021-05-04 15:50:58:131
-0.36393,9.608225,2.16203,-0.995065,9.601832,1.727667,-1.957036,0.10242,0.33579,12.24,-39.42,2.34,263.8068,-79.8629,37.9031,55.814007,37.50029,204.3014,NaN,0.0,6.0,,24 / 26,,5328,2021-05-04 15:50:58:142
-0.545895,9.93624,3.088615,-0.995065,9.601832,1.727667,-1.88251,0.120746,0.293029,12.18,-39.18,1.2,263.8068,-79.8629,37.9031,55.814007,37.50029,204.3014,NaN,0.0,6.0,,24 / 26,,5337,2021-05-04 15:50:58:151
-0.854756,9.562734,3.553104,-0.939167,9.53504,2.090733,-1.772554,0.036447,0.273481,12.18,-39.18,1.2,263.8068,-79.8629,37.9031,55.814007,37.50029,204.3014,NaN,0.0,6.0,,24 / 26,,5348,2021-05-04 15:50:58:162
-0.849968,9.352037,4.268992,-0.939167,9.53504,2.090733,-1.625947,-0.017309,0.305246,12.06,-38.88,-0.9,251.8841,-76.484,24.1898,55.814007,37.50029,204.3014,NaN,0.0,6.0,,24 / 26,,5357,2021-05-04 15:50:58:171
-0.849968,9.352037,4.268992,-0.885359,9.462612,2.417693,-1.479339,-0.039301,0.324794,12.06,-38.88,-0.9,251.8841,-76.484,24.1898,55.814007,37.50029,204.3014,NaN,0.0,6.0,,24 / 26,,5367,2021-05-04 15:50:58:181
-0.596174,9.131764,4.438986,-0.885359,9.462612,2.417693,-1.479339,-0.039301,0.324794,12.18,-38.1,-2.94,251.8841,-76.484,24.1898,55.814007,37.50029,204.3014,NaN,0.0,6.0,,24 / 26,,5378,2021-05-04 15:50:58:192
-0.249005,9.059936,4.436591,-0.823202,9.393765,2.692534,-1.26798,-0.082061,0.307079,12.0,-38.04,-3.72,251.8841,-76.484,24.1898,55.814007,37.50029,204.3014,NaN,0.0,6.0,,24 / 26,,5387,2021-05-04 15:50:58:201
0.090982,8.743892,4.142096,-0.823202,9.393765,2.692534,-1.049901,-0.077785,0.238662,12.0,-38.04,-3.72,251.8841,-76.484,24.1898,55.814007,37.50029,204.3014,NaN,0.0,6.0,,24 / 26,,5397,2021-05-04 15:50:58:211
0.090982,8.743892,4.142096,-0.768356,9.334888,2.90512,-0.944221,-0.014255,0.181241,12.18,-38.1,-5.04,253.4848,-73.3151,17.0002,55.814007,37.500286,204.2564,NaN,0.0,6.0,,23 / 24,,5408,2021-05-04 15:50:58:222
0.143657,9.086273,3.754223,-0.768356,9.334888,2.90512,-0.91551,0.096311,0.136648,12.18,-38.1,-5.04,253.4848,-73.3151,17.0002,55.814007,37.500286,204.2564,NaN,0.0,6.0,,23 / 24,,5417,2021-05-04 15:50:58:231
-0.172388,9.421472,3.23706,-0.740644,9.281522,3.078152,-0.925284,0.175724,0.084724,11.52,-38.28,-5.34,253.4848,-73.3151,17.0002,55.814007,37.500286,204.2564,NaN,0.0,6.0,,23 / 24,,5427,2021-05-04 15:50:58:241
-0.495615,9.603436,2.466103,-0.740644,9.281522,3.078152,-0.993701,0.162896,0.042574,11.52,-38.28,-5.34,253.4848,-73.3151,17.0002,55.814007,37.500286,204.2564,NaN,0.0,6.0,,23 / 24,,5437,2021-05-04 15:50:58:251
-0.495615,9.603436,2.466103,-0.738826,9.22175,3.253263,-1.129313,0.004682,-0.002019,11.22,-37.8,-6.06,245.1073,-71.1651,13.529,55.814007,37.500286,204.2564,NaN,0.0,6.0,,23 / 24,,5447,2021-05-04 15:50:58:261
-0.790111,9.320911,2.549903,-0.738826,9.22175,3.253263,-1.240491,-0.055794,-0.003241,11.22,-37.8,-6.06,245.1073,-71.1651,13.529,55.814007,37.500286,204.2564,NaN,0.0,6.0,,23 / 24,,5457,2021-05-04 15:50:58:271
-0.893064,8.968953,3.059883,-0.73856,9.144108,3.465535,-1.311351,-0.035025,0.024859,11.1,-37.08,-7.38,245.1073,-71.1651,13.529,55.814007,37.500286,204.2564,NaN,0.0,6.0,,23 / 24,,5468,2021-05-04 15:50:58:282
-0.486038,8.954588,3.282551,-0.73856,9.144108,3.465535,-1.39565,-0.041744,0.024248,11.1,-37.08,-7.38,245.1073,-71.1651,13.529,55.814007,37.500286,204.2564,NaN,0.0,6.0,,23 / 24,,5477,2021-05-04 15:50:58:291
-0.179571,8.906702,3.442967,-0.730479,9.048368,3.709933,-1.454294,-0.020975,-7.97E-4,11.34,-37.2,-7.92,246.5927,-68.8185,12.0307,55.814007,37.500286,204.2564,NaN,0.0,6.0,,23 / 24,,5488,2021-05-04 15:50:58:302
-0.179571,8.906702,3.442967,-0.730479,9.048368,3.709933,-1.550199,-0.005703,-0.047223,11.34,-37.2,-7.92,246.5927,-68.8185,12.0307,55.814007,37.500286,204.2564,NaN,0.0,6.0,,23 / 24,,5497,2021-05-04 15:50:58:311
-0.153234,8.616995,3.423813,-0.73148,8.934806,3.975484,-1.67054,-0.022196,-0.104033,11.4,-36.84,-9.24,246.5927,-68.8185,12.0307,55.814007,37.500286,204.2564,NaN,0.0,6.0,,23 / 24,,5507,2021-05-04 15:50:58:321
-0.284919,8.334471,3.510007,-0.73148,8.934806,3.975484,-1.760948,-0.057627,-0.13702,11.4,-36.84,-9.24,246.5927,-68.8185,12.0307,55.814007,37.500286,204.2564,NaN,0.0,6.0,,23 / 24,,5518,2021-05-04 15:50:58:332
-0.284919,8.334471,3.510007,-0.747231,8.797385,4.268252,-1.760948,-0.057627,-0.13702,10.98,-35.94,-10.2,245.7152,-65.6574,10.4257,55.814007,37.500286,204.2564,NaN,0.0,6.0,,23 / 24,,5527,2021-05-04 15:50:58:341
-0.387873,7.939416,3.617749,-0.747231,8.797385,4.268252,-1.841582,-0.126654,-0.152292,10.98,-35.94,-10.2,245.7152,-65.6574,10.4257,55.814007,37.500286,204.2564,NaN,0.0,6.0,,23 / 24,,5537,2021-05-04 15:50:58:351
-0.459701,7.620977,4.446169,-0.763243,8.633752,4.58759,-1.925882,-0.132763,-0.169396,11.28,-35.82,-11.4,245.7152,-65.6574,10.4257,55.814007,37.500286,204.2564,NaN,0.0,6.0,,23 / 24,,5548,2021-05-04 15:50:58:362
-1.098972,7.673651,4.321666,-0.763243,8.633752,4.58759,-1.878234,0.076153,-0.159011,11.28,-35.82,-11.4,245.7152,-65.6574,10.4257,55.814007,37.500286,204.2564,NaN,0.0,6.0,,23 / 24,,5557,2021-05-04 15:50:58:371
-1.65205,7.759845,4.522785,-0.78908,8.451986,4.910349,-1.917329,0.084094,-0.107699,11.82,-35.28,-13.5,249.7789,-61.6905,9.4459,55.814007,37.500286,204.2564,NaN,0.0,6.0,,23 / 24,,5567,2021-05-04 15:50:58:381
-1.65205,7.759845,4.522785,-0.78908,8.451986,4.910349,-1.993077,0.002849,0.001035,11.82,-35.28,-13.5,249.7789,-61.6905,9.4459,55.814007,37.500286,204.2564,NaN,0.0,6.0,,23 / 24,,5577,2021-05-04 15:50:58:391
-1.903448,8.085467,5.355993,-0.798233,8.252293,5.237626,-2.018122,0.002238,0.114656,11.46,-34.56,-14.58,249.7789,-61.6905,9.4459,55.814007,37.500286,204.2564,NaN,0.0,6.0,,23 / 24,,5587,2021-05-04 15:50:58:401
-1.872323,7.340847,5.985688,-0.798233,8.252293,5.237626,-2.011403,-0.088781,0.22339,11.46,-34.56,-14.58,249.7789,-61.6905,9.4459,55.814007,37.500286,204.2564,NaN,0.0,6.0,,23 / 24,,5597,2021-05-04 15:50:58:411
-1.357554,7.020014,6.780586,-0.760244,8.039339,5.564296,-1.915497,-0.220117,0.33579,11.64,-33.84,-15.36,245.5369,-57.2989,8.6654,55.814007,37.500286,204.2564,NaN,0.0,6.0,,23 / 24,,5607,2021-05-04 15:50:58:421
-0.766168,7.077477,7.276201,-0.760244,8.039339,5.564296,-1.785993,-0.281203,0.43475,11.64,-33.84,-15.36,245.5369,-57.2989,8.6654,55.814007,37.500286,204.2564,NaN,0.0,6.0,,23 / 24,,5618,2021-05-04 15:50:58:432
-0.766168,7.077477,7.276201,-0.667432,7.83642,5.857929,-1.636942,-0.338625,0.475678,11.82,-32.88,-16.92,245.5369,-57.2989,8.6654,55.814007,37.500286,204.2564,NaN,0.0,6.0,,23 / 24,,5627,2021-05-04 15:50:58:441
-0.426181,7.008043,7.699988,-0.667432,7.83642,5.857929,-1.463456,-0.326407,0.500112,11.82,-32.88,-16.92,245.5369,-57.2989,8.6654,55.814007,37.500286,204.2564,NaN,0.0,6.0,,23 / 24,,5637,2021-05-04 15:50:58:451
-0.378295,6.876357,7.637737,-0.551993,7.660952,6.097164,-1.285084,-0.328851,0.535543,11.16,-32.34,-18.6,250.2117,-53.0436,6.5001,55.814007,37.500286,204.2564,NaN,0.0,6.0,,23 / 24,,5647,2021-05-04 15:50:58:461
-0.198725,7.197191,7.666468,-0.551993,7.660952,6.097164,-1.163522,-0.323964,0.544095,11.16,-32.34,-18.6,250.2117,-53.0436,6.5001,55.814007,37.500286,204.2564,NaN,0.0,6.0,,23 / 24,,5657,2021-05-04 15:50:58:471
0.0,7.417464,7.474926,-0.430391,7.514449,6.286339,-1.055399,-0.265321,0.51966,10.56,-31.74,-19.2,250.2117,-53.0436,6.5001,55.814007,37.500286,204.2564,NaN,0.0,6.0,,23 / 24,,5667,2021-05-04 15:50:58:481
0.0,7.417464,7.474926,-0.430391,7.514449,6.286339,-0.98576,-0.251882,0.476289,10.56,-31.74,-19.2,250.2117,-53.0436,6.5001,55.814007,37.500286,204.2564,NaN,0.0,6.0,,23 / 24,,5677,2021-05-04 15:50:58:491
0.174782,7.424647,7.333664,-0.323723,7.388048,6.440673,-0.955217,-0.188352,0.426809,10.44,-31.2,-20.28,244.5078,-50.0193,3.9166,55.814007,37.500286,204.2564,NaN,0.0,6.0,,23 / 24,,5687,2021-05-04 15:50:58:501
0.287313,7.288173,7.106208,-0.323723,7.388048,6.440673,-0.947886,-0.126654,0.374274,10.44,-31.2,-20.28,244.5078,-50.0193,3.9166,55.814007,37.500286,204.2564,NaN,0.0,6.0,,23 / 24,,5697,2021-05-04 15:50:58:511
0.124502,6.869175,6.974523,-0.243121,7.266317,6.581176,-0.971099,-0.092446,0.345563,10.14,-30.78,-21.72,244.5078,-50.0193,3.9166,55.814007,37.500286,204.2564,NaN,0.0,6.0,,23 / 24,,5707,2021-05-04 15:50:58:521
-0.148445,6.629747,6.706364,-0.243121,7.266317,6.581176,-1.03524,-0.105274,0.352283,10.14,-30.78,-21.72,244.5078,-50.0193,3.9166,55.814007,37.500286,204.2564,NaN,0.0,6.0,,23 / 24,,5717,2021-05-04 15:50:58:531
-0.24661,6.907483,6.828472,-0.179001,7.135325,6.724988,-1.088385,-0.103441,0.367555,9.42,-30.6,-22.86,246.4999,-47.8131,2.1157,55.814007,37.500286,204.2564,NaN,0.0,6.0,,23 / 24,,5727,2021-05-04 15:50:58:541
-0.24661,6.907483,6.828472,-0.179001,7.135325,6.724988,-1.163522,-0.086337,0.372442,9.42,-30.6,-22.86,246.4999,-47.8131,2.1157,55.814007,37.500286,204.2564,NaN,0.0,6.0,,23 / 24,,5737,2021-05-04 15:50:58:551
-0.10056,6.929032,6.67045,-0.11375,6.984655,6.882733,-1.291193,-0.080229,0.379772,8.7,-30.3,-23.64,246.4999,-47.8131,2.1157,55.814007,37.500286,204.2564,NaN,0.0,6.0,,23 / 24,,5747,2021-05-04 15:50:58:561
