ACCELEROMETER X (m/s²),ACCELEROMETER Y (m/s²),ACCELEROMETER Z (m/s²),GRAVITY X (m/s²),GRAVITY Y (m/s²),GRAVITY Z (m/s²),GYROSCOPE X (rad/s),GYROSCOPE Y (rad/s),GYROSCOPE Z (rad/s),MAGNETIC FIELD X (μT),MAGNETIC FIELD Y (μT),MAGNETIC FIELD Z (μT),ORIENTATION Z (azimuth °),ORIENTATION X (pitch °),ORIENTATION Y (roll °),LOCATION Latitude : ,LOCATION Longitude : ,LOCATION Altitude ( m),LOCATION Altitude-google ( m),LOCATION Speed ( m/s),LOCATION Accuracy ( m),LOCATION ORIENTATION (°),Satellites in range,GPS NMEA,Time since start in ms ,YYYY-MO-DD HH-MI-SS_SSS
0.292102,-0.112531,9.675264,0.070288,-0.058093,9.806227,-0.175753,0.13052,0.613733,7.14,-1.38,-39.78,261.134,0.3706,-0.0406,55.814007,37.500286,204.4632,NaN,0.0,6.0,,21 / 25,,11,2021-05-04 15:51:03:881
0.153234,0.019154,9.58907,0.04345,-0.091312,9.806129,-0.170255,0.093868,0.596018,6.78,-1.26,-39.6,260.3678,0.3394,-0.4107,55.814007,37.500286,204.4632,NaN,0.0,6.0,,21 / 25,,21,2021-05-04 15:51:03:891
0.069434,0.107742,9.581888,0.04345,-0.091312,9.806129,-0.15254,0.037668,0.572194,6.78,-1.26,-39.6,260.3678,0.3394,-0.4107,55.814007,37.500286,204.4632,NaN,0.0,6.0,,21 / 25,,32,2021-05-04 15:51:03:902
0.088588,0.131685,9.636956,0.027863,-0.124305,9.805823,-0.140322,-0.008757,0.556923,7.08,-0.84,-40.14,260.3678,0.3394,-0.4107,55.814007,37.500286,204.4632,NaN,0.0,6.0,,21 / 25,,42,2021-05-04 15:51:03:912
0.088588,0.131685,9.636956,0.027863,-0.124305,9.805823,-0.089621,-0.041744,0.538597,7.08,-0.84,-40.14,260.3678,0.3394,-0.4107,55.814007,37.500286,204.4632,NaN,0.0,6.0,,21 / 25,,51,2021-05-04 15:51:03:921
0.064645,-0.019154,10.582695,0.032167,-0.149019,9.805465,-0.002878,-0.013033,0.539819,7.02,-0.24,-39.9,265.9252,0.7263,-0.1628,55.814007,37.500286,204.4632,NaN,0.0,6.0,,21 / 25,,61,2021-05-04 15:51:03:931
0.081405,-0.086194,10.113417,0.032167,-0.149019,9.805465,0.025833,-0.019753,0.544095,7.02,-0.24,-39.9,265.9252,0.7263,-0.1628,55.814007,37.500286,204.4632,NaN,0.0,6.0,,21 / 25,,71,2021-05-04 15:51:03:941
0.138868,-0.153234,9.75667,0.034507,-0.148331,9.805468,-0.018149,0.001016,0.548982,7.14,0.0,-39.0,265.9252,0.7263,-0.1628,55.814007,37.500286,204.4632,NaN,0.0,6.0,,21 / 25,,81,2021-05-04 15:51:03:951
0.071828,-0.272947,9.797373,0.034507,-0.148331,9.805468,-0.07496,0.084705,0.57586,7.14,0.0,-39.0,265.9252,0.7263,-0.1628,55.814007,37.500286,204.4632,NaN,0.0,6.0,,21 / 25,,92,2021-05-04 15:51:03:962
0.071828,-0.272947,9.797373,0.026415,-0.156054,9.805373,-0.137879,0.205656,0.632059,7.26,-0.12,-39.48,265.2782,0.8667,-0.2016,55.814007,37.500286,204.4632,NaN,0.0,6.0,,21 / 25,,101,2021-05-04 15:51:03:971
-0.007183,-0.320833,9.696813,0.026415,-0.156054,9.805373,-0.167811,0.239865,0.6681,7.26,-0.12,-39.48,265.2782,0.8667,-0.2016,55.814007,37.500286,204.4632,NaN,0.0,6.0,,21 / 25,,111,2021-05-04 15:51:03:981
-0.055068,-0.287313,9.816526,-0.016,-0.183247,9.804925,-0.174531,0.238032,0.698644,7.2,-0.72,-39.78,265.2782,0.8667,-0.2016,55.814007,37.500286,204.4632,NaN,0.0,6.0,,21 / 25,,122,2021-05-04 15:51:03:992
-0.081405,-0.172388,9.797373,-0.016,-0.183247,9.804925,-0.169644,0.192828,0.732241,7.2,-0.72,-39.78,265.2782,0.8667,-0.2016,55.814007,37.500286,204.4632,NaN,0.0,6.0,,21 / 25,,131,2021-05-04 15:51:04:001
-0.021548,-0.124502,9.759064,-0.064007,-0.216624,9.804049,-0.178196,0.154344,0.750567,7.56,-1.08,-39.48,257.7109,1.0707,0.0935,55.814007,37.500286,204.4632,NaN,0.0,6.0,,21 / 25,,141,2021-05-04 15:51:04:011
-0.021548,-0.124502,9.759064,-0.064007,-0.216624,9.804049,-0.178196,0.154344,0.750567,7.56,-1.08,-39.48,257.7109,1.0707,0.0935,55.814007,37.500286,204.4632,NaN,0.0,6.0,,21 / 25,,152,2021-05-04 15:51:04:022
0.155628,-0.174782,9.921875,-0.098908,-0.249811,9.802969,-0.192857,0.118303,0.764006,7.56,-1.2,-39.54,257.7109,1.0707,0.0935,55.814007,37.500286,204.4632,NaN,0.0,6.0,,21 / 25,,161,2021-05-04 15:51:04:031
0.196331,-0.26337,10.032011,-0.098908,-0.249811,9.802969,-0.192246,0.085927,0.767671,7.56,-1.2,-39.54,257.7109,1.0707,0.0935,55.814007,37.500286,204.4632,NaN,0.0,6.0,,21 / 25,,172,2021-05-04 15:51:04:042
0.196331,-0.26337,10.032011,-0.12189,-0.285687,9.801729,-0.18125,0.07432,0.746902,7.56,-1.2,-39.42,255.302,1.4597,0.5781,55.814007,37.500286,204.4632,NaN,0.0,6.0,,21 / 25,,181,2021-05-04 15:51:04:051
0.172388,-0.356747,10.032011,-0.12189,-0.285687,9.801729,-0.161092,0.040723,0.722467,7.56,-1.2,-39.42,255.302,1.4597,0.5781,55.814007,37.500286,204.4632,NaN,0.0,6.0,,21 / 25,,191,2021-05-04 15:51:04:061
0.055068,-0.452518,10.290593,-0.13714,-0.317124,9.800562,-0.109168,0.018121,0.712083,7.5,-0.66,-39.54,255.302,1.4597,0.5781,55.814007,37.500286,204.4632,NaN,0.0,6.0,,21 / 25,,202,2021-05-04 15:51:04:072
-0.134079,-0.550683,10.376787,-0.13714,-0.317124,9.800562,-0.027312,0.026673,0.713915,7.5,-0.66,-39.54,255.302,1.4597,0.5781,55.814007,37.500286,204.4632,NaN,0.0,6.0,,21 / 25,,211,2021-05-04 15:51:04:081
-0.36393,-0.718282,10.254679,-0.145717,-0.328387,9.800067,0.08753,0.026673,0.7524,7.44,-0.42,-40.02,258.6164,1.8531,0.8017,55.814007,37.500286,204.4632,NaN,0.0,6.0,,21 / 25,,221,2021-05-04 15:51:04:091
-0.36393,-0.718282,10.254679,-0.145717,-0.328387,9.800067,0.127847,0.008347,0.80921,7.44,-0.42,-40.02,258.6164,1.8531,0.8017,55.814007,37.500286,204.4632,NaN,0.0,6.0,,21 / 25,,231,2021-05-04 15:51:04:101
-0.737437,-0.883487,9.799767,-0.154479,-0.307196,9.80062,0.113187,0.020564,0.92894,7.26,-0.3,-39.78,258.6164,1.8531,0.8017,55.814007,37.500286,204.4632,NaN,0.0,6.0,,21 / 25,,241,2021-05-04 15:51:04:111
-0.684763,-0.792505,9.378374,-0.154479,-0.307196,9.80062,0.045991,0.065768,1.019348,7.26,-0.3,-39.78,258.6164,1.8531,0.8017,55.814007,37.500286,204.4632,NaN,0.0,6.0,,21 / 25,,252,2021-05-04 15:51:04:122
-0.390267,-0.663214,9.569917,-0.16567,-0.284708,9.801116,-0.037086,0.136018,1.08471,7.5,-0.24,-39.06,260.5773,1.7951,0.903,55.814007,37.500286,204.4632,NaN,0.0,6.0,,21 / 25,,261,2021-05-04 15:51:04:131
-0.390267,-0.663214,9.569917,-0.16567,-0.284708,9.801116,-0.100005,0.212987,1.124417,7.5,-0.24,-39.06,260.5773,1.7951,0.903,55.814007,37.500286,204.4632,NaN,0.0,6.0,,21 / 25,,271,2021-05-04 15:51:04:141
-0.153234,-0.620117,9.689631,-0.200836,-0.289299,9.800323,-0.153151,0.268575,1.143353,7.02,-0.84,-39.3,260.5773,1.7951,0.903,55.814007,37.500286,204.4632,NaN,0.0,6.0,,21 / 25,,282,2021-05-04 15:51:04:152
-0.177176,-0.59378,9.634562,-0.22888,-0.300663,9.799367,-0.182472,0.268575,1.167788,6.72,-0.6,-39.24,260.5773,1.7951,0.903,55.814007,37.500286,204.4632,NaN,0.0,6.0,,21 / 25,,291,2021-05-04 15:51:04:161
-0.392661,-0.572232,9.536397,-0.22888,-0.300663,9.799367,-0.186748,0.219706,1.203218,6.72,-0.6,-39.24,260.5773,1.7951,0.903,55.814007,37.500286,204.4632,NaN,0.0,6.0,,21 / 25,,301,2021-05-04 15:51:04:171
-0.392661,-0.572232,9.536397,-0.289041,-0.329914,9.796836,-0.186748,0.219706,1.203218,6.96,-0.6,-39.0,250.1308,1.7569,1.338,55.814007,37.500286,204.4632,NaN,0.0,6.0,,21 / 25,,312,2021-05-04 15:51:04:182
-0.524346,-0.531529,9.414289,-0.289041,-0.329914,9.796836,-0.178807,0.099366,1.265527,6.96,-0.6,-39.0,250.1308,1.7569,1.338,55.814007,37.500286,204.4632,NaN,0.0,6.0,,21 / 25,,321,2021-05-04 15:51:04:191
-0.581809,-0.450124,9.574705,-0.322109,-0.3586,9.794797,-0.156816,-0.016699,1.325391,7.5,-1.5,-39.12,250.1308,1.7569,1.338,55.814007,37.500286,204.4632,NaN,0.0,6.0,,21 / 25,,332,2021-05-04 15:51:04:202
-0.663214,-0.567443,9.759064,-0.325352,-0.369853,9.794271,-0.142766,-0.035025,1.377315,7.44,-1.68,-39.3,250.1308,1.7569,1.338,55.814007,37.500282,204.2417,NaN,0.0,6.0,,22 / 25,,342,2021-05-04 15:51:04:212
-0.905036,-0.859545,9.857229,-0.325352,-0.369853,9.794271,-0.158648,0.028505,1.438401,7.44,-1.68,-39.3,250.1308,1.7569,1.338,55.814007,37.500282,204.2417,NaN,0.0,6.0,,22 / 25,,351,2021-05-04 15:51:04:221
-0.905036,-0.859545,9.857229,-0.333432,-0.389879,9.793221,-0.196522,0.115248,1.530642,7.44,-1.02,-39.36,246.5076,2.1614,1.9026,55.814007,37.500282,204.2417,NaN,0.0,6.0,,22 / 25,,361,2021-05-04 15:51:04:231
-1.357554,-1.098972,10.290593,-0.333432,-0.389879,9.793221,-0.211794,0.242919,1.658924,7.44,-1.02,-39.36,246.5076,2.1614,1.9026,55.814007,37.500282,204.2417,NaN,0.0,6.0,,22 / 25,,371,2021-05-04 15:51:04:241
-1.261783,-1.249811,10.403124,-0.368129,-0.417284,9.79085,-0.230731,0.375477,1.792703,7.14,-0.48,-39.9,246.5076,2.1614,1.9026,55.814007,37.500282,204.2417,NaN,0.0,6.0,,22 / 25,,381,2021-05-04 15:51:04:251
-0.842785,-1.403045,10.108628,-0.368129,-0.417284,9.79085,-0.24417,0.442061,1.894718,7.14,-0.48,-39.9,246.5076,2.1614,1.9026,55.814007,37.500282,204.2417,NaN,0.0,6.0,,22 / 25,,392,2021-05-04 15:51:04:262
-0.596174,-1.331217,9.852441,-0.454967,-0.447856,9.785848,-0.227065,0.407853,1.960691,7.38,-0.84,-39.78,243.7274,2.4387,2.1533,55.814007,37.500282,204.2417,NaN,0.0,6.0,,22 / 25,,402,2021-05-04 15:51:04:272
-0.596174,-1.331217,9.852441,-0.454967,-0.447856,9.785848,-0.249056,0.308282,1.971076,7.38,-0.84,-39.78,243.7274,2.4387,2.1533,55.814007,37.500282,204.2417,NaN,0.0,6.0,,22 / 25,,411,2021-05-04 15:51:04:281
-0.385478,-1.087001,9.380769,-0.553616,-0.474158,9.779523,-0.242337,0.172059,1.964967,7.98,-0.84,-39.18,243.7274,2.4387,2.1533,55.814007,37.500282,204.2417,NaN,0.0,6.0,,22 / 25,,421,2021-05-04 15:51:04:291
-0.359141,-0.821236,9.29218,-0.553616,-0.474158,9.779523,-0.158038,-0.058848,1.91732,7.98,-0.84,-39.18,243.7274,2.4387,2.1533,55.814007,37.500282,204.2417,NaN,0.0,6.0,,22 / 25,,432,2021-05-04 15:51:04:302
-0.399844,-0.428575,9.294575,-0.602427,-0.496922,9.775507,-0.081069,-0.268986,1.841572,7.74,-1.32,-39.24,243.3409,2.7714,3.24,55.814007,37.500282,204.2417,NaN,0.0,6.0,,22 / 25,,441,2021-05-04 15:51:04:311
-0.490826,-0.150839,9.565128,-0.602427,-0.496922,9.775507,-0.081069,-0.268986,1.841572,7.74,-1.32,-39.24,243.3409,2.7714,3.24,55.814007,37.500282,204.2417,NaN,0.0,6.0,,22 / 25,,451,2021-05-04 15:51:04:321
-0.490826,-0.150839,9.565128,-0.573191,-0.494523,9.777387,-0.030978,-0.49806,1.733449,8.16,-1.32,-39.78,243.3409,2.7714,3.24,55.814007,37.500282,204.2417,NaN,0.0,6.0,,22 / 25,,462,2021-05-04 15:51:04:332
-0.383084,-0.256187,10.075109,-0.573191,-0.494523,9.777387,0.008729,-0.508445,1.688856,8.16,-1.32,-39.78,243.3409,2.7714,3.24,55.814007,37.500282,204.2417,NaN,0.0,6.0,,22 / 25,,471,2021-05-04 15:51:04:341
-0.306467,-0.56026,10.134965,-0.489766,-0.478087,9.782738,0.00262,-0.423535,1.680915,7.98,-1.74,-39.42,235.0643,2.8905,3.3551,55.814007,37.500282,204.2417,NaN,0.0,6.0,,22 / 25,,481,2021-05-04 15:51:04:351
-0.483643,-0.837996,10.211582,-0.489766,-0.478087,9.782738,-0.03281,-0.283647,1.69863,7.98,-1.74,-39.42,235.0643,2.8905,3.3551,55.814007,37.500282,204.2417,NaN,0.0,6.0,,22 / 25,,491,2021-05-04 15:51:04:361
-0.615329,-0.943344,10.101445,-0.436593,-0.465812,9.785847,-0.06824,-0.104663,1.759716,6.42,-2.46,-39.6,235.0643,2.8905,3.3551,55.814007,37.500282,204.2417,NaN,0.0,6.0,,22 / 25,,501,2021-05-04 15:51:04:371
-0.615329,-0.943344,10.101445,-0.436593,-0.465812,9.785847,-0.103671,0.05966,1.848292,6.42,-2.46,-39.6,235.0643,2.8905,3.3551,55.814007,37.500282,204.2417,NaN,0.0,6.0,,22 / 25,,511,2021-05-04 15:51:04:381
-0.600963,-1.015172,9.550762,-0.449122,-0.467261,9.785211,-0.156816,0.166561,1.935035,5.88,-2.28,-40.14,227.1348,2.7226,2.5545,55.814007,37.500282,204.2417,NaN,0.0,6.0,,22 / 25,,521,2021-05-04 15:51:04:391
-0.486038,-0.94095,9.12937,-0.449122,-0.467261,9.785211,-0.195911,0.1238,1.974741,5.88,-2.28,-40.14,227.1348,2.7226,2.5545,55.814007,37.500282,204.2417,NaN,0.0,6.0,,22 / 25,,531,2021-05-04 15:51:04:401
-0.134079,-0.61054,9.160496,-0.497295,-0.481814,9.782175,-0.227065,-0.036857,1.969854,5.88,-2.28,-39.72,227.1348,2.7226,2.5545,55.814007,37.500282,204.2417,NaN,0.0,6.0,,22 / 25,,541,2021-05-04 15:51:04:411
-0.134079,-0.61054,9.160496,-0.497295,-0.481814,9.782175,-0.227065,-0.225004,1.91732,5.88,-2.28,-39.72,227.1348,2.7226,2.5545,55.814007,37.500282,204.2417,NaN,0.0,6.0,,22 / 25,,551,2021-05-04 15:51:04:421
0.181965,-0.237033,9.522031,-0.495363,-0.506983,9.781,-0.206296,-0.392992,1.803699,6.06,-2.58,-39.12,219.1682,2.8162,2.9102,55.814007,37.500282,204.2417,NaN,0.0,6.0,,22 / 25,,562,2021-05-04 15:51:04:432
0.29689,0.021548,9.948212,-0.495363,-0.506983,9.781,-0.121386,-0.56159,1.648539,6.06,-2.58,-39.12,219.1682,2.8162,2.9102,55.814007,37.500282,204.2417,NaN,0.0,6.0,,22 / 25,,571,2021-05-04 15:51:04:441
0.201119,-0.023943,10.36721,-0.425469,-0.526138,9.783278,-0.036475,-0.598242,1.527588,6.24,-2.34,-39.0,219.1682,2.8162,2.9102,55.814007,37.500282,204.2417,NaN,0.0,6.0,,22 / 25,,582,2021-05-04 15:51:04:452
0.201119,-0.023943,10.36721,-0.375216,-0.527281,9.785274,0.023389,-0.532269,1.489714,6.24,-2.34,-39.0,219.1682,2.8162,2.9102,55.814007,37.500282,204.2417,NaN,0.0,6.0,,22 / 25,,592,2021-05-04 15:51:04:462
-0.081405,-0.581809,10.446221,-0.375216,-0.527281,9.785274,0.065539,-0.439417,1.509873,5.28,-2.46,-39.54,219.8045,3.0822,2.1959,55.814007,37.500282,204.2417,NaN,0.0,6.0,,22 / 25,,602,2021-05-04 15:51:04:472
-0.498009,-0.988835,10.10384,-0.28489,-0.514435,9.789002,0.078367,-0.336181,1.579511,5.28,-2.46,-39.54,219.8045,3.0822,2.1959,55.814007,37.500282,204.2417,NaN,0.0,6.0,,22 / 25,,611,2021-05-04 15:51:04:481
-0.732648,-1.094184,9.61062,-0.28489,-0.514435,9.789002,0.01667,-0.234778,1.680915,4.8,-2.52,-39.54,219.8045,3.0822,2.1959,55.814007,37.500282,204.2417,NaN,0.0,6.0,,22 / 25,,622,2021-05-04 15:51:04:492
-0.641666,-1.070241,9.469357,-0.233392,-0.493143,9.791462,0.01667,-0.234778,1.680915,4.8,-2.52,-39.54,219.8045,3.0822,2.1959,55.814007,37.500282,204.2417,NaN,0.0,6.0,,22 / 25,,631,2021-05-04 15:51:04:501
-0.641666,-1.070241,9.469357,-0.233392,-0.493143,9.791462,-0.090232,-0.13032,1.807364,4.5,-2.4,-39.42,225.7499,2.8824,1.3655,55.814007,37.500282,204.2417,NaN,0.0,6.0,,22 / 25,,641,2021-05-04 15:51:04:511
-0.392661,-0.933767,9.500483,-0.221082,-0.498354,9.791484,-0.191635,-0.025251,1.879446,4.5,-2.4,-39.42,225.7499,2.8824,1.3655,55.814007,37.500282,204.2417,NaN,0.0,6.0,,22 / 25,,652,2021-05-04 15:51:04:522
-0.136474,-0.739831,9.658504,-0.221082,-0.498354,9.791484,-0.260052,0.023008,1.905102,3.9,-2.28,-39.42,225.7499,2.8824,1.3655,55.814007,37.500282,204.2417,NaN,0.0,6.0,,22 / 25,,661,2021-05-04 15:51:04:531
0.177176,-0.486038,9.682447,-0.243074,-0.537139,9.788911,-0.319306,0.021175,1.861731,3.9,-2.28,-39.42,225.7499,2.8824,1.3655,55.814007,37.500282,204.2417,NaN,0.0,6.0,,22 / 25,,671,2021-05-04 15:51:04:541
0.316044,-0.24661,9.988914,-0.243074,-0.537139,9.788911,-0.285708,-0.035025,1.812251,2.82,-1.86,-38.7,206.1498,3.1398,1.4225,55.814007,37.500282,204.2417,NaN,0.0,6.0,,22 / 25,,681,2021-05-04 15:51:04:551
0.356747,-0.239427,9.981731,-0.262278,-0.587262,9.785536,-0.200187,-0.086337,1.734671,2.76,-1.74,-39.12,206.1498,3.1398,1.4225,55.814007,37.500282,204.2417,NaN,0.0,6.0,,22 / 25,,692,2021-05-04 15:51:04:562
0.356747,-0.239427,9.981731,-0.262278,-0.587262,9.785536,-0.10306,-0.184687,1.617996,2.76,-1.74,-39.12,206.1498,3.1398,1.4225,55.814007,37.500282,204.2417,NaN,0.0,6.0,,22 / 25,,702,2021-05-04 15:51:04:572
0.275342,-0.318439,9.754275,-0.258798,-0.61047,9.784208,-0.056023,-0.277538,1.547746,2.34,-1.38,-38.94,206.1498,3.1398,1.4225,55.814007,37.500282,204.2417,NaN,0.0,6.0,,22 / 25,,712,2021-05-04 15:51:04:582
0.114925,-0.440547,9.708784,-0.258798,-0.61047,9.784208,-0.076792,-0.290977,1.494601,2.34,-1.38,-38.94,206.1498,3.1398,1.4225,55.814007,37.500282,204.2417,NaN,0.0,6.0,,22 / 25,,722,2021-05-04 15:51:04:592
-0.038308,-0.859545,9.778218,-0.223227,-0.614831,9.784812,-0.076792,-0.290977,1.494601,2.7,-1.8,-39.0,203.9598,3.569,1.5152,55.814007,37.500282,204.2417,NaN,0.0,6.0,,22 / 25,,731,2021-05-04 15:51:04:601
-0.038308,-0.859545,9.778218,-0.223227,-0.614831,9.784812,-0.135436,-0.190795,1.507429,2.7,-1.8,-39.0,203.9598,3.569,1.5152,55.814007,37.500282,204.2417,NaN,0.0,6.0,,22 / 25,,741,2021-05-04 15:51:04:611
-0.150839,-1.168406,9.885961,-0.197874,-0.631134,9.784319,-0.179418,-0.06007,1.566072,2.76,-2.4,-39.06,203.9598,3.569,1.5152,55.814007,37.500282,204.2417,NaN,0.0,6.0,,22 / 25,,751,2021-05-04 15:51:04:621
-0.222668,-1.247417,9.682447,-0.197874,-0.631134,9.784319,-0.204463,0.040723,1.64182,2.76,-2.4,-39.06,203.9598,3.569,1.5152,55.814007,37.500282,204.2417,NaN,0.0,6.0,,22 / 25,,761,2021-05-04 15:51:04:631
0.023943,-0.964893,9.553157,-0.219277,-0.662855,9.781765,-0.224011,0.055994,1.721843,1.92,-2.4,-39.36,195.0373,3.69,1.1586,55.814007,37.500282,204.2417,NaN,0.0,6.0,,22 / 25,,771,2021-05-04 15:51:04:641
0.354353,-0.596174,9.567522,-0.219277,-0.662855,9.781765,-0.216681,-0.007536,1.726119,1.92,-2.4,-39.36,195.0373,3.69,1.1586,55.814007,37.500282,204.2417,NaN,0.0,6.0,,22 / 25,,781,2021-05-04 15:51:04:651
0.354353,-0.596174,9.567522,-0.247682,-0.698236,9.778625,-0.264328,-0.031359,1.64243,1.5,-1.44,-39.72,195.0373,3.69,1.1586,55.814007,37.500282,204.2417,NaN,0.0,6.0,,22 / 25,,791,2021-05-04 15:51:04:661
0.39745,-0.61054,9.636956,-0.247682,-0.698236,9.778625,-0.249056,-0.046631,1.583176,1.5,-1.44,-39.72,195.0373,3.69,1.1586,55.814007,37.500282,204.2417,NaN,0.0,6.0,,22 / 25,,801,2021-05-04 15:51:04:671
0.375901,-0.553077,9.75667,-0.262865,-0.741076,9.775076,-0.238672,-0.050296,1.545914,1.92,-1.32,-39.78,194.3789,4.0829,1.4509,55.814007,37.500282,204.2417,NaN,0.0,6.0,,22 / 25,,811,2021-05-04 15:51:04:681
0.375901,-0.553077,9.75667,-0.262865,-0.741076,9.775076,-0.208129,-0.121157,1.454895,1.92,-1.32,-39.78,194.3789,4.0829,1.4509,55.814007,37.500282,204.2417,NaN,0.0,6.0,,22 / 25,,821,2021-05-04 15:51:04:691
0.284919,-0.687157,9.833286,-0.270401,-0.777932,9.772005,-0.182472,-0.121157,1.425573,2.04,-1.8,-39.48,194.3789,4.0829,1.4509,55.814007,37.500282,204.2417,NaN,0.0,6.0,,22 / 25,,831,2021-05-04 15:51:04:701
0.093377,-0.883487,9.826104,-0.270401,-0.777932,9.772005,-0.182472,-0.121157,1.425573,2.04,-1.8,-39.48,194.3789,4.0829,1.4509,55.814007,37.500282,204.2417,NaN,0.0,6.0,,22 / 25,,841,2021-05-04 15:51:04:711
-0.098165,-0.972076,9.751882,-0.268677,-0.805816,9.769794,-0.149485,-0.110772,1.413356,1.56,-0.78,-38.76,194.3789,4.0829,1.4509,55.814007,37.500282,204.2417,NaN,0.0,6.0,,22 / 25,,851,2021-05-04 15:51:04:721
-0.215485,-1.039115,9.708784,-0.268677,-0.805816,9.769794,-0.122607,-0.116881,1.420686,1.56,-0.78,-38.76,194.3789,4.0829,1.4509,55.814007,37.500282,204.2417,NaN,0.0,6.0,,22 / 25,,861,2021-05-04 15:51:04:731
-0.215485,-1.039115,9.708784,-0.268693,-0.823743,9.768298,-0.12444,-0.101609,1.446954,1.32,0.0,-39.06,178.7044,4.7133,1.5753,55.814007,37.500282,204.2417,NaN,0.0,6.0,,22 / 25,,871,2021-05-04 15:51:04:741
-0.210696,-1.022355,9.701602,-0.268693,-0.823743,9.768298,-0.13849,-0.078396,1.464058,1.32,0.0,-39.06,178.7044,4.7133,1.5753,55.814007,37.500282,204.2417,NaN,0.0,6.0,,22 / 25,,881,2021-05-04 15:51:04:751
-0.107742,-0.859545,9.850046,-0.27474,-0.84158,9.766609,-0.146431,-0.071066,1.46528,0.78,-0.12,-39.72,178.7044,4.7133,1.5753,55.814007,37.500282,204.2417,NaN,0.0,6.0,,22 / 25,,892,2021-05-04 15:51:04:762
-0.107742,-0.859545,9.850046,-0.27474,-0.84158,9.766609,-0.101227,-0.06007,1.448786,0.78,-0.12,-39.72,178.7044,4.7133,1.5753,55.814007,37.500282,204.2417,NaN,0.0,6.0,,22 / 25,,901,2021-05-04 15:51:04:771
-0.059857,-0.778139,10.190034,-0.285507,-0.860368,9.764663,-0.038919,-0.047853,1.434125,0.66,-0.36,-39.24,178.3395,4.923,1.6113,55.814007,37.500282,204.2417,NaN,0.0,6.0,,22 / 25,,911,2021-05-04 15:51:04:781
-0.05028,-0.804476,10.08708,-0.285507,-0.860368,9.764663,0.008118,-0.034414,1.424352,0.66,-0.36,-39.24,178.3395,4.923,1.6113,55.814007,37.500282,204.2417,NaN,0.0,6.0,,22 / 25,,921,2021-05-04 15:51:04:791
-0.074223,-0.900247,9.890749,-0.300349,-0.860702,9.764188,0.008118,-0.034414,1.424352,0.66,-0.36,-38.76,178.3395,4.923,1.6113,55.814007,37.500282,204.2417,NaN,0.0,6.0,,22 / 25,,931,2021-05-04 15:51:04:801
-0.074223,-0.900247,9.890749,-0.300349,-0.860702,9.764188,0.027055,4.06E-4,1.43046,0.66,-0.36,-38.76,178.3395,4.923,1.6113,55.814007,37.500282,204.2417,NaN,0.0,6.0,,22 / 25,,942,2021-05-04 15:51:04:812
-0.126897,-1.070241,9.799767,-0.322888,-0.847379,9.764633,0.024611,0.050497,1.443288,0.66,-0.3,-39.18,176.6645,5.0352,1.7619,55.814007,37.500282,204.2417,NaN,0.0,6.0,,22 / 25,,951,2021-05-04 15:51:04:821
-0.217879,-1.18756,9.620196,-0.341552,-0.840447,9.764599,0.019724,0.11647,1.468945,1.02,-0.24,-39.18,176.6645,5.0352,1.7619,55.814007,37.500282,204.2417,NaN,0.0,6.0,,22 / 25,,962,2021-05-04 15:51:04:832
-0.316044,-1.094184,9.194016,-0.341552,-0.840447,9.764599,-0.007765,0.121357,1.504986,1.02,-0.24,-39.18,176.6645,5.0352,1.7619,55.814007,37.500282,204.2417,NaN,0.0,6.0,,22 / 25,,971,2021-05-04 15:51:04:841
-0.217879,-0.837996,9.06233,-0.39001,-0.829222,9.763742,-0.044417,0.061492,1.520868,1.38,-0.36,-39.6,176.6645,5.0352,1.7619,55.814007,37.500282,204.2417,NaN,0.0,6.0,,22 / 25,,981,2021-05-04 15:51:04:851
-0.217879,-0.837996,9.06233,-0.39001,-0.829222,9.763742,-0.08229,-0.048464,1.511705,1.38,-0.36,-39.6,176.6645,5.0352,1.7619,55.814007,37.500282,204.2417,NaN,0.0,6.0,,22 / 25,,991,2021-05-04 15:51:04:861
-0.483643,-0.871516,10.965778,-0.417962,-0.829393,9.762571,0.057598,-0.025251,1.519646,0.72,-0.12,-40.02,169.9868,4.8506,2.2875,55.814007,37.500282,204.2417,NaN,0.0,6.0,,22 / 25,,1001,2021-05-04 15:51:04:871
-0.69434,-1.211503,11.142955,-0.426663,-0.823104,9.762728,0.194432,-0.078396,1.531253,0.3,0.12,-39.72,169.9868,4.8506,2.2875,55.814007,37.500282,204.2417,NaN,0.0,6.0,,22 / 25,,1011,2021-05-04 15:51:04:881
-0.69434,-1.211503,11.142955,-0.426663,-0.823104,9.762728,0.194432,-0.078396,1.531253,0.3,0.12,-39.72,169.9868,4.8506,2.2875,55.814007,37.500282,204.2417,NaN,0.0,6.0,,22 / 25,,1022,2021-05-04 15:51:04:892
-0.433364,-0.648848,10.59706,-0.438927,-0.775355,9.766092,0.217034,-0.063124,1.501931,-0.12,-0.42,-38.46,169.9868,4.8506,2.2875,55.814007,37.500282,204.2417,NaN,0.0,6.0,,22 / 25,,1031,2021-05-04 15:51:04:901
-0.268159,-0.574626,10.077502,-0.438927,-0.775355,9.766092,0.184658,0.01079,1.462225,-0.12,-0.42,-38.46,169.9868,4.8506,2.2875,55.814007,37.500282,204.2417,NaN,0.0,6.0,,22 / 25,,1041,2021-05-04 15:51:04:911
-0.320833,-0.837996,9.632168,-0.459255,-0.724726,9.769045,0.140676,0.032781,1.453673,0.36,-0.84,-38.52,154.7106,4.2381,2.6916,55.814007,37.500282,204.2417,NaN,0.0,6.0,,22 / 25,,1051,2021-05-04 15:51:04:921
-0.306467,-0.967287,9.624985,-0.459255,-0.724726,9.769045,0.113797,-0.00326,1.479329,0.36,-0.84,-38.52,154.7106,4.2381,2.6916,55.814007,37.500282,204.2417,NaN,0.0,6.0,,22 / 25,,1061,2021-05-04 15:51:04:931
-0.306467,-0.967287,9.624985,-0.482621,-0.686793,9.770658,0.12296,-0.045409,1.515981,0.84,-0.78,-39.42,154.7106,4.2381,2.6916,55.814007,37.500282,204.2417,NaN,0.0,6.0,,22 / 25,,1071,2021-05-04 15:51:04:941
-0.21309,-0.89067,9.498088,-0.482621,-0.686793,9.770658,0.131513,-0.086948,1.524533,0.84,-0.78,-39.42,154.7106,4.2381,2.6916,55.814007,37.500282,204.2417,NaN,0.0,6.0,,22 / 25,,1081,2021-05-04 15:51:04:951
-0.079011,-0.732648,9.201198,-0.48957,-0.647489,9.772997,0.105856,-0.083283,1.520868,0.36,-1.02,-39.72,152.5286,4.0159,2.8278,55.814007,37.500282,204.2417,NaN,0.0,6.0,,22 / 25,,1091,2021-05-04 15:51:04:961
-0.081405,-0.64406,9.234718,-0.48957,-0.647489,9.772997,0.050267,-0.066179,1.511094,0.36,-1.02,-39.72,152.5286,4.0159,2.8278,55.814007,37.500282,204.2417,NaN,0.0,6.0,,22 / 25,,1101,2021-05-04 15:51:04:971
-0.081405,-0.476461,9.2419,-0.493181,-0.617016,9.774787,0.025222,-0.074731,1.496434,0.06,-1.08,-40.2,152.5286,4.0159,2.8278,55.814007,37.500282,204.2417,NaN,0.0,6.0,,22 / 25,,1111,2021-05-04 15:51:04:981
-0.081405,-0.476461,9.2419,-0.493181,-0.617016,9.774787,-0.002267,-0.128487,1.46589,0.06,-1.08,-40.2,152.5286,4.0159,2.8278,55.814007,37.500282,204.2417,NaN,0.0,6.0,,22 / 25,,1121,2021-05-04 15:51:04:991
-0.114925,-0.359141,9.347249,-0.49204,-0.600008,9.775903,-0.012041,-0.170637,1.446343,0.66,-0.84,-40.26,163.8637,3.6073,2.8884,55.814007,37.500282,204.2417,NaN,0.0,6.0,,22 / 25,,1131,2021-05-04 15:51:05:001
-0.124502,-0.349564,9.620196,-0.49204,-0.600008,9.775903,-0.0041,-0.226225,1.403582,0.66,-0.84,-40.26,163.8637,3.6073,2.8884,55.814007,37.500282,204.2417,NaN,0.0,6.0,,22 / 25,,1142,2021-05-04 15:51:05:012
-0.260976,-0.390267,9.864412,-0.470444,-0.588379,9.777673,0.014837,-0.260434,1.363265,0.12,-0.9,-39.3,163.8637,3.6073,2.8884,55.814007,37.500282,204.2417,NaN,0.0,6.0,,22 / 25,,1151,2021-05-04 15:51:05:021
-0.318439,-0.416604,9.885961,-0.470444,-0.588379,9.777673,-0.005321,-0.265321,1.346772,0.12,-0.9,-39.3,163.8637,3.6073,2.8884,55.814007,37.500282,204.2417,NaN,0.0,6.0,,22 / 25,,1162,2021-05-04 15:51:05:032
-0.318439,-0.416604,9.885961,-0.43537,-0.573979,9.780152,-0.005321,-0.265321,1.346772,-0.84,-0.6,-38.52,139.2339,3.4397,2.7546,55.814007,37.500282,204.2417,NaN,0.0,6.0,,22 / 25,,1171,2021-05-04 15:51:05:041
-0.323227,-0.550683,9.921875,-0.43537,-0.573979,9.780152,-0.040141,-0.240886,1.326613,-0.84,-0.6,-38.52,139.2339,3.4397,2.7546,55.814007,37.500282,204.2417,NaN,0.0,6.0,,22 / 25,,1181,2021-05-04 15:51:05:051
-0.284919,-0.684763,10.041589,-0.40305,-0.569605,9.781794,-0.061521,-0.195682,1.327835,-1.02,-0.66,-38.64,139.2339,3.4397,2.7546,55.814007,37.500282,204.2417,NaN,0.0,6.0,,22 / 25,,1191,2021-05-04 15:51:05:061
-0.10056,-0.732648,9.957788,-0.40305,-0.569605,9.781794,-0.06091,-0.182243,1.33822,-1.02,-0.66,-38.64,139.2339,3.4397,2.7546,55.814007,37.500282,204.2417,NaN,0.0,6.0,,22 / 25,,1201,2021-05-04 15:51:05:071
0.220273,-0.715888,9.909904,-0.380998,-0.571081,9.782592,-0.048693,-0.203623,1.341885,-1.32,-0.36,-38.82,130.9583,3.3298,2.3595,55.814007,37.500282,204.2417,NaN,0.0,6.0,,22 / 25,,1212,2021-05-04 15:51:05:082
0.220273,-0.715888,9.909904,-0.380998,-0.571081,9.782592,-0.041973,-0.204234,1.330889,-1.32,-0.36,-38.82,130.9583,3.3298,2.3595,55.814007,37.500282,204.2417,NaN,0.0,6.0,,22 / 25,,1221,2021-05-04 15:51:05:091
0.301679,-0.69434,9.852441,-0.356034,-0.569843,9.783604,-0.040141,-0.177967,1.319283,-1.5,-0.36,-39.18,130.9583,3.3298,2.3595,55.814007,37.500282,204.2417,NaN,0.0,6.0,,22 / 25,,1231,2021-05-04 15:51:05:101
0.289707,-0.730254,9.948212,-0.356034,-0.569843,9.783604,-0.038308,-0.140093,1.32417,-1.5,-0.36,-39.18,130.9583,3.3298,2.3595,55.814007,37.500282,204.2417,NaN,0.0,6.0,,22 / 25,,1241,2021-05-04 15:51:05:111
-0.21309,-0.761379,9.926663,-0.339955,-0.568602,9.784247,-0.052358,-0.068011,1.364487,-1.8,-0.9,-39.48,133.6425,3.3312,2.0841,55.814007,37.500282,204.2417,NaN,0.0,6.0,,22 / 25,,1251,2021-05-04 15:51:05:121
-0.409421,-0.670397,9.684841,-0.339955,-0.568602,9.784247,-0.078625,0.015677,1.420075,-1.8,-0.9,-39.48,133.6425,3.3312,2.0841,55.814007,37.500282,204.2417,NaN,0.0,6.0,,22 / 25,,1261,2021-05-04 15:51:05:131
-0.409421,-0.670397,9.684841,-0.348861,-0.571749,9.783751,-0.079236,-0.014255,1.428628,-1.8,-0.54,-38.94,133.6425,3.3312,2.0841,55.814007,37.500282,204.2417,NaN,0.0,6.0,,22 / 25,,1272,2021-05-04 15:51:05:142
-0.430969,-0.59378,9.596253,-0.348861,-0.571749,9.783751,-0.067629,-0.076563,1.40236,-1.8,-0.54,-38.94,133.6425,3.3312,2.0841,55.814007,37.500282,204.2417,NaN,0.0,6.0,,22 / 25,,1281,2021-05-04 15:51:05:151
-0.268159,-0.629694,9.368797,-0.358317,-0.576487,9.783132,-0.069462,-0.147424,1.342496,-1.8,-0.18,-38.28,123.3896,3.3424,2.0421,55.814007,37.500282,204.2417,NaN,0.0,6.0,,22 / 25,,1291,2021-05-04 15:51:05:161
-0.055068,-0.615329,9.44302,-0.358317,-0.576487,9.783132,-0.07496,-0.227447,1.277744,-1.8,-0.18,-38.28,123.3896,3.3424,2.0421,55.814007,37.500282,204.2417,NaN,0.0,6.0,,22 / 25,,1302,2021-05-04 15:51:05:172
-0.055068,-0.615329,9.44302,-0.33974,-0.581213,9.783515,-0.081679,-0.25799,1.230096,-2.34,0.24,-38.34,123.3896,3.3424,2.0421,55.814007,37.500282,204.2417,NaN,0.0,6.0,,22 / 25,,1311,2021-05-04 15:51:05:181
0.06704,-0.545895,9.720756,-0.33974,-0.581213,9.783515,-0.095729,-0.228058,1.195277,-2.34,0.24,-38.34,123.3896,3.3424,2.0421,55.814007,37.500282,204.2417,NaN,0.0,6.0,,22 / 25,,1322,2021-05-04 15:51:05:192
0.249005,-0.474066,9.75667,-0.305562,-0.590423,9.78409,-0.106114,-0.210343,1.16901,-2.46,0.9,-38.64,111.31,3.3978,1.9888,55.814007,37.500282,204.2417,NaN,0.0,6.0,,24 / 25,,1331,2021-05-04 15:51:05:201
0.361536,-0.5435,9.998491,-0.305562,-0.590423,9.78409,-0.100005,-0.192628,1.136634,-2.46,0.9,-38.64,111.31,3.3978,1.9888,55.814007,37.500282,204.2417,NaN,0.0,6.0,,24 / 25,,1341,2021-05-04 15:51:05:211
0.361536,-0.5435,9.998491,-0.277872,-0.604351,9.784065,-0.057856,-0.10955,1.129304,-2.7,0.9,-39.18,111.31,3.3978,1.9888,55.814007,37.500282,204.2417,NaN,0.0,6.0,,24 / 25,,1351,2021-05-04 15:51:05:221
0.24661,-0.773351,10.302565,-0.269296,-0.609482,9.783987,-0.057856,-0.10955,1.129304,-2.82,0.84,-39.3,111.31,3.3978,1.9888,55.814007,37.500282,204.2417,NaN,0.0,6.0,,24 / 25,,1361,2021-05-04 15:51:05:231
0.191542,-0.866727,10.170879,-0.269296,-0.609482,9.783987,0.004453,-0.016699,1.125027,-2.82,0.84,-39.3,111.31,3.3978,1.9888,55.814007,37.500282,204.2417,NaN,0.0,6.0,,24 / 25,,1371,2021-05-04 15:51:05:241
-0.028731,-0.782928,9.828498,-0.273377,-0.606542,9.784056,0.03072,0.006514,1.121973,-3.12,0.78,-39.66,109.8739,3.5632,1.5766,55.814007,37.500282,204.2417,NaN,0.0,6.0,,24 / 25,,1381,2021-05-04 15:51:05:251
-0.031126,-0.567443,9.727939,-0.273377,-0.606542,9.784056,0.00934,0.044999,1.136023,-3.12,0.78,-39.66,109.8739,3.5632,1.5766,55.814007,37.500282,204.2417,NaN,0.0,6.0,,24 / 25,,1391,2021-05-04 15:51:05:261
-0.031126,-0.567443,9.727939,-0.29208,-0.596362,9.784142,-0.027923,0.085927,1.143353,-3.36,0.9,-39.12,109.8739,3.5632,1.5766,55.814007,37.500282,204.2417,NaN,0.0,6.0,,24 / 25,,1401,2021-05-04 15:51:05:271
-0.117319,-0.383084,9.907509,-0.29208,-0.596362,9.784142,-0.06824,0.167783,1.142743,-3.36,0.9,-39.12,109.8739,3.5632,1.5766,55.814007,37.500282,204.2417,NaN,0.0,6.0,,24 / 25,,1411,2021-05-04 15:51:05:281
-0.270553,-0.332804,10.101445,-0.329834,-0.598774,9.782795,-0.064575,0.239865,1.170842,-3.06,1.08,-39.0,108.1813,3.4864,1.7099,55.814007,37.500282,204.2417,NaN,0.0,6.0,,24 / 25,,1422,2021-05-04 15:51:05:292
-0.220273,0.086194,10.304958,-0.329834,-0.598774,9.782795,-0.040751,0.25086,1.164123,-3.06,1.08,-39.0,108.1813,3.4864,1.7099,55.814007,37.500282,204.2417,NaN,0.0,6.0,,24 / 25,,1432,2021-05-04 15:51:05:302
0.404632,-0.29689,10.197216,-0.390566,-0.600942,9.780425,0.054544,0.256358,1.107312,-2.88,1.5,-39.0,108.1813,3.4864,1.7099,55.814007,37.500282,204.2417,NaN,0.0,6.0,,24 / 25,,1442,2021-05-04 15:51:05:312
0.404632,-0.29689,10.197216,-0.390566,-0.600942,9.780425,0.12235,0.168394,1.096928,-2.88,1.5,-39.0,108.1813,3.4864,1.7099,55.814007,37.500282,204.2417,NaN,0.0,6.0,,24 / 25,,1451,2021-05-04 15:51:05:321
0.21309,-1.113338,10.328901,-0.446903,-0.577628,9.779418,0.139454,0.262467,1.086543,-3.0,1.5,-39.0,94.8251,3.5132,2.2868,55.814007,37.500282,204.2417,NaN,0.0,6.0,,24 / 25,,1461,2021-05-04 15:51:05:331
-0.138868,-1.252206,10.199611,-0.446903,-0.577628,9.779418,0.107689,0.468939,1.069439,-3.0,1.5,-39.0,94.8251,3.5132,2.2868,55.814007,37.500282,204.2417,NaN,0.0,6.0,,24 / 25,,1471,2021-05-04 15:51:05:341
-0.634483,-0.849968,9.778218,-0.51473,-0.541666,9.778141,0.065539,0.550184,1.074937,-3.0,1.44,-39.54,94.8251,3.5132,2.2868,55.814007,37.500282,204.2417,NaN,0.0,6.0,,24 / 25,,1481,2021-05-04 15:51:05:351
-0.634483,-0.849968,9.778218,-0.51473,-0.541666,9.778141,0.065539,0.550184,1.074937,-3.0,1.44,-39.54,94.8251,3.5132,2.2868,55.814007,37.500282,204.2417,NaN,0.0,6.0,,24 / 25,,1492,2021-05-04 15:51:05:362
-0.866727,-0.622511,9.804555,-0.62994,-0.515386,9.772817,0.071037,0.556293,1.097539,-3.0,2.04,-39.06,91.6518,3.1663,3.0133,55.814007,37.500282,204.2417,NaN,0.0,6.0,,24 / 25,,1501,2021-05-04 15:51:05:371
-0.739831,-0.572232,10.223554,-0.62994,-0.515386,9.772817,0.133956,0.520252,1.099371,-3.0,2.04,-39.06,91.6518,3.1663,3.0133,55.814007,37.500282,204.2417,NaN,0.0,6.0,,24 / 25,,1512,2021-05-04 15:51:05:382
-0.871516,-0.505192,10.204399,-0.744837,-0.480019,9.766534,0.223142,0.578284,1.106091,-2.52,1.5,-38.64,91.6518,3.1663,3.0133,55.814007,37.500282,204.2417,NaN,0.0,6.0,,24 / 25,,1521,2021-05-04 15:51:05:391
-0.871516,-0.505192,10.204399,-0.744837,-0.480019,9.766534,0.311718,0.647923,1.15496,-2.52,1.5,-38.64,91.6518,3.1663,3.0133,55.814007,37.500282,204.2417,NaN,0.0,6.0,,24 / 25,,1531,2021-05-04 15:51:05:401
-0.967287,-0.318439,9.660899,-0.873842,-0.409921,9.759034,0.44061,0.614325,1.217268,-1.56,1.26,-38.94,100.2535,2.8057,4.3612,55.814007,37.500282,204.2417,NaN,0.0,6.0,,24 / 25,,1542,2021-05-04 15:51:05:412
-1.070241,-0.237033,9.088667,-0.873842,-0.409921,9.759034,0.531629,0.58256,1.263694,-1.56,1.26,-38.94,100.2535,2.8057,4.3612,55.814007,37.500282,204.2417,NaN,0.0,6.0,,24 / 25,,1551,2021-05-04 15:51:05:421
-0.976864,-0.430969,8.703189,-0.999346,-0.293906,9.75117,0.569503,0.531248,1.291183,-1.02,1.32,-38.76,100.2535,2.8057,4.3612,55.814007,37.500282,204.2417,NaN,0.0,6.0,,24 / 25,,1561,2021-05-04 15:51:05:431
-0.751802,-0.574626,8.758257,-0.999346,-0.293906,9.75117,0.608598,0.37059,1.279576,-1.02,1.32,-38.76,100.2535,2.8057,4.3612,55.814007,37.500282,204.2417,NaN,0.0,6.0,,24 / 25,,1571,2021-05-04 15:51:05:441
-0.718282,-0.409421,9.071907,-1.096085,-0.152648,9.744007,0.570114,0.237421,1.212381,-1.26,0.12,-38.88,103.132,1.7174,5.8515,55.814007,37.500282,204.2417,NaN,0.0,6.0,,24 / 25,,1582,2021-05-04 15:51:05:452
-0.718282,-0.409421,9.071907,-1.096085,-0.152648,9.744007,0.488258,0.207489,1.156182,-1.26,0.12,-38.88,103.132,1.7174,5.8515,55.814007,37.500282,204.2417,NaN,0.0,6.0,,24 / 25,,1591,2021-05-04 15:51:05:461
-0.701522,-0.126897,9.294575,-1.142988,-0.022101,9.739788,0.31355,0.32844,1.123195,-1.2,-0.24,-39.48,103.132,1.7174,5.8515,55.814007,37.500282,204.2417,NaN,0.0,6.0,,24 / 25,,1601,2021-05-04 15:51:05:471
-0.842785,-0.165205,9.172467,-1.142988,-0.022101,9.739788,0.184047,0.386472,1.120752,-1.2,-0.24,-39.48,103.132,1.7174,5.8515,55.814007,37.500282,204.2417,NaN,0.0,6.0,,24 / 25,,1611,2021-05-04 15:51:05:481
-1.407834,-0.114925,9.057542,-1.208225,0.055506,9.731777,0.069815,0.343101,1.13358,-0.84,-0.3,-39.3,90.9003,0.1291,6.6932,55.814007,37.500282,204.2417,NaN,0.0,6.0,,24 / 25,,1621,2021-05-04 15:51:05:491
-1.407834,-0.114925,9.057542,-1.208225,0.055506,9.731777,0.005674,0.171448,1.154349,-0.84,-0.3,-39.3,90.9003,0.1291,6.6932,55.814007,37.500282,204.2417,NaN,0.0,6.0,,24 / 25,,1631,2021-05-04 15:51:05:501
-1.628107,0.225062,9.684841,-1.255894,0.090293,9.72548,0.021557,-0.033803,1.168399,-0.96,-0.54,-38.88,90.9003,0.1291,6.6932,55.814007,37.500282,204.2417,NaN,0.0,6.0,,24 / 25,,1641,2021-05-04 15:51:05:511
-1.398256,0.433364,9.988914,-1.255894,0.090293,9.72548,0.08753,-0.074731,1.135412,-0.96,-0.54,-38.88,90.9003,0.1291,6.6932,55.814007,37.500282,204.2417,NaN,0.0,6.0,,24 / 25,,1651,2021-05-04 15:51:05:521
-1.32164,0.490826,9.634562,-1.24571,0.126743,9.726383,0.082643,-0.072898,1.043172,-0.66,-0.42,-38.58,86.6069,-0.5275,7.3581,55.814007,37.500282,204.2417,NaN,0.0,6.0,,24 / 25,,1662,2021-05-04 15:51:05:532
-1.32164,0.490826,9.634562,-1.24571,0.126743,9.726383,-0.063353,0.027284,0.947266,-0.66,-0.42,-38.58,86.6069,-0.5275,7.3581,55.814007,37.500282,204.2417,NaN,0.0,6.0,,24 / 25,,1671,2021-05-04 15:51:05:541
-1.312063,0.629694,8.861211,-1.232595,0.164124,9.727495,-0.200798,-0.020364,0.912446,-0.42,-0.24,-38.76,86.6069,-0.5275,7.3581,55.814007,37.500282,204.2417,NaN,0.0,6.0,,24 / 25,,1681,2021-05-04 15:51:05:551
-1.273754,0.215485,8.269825,-1.232595,0.164124,9.727495,-0.200798,-0.020364,0.912446,-0.42,-0.24,-38.76,86.6069,-0.5275,7.3581,55.814007,37.500282,204.2417,NaN,0.0,6.0,,24 / 25,,1691,2021-05-04 15:51:05:561
-1.132492,0.064645,8.686429,-1.220172,0.149685,9.729295,-0.255165,-0.362448,0.91489,-0.66,-0.42,-38.94,83.7514,-0.9589,7.2216,55.814007,37.500282,204.2417,NaN,0.0,6.0,,24 / 25,,1701,2021-05-04 15:51:05:571
-0.897853,0.244216,9.775824,-1.220172,0.149685,9.729295,-0.177585,-0.608016,0.929551,-0.66,-0.42,-38.94,83.7514,-0.9589,7.2216,55.814007,37.500282,204.2417,NaN,0.0,6.0,,24 / 25,,1712,2021-05-04 15:51:05:582
-0.897853,0.244216,9.775824,-1.1118,0.133215,9.742513,-0.030978,-0.669103,0.962537,-0.66,-0.36,-38.82,83.7514,-0.9589,7.2216,55.814007,37.500282,204.2417,NaN,0.0,6.0,,24 / 25,,1722,2021-05-04 15:51:05:592
-0.483643,0.160416,10.458193,-1.1118,0.133215,9.742513,0.123571,-0.587247,0.947266,-0.66,-0.36,-38.82,83.7514,-0.9589,7.2216,55.814007,37.500282,204.2417,NaN,0.0,6.0,,24 / 25,,1732,2021-05-04 15:51:05:602
-0.335198,0.198725,10.520444,-0.989436,0.16707,9.755177,0.197486,-0.438806,0.888623,-0.84,-0.18,-38.76,84.4646,-0.7783,6.5103,55.814007,37.500282,204.2417,NaN,0.0,6.0,,24 / 25,,1741,2021-05-04 15:51:05:611
-0.474066,0.074223,9.794978,-0.989436,0.16707,9.755177,0.15778,-0.198126,0.863577,-0.84,-0.18,-38.76,84.4646,-0.7783,6.5103,55.814007,37.500282,204.2417,NaN,0.0,6.0,,24 / 25,,1751,2021-05-04 15:51:05:621
-0.464489,0.014366,9.050359,-0.923746,0.218295,9.760606,0.015448,-0.0674,0.849527,-2.28,0.0,-38.88,84.4646,-0.7783,6.5103,55.814007,37.500282,204.2417,NaN,0.0,6.0,,24 / 25,,1761,2021-05-04 15:51:05:631
-0.464489,0.014366,9.050359,-0.923746,0.218295,9.760606,-0.154983,-0.006314,0.800047,-2.28,0.0,-38.88,84.4646,-0.7783,6.5103,55.814007,37.500282,204.2417,NaN,0.0,6.0,,24 / 25,,1771,2021-05-04 15:51:05:641
-0.596174,0.189148,9.031204,-0.911097,0.22149,9.761723,-0.266161,-0.131541,0.764006,-2.76,0.3,-39.48,82.6606,-1.2755,5.4064,55.814007,37.500282,204.2417,NaN,0.0,6.0,,24 / 25,,1781,2021-05-04 15:51:05:651
-0.639271,0.153234,9.002473,-0.911097,0.22149,9.761723,-0.2515,-0.372222,0.858079,-2.76,0.3,-39.48,82.6606,-1.2755,5.4064,55.814007,37.500282,204.2417,NaN,0.0,6.0,,24 / 25,,1791,2021-05-04 15:51:05:661
-0.6273,-0.160416,10.041589,-0.87427,0.184897,9.765851,-0.098784,-0.480345,1.002244,-2.16,0.12,-39.48,82.6606,-1.2755,5.4064,55.814007,37.500282,204.2417,NaN,0.0,6.0,,24 / 25,,1802,2021-05-04 15:51:05:672
-0.407027,-0.191542,10.812545,-0.827721,0.173846,9.770109,-0.098784,-0.480345,1.002244,-1.86,0.42,-38.82,82.6606,-1.2755,5.4064,55.814007,37.500282,204.2417,NaN,0.0,6.0,,24 / 25,,1811,2021-05-04 15:51:05:681
-0.407027,-0.191542,10.812545,-0.827721,0.173846,9.770109,0.091806,-0.396657,1.047448,-1.86,0.42,-38.82,82.6606,-1.2755,5.4064,55.814007,37.500282,204.2417,NaN,0.0,6.0,,24 / 25,,1822,2021-05-04 15:51:05:692
-0.665608,0.062251,11.020847,-0.745611,0.202935,9.776158,0.284229,-0.167582,1.088986,-2.1,0.3,-38.58,82.6055,-1.0158,4.8425,55.814007,37.500282,204.2417,NaN,0.0,6.0,,24 / 25,,1832,2021-05-04 15:51:05:702
-0.787716,0.136474,10.245102,-0.745611,0.202935,9.776158,0.31294,-0.036857,1.108534,-2.1,0.3,-38.58,82.6055,-1.0158,4.8425,55.814007,37.500282,204.2417,NaN,0.0,6.0,,24 / 25,,1841,2021-05-04 15:51:05:711
-0.66082,0.316044,9.538791,-0.721882,0.278028,9.776092,0.221921,-0.012423,1.059665,-2.64,0.06,-38.76,82.6055,-1.0158,4.8425,55.814007,37.500282,204.2417,NaN,0.0,6.0,,24 / 25,,1851,2021-05-04 15:51:05:721
-0.304073,0.359141,9.562734,-0.717507,0.307127,9.775543,0.107078,0.001016,0.956429,-2.64,-0.18,-38.7,82.6055,-1.0158,4.8425,55.814007,37.500282,204.2417,NaN,0.0,6.0,,24 / 25,,1861,2021-05-04 15:51:05:731
-0.304073,0.359141,9.562734,-0.717507,0.307127,9.775543,0.006285,0.044388,0.806767,-2.64,-0.18,-38.7,82.6055,-1.0158,4.8425,55.814007,37.500282,204.2417,NaN,0.0,6.0,,24 / 25,,1871,2021-05-04 15:51:05:741
-0.531529,0.260976,9.562734,-0.714641,0.332899,9.774909,-0.013873,0.054162,0.799436,-2.64,-0.66,-38.34,88.2092,-1.7947,4.1979,55.814007,37.500282,204.2417,NaN,0.0,6.0,,24 / 25,,1882,2021-05-04 15:51:05:752
-1.010384,-0.002394,9.481328,-0.714641,0.332899,9.774909,-0.021815,0.096311,0.900229,-2.64,-0.66,-38.34,88.2092,-1.7947,4.1979,55.814007,37.500282,204.2417,NaN,0.0,6.0,,24 / 25,,1892,2021-05-04 15:51:05:762
-1.060664,0.095771,8.897125,-0.721463,0.341534,9.774111,-0.080458,0.02484,1.040117,-3.42,-0.78,-38.58,88.2092,-1.7947,4.1979,55.814007,37.500282,204.2417,NaN,0.0,6.0,,24 / 25,,1901,2021-05-04 15:51:05:771
-1.060664,0.095771,8.897125,-0.721463,0.341534,9.774111,-0.125662,-0.134596,1.095706,-3.42,-0.78,-38.58,88.2092,-1.7947,4.1979,55.814007,37.500282,204.2417,NaN,0.0,6.0,,24 / 25,,1911,2021-05-04 15:51:05:781
-0.61054,0.153234,9.77343,-0.717474,0.341139,9.774417,-0.125662,-0.134596,1.095706,-3.42,-0.06,-39.42,77.0618,-1.9958,4.2216,55.814007,37.500282,204.2417,NaN,0.0,6.0,,24 / 25,,1922,2021-05-04 15:51:05:792
-0.574626,0.143657,10.745505,-0.697652,0.335605,9.776044,-0.106725,-0.114437,1.068828,-3.3,0.12,-39.66,77.0618,-1.9958,4.2216,55.814007,37.500282,204.2417,NaN,0.0,6.0,,24 / 25,,1931,2021-05-04 15:51:05:801
-0.375901,0.423787,11.372806,-0.697652,0.335605,9.776044,-0.005932,0.159231,1.004076,-3.3,0.12,-39.66,77.0618,-1.9958,4.2216,55.814007,37.500282,204.2417,NaN,0.0,6.0,,24 / 25,,1941,2021-05-04 15:51:05:811
-0.260976,0.337593,10.443827,-0.699217,0.339911,9.775784,0.083865,0.418848,0.935659,-2.76,0.36,-38.52,77.0618,-1.9958,4.2216,55.814007,37.500282,204.2417,NaN,0.0,6.0,,24 / 25,,1952,2021-05-04 15:51:05:822
-0.260976,0.337593,10.443827,-0.699217,0.339911,9.775784,0.110743,0.538578,0.843419,-2.76,0.36,-38.52,77.0618,-1.9958,4.2216,55.814007,37.500282,204.2417,NaN,0.0,6.0,,24 / 25,,1962,2021-05-04 15:51:05:832
-0.447729,0.203513,9.550762,-0.786039,0.371765,9.768025,0.026444,0.575841,0.765839,-2.52,0.12,-38.58,76.9273,-1.9863,4.0911,55.814007,37.500282,204.2417,NaN,0.0,6.0,,24 / 25,,1971,2021-05-04 15:51:05:841
-1.197137,0.026337,8.973742,-0.786039,0.371765,9.768025,-0.098784,0.515365,0.889234,-2.52,0.12,-38.58,76.9273,-1.9863,4.0911,55.814007,37.500282,204.2417,NaN,0.0,6.0,,24 / 25,,1981,2021-05-04 15:51:05:851
-1.458113,-0.043097,8.865999,-0.889662,0.389376,9.758447,-0.197744,0.378531,1.01385,-2.76,-0.18,-39.36,76.9273,-1.9863,4.0911,55.814007,37.500282,204.2417,NaN,0.0,6.0,,24 / 25,,1991,2021-05-04 15:51:05:861
-1.458113,-0.043097,8.865999,-0.889662,0.389376,9.758447,-0.197744,0.378531,1.01385,-2.76,-0.18,-39.36,76.9273,-1.9863,4.0911,55.814007,37.500282,204.2417,NaN,0.0,6.0,,24 / 25,,2001,2021-05-04 15:51:05:871
-1.043904,0.265765,9.431048,-0.955162,0.370782,9.752977,-0.233785,0.219095,1.071882,-2.52,0.18,-38.34,76.9536,-2.2755,5.2092,55.814007,37.500282,204.2417,NaN,0.0,6.0,,24 / 25,,2011,2021-05-04 15:51:05:881
-0.960104,0.284919,9.984126,-0.955162,0.370782,9.752977,-0.211183,0.221539,1.057832,-2.52,0.18,-38.34,76.9536,-2.2755,5.2092,55.814007,37.500282,204.2417,NaN,0.0,6.0,,24 / 25,,2021,2021-05-04 15:51:05:891
-0.909824,0.260976,9.976943,-0.990036,0.348594,9.750318,-0.173309,0.253304,1.015683,-2.46,1.14,-38.58,76.9536,-2.2755,5.2092,55.814007,37.500282,204.2417,NaN,0.0,6.0,,24 / 25,,2032,2021-05-04 15:51:05:902
-0.842785,0.277736,9.794978,-0.990036,0.348594,9.750318,-0.150096,0.280182,0.949098,-2.46,1.14,-38.58,76.9536,-2.2755,5.2092,55.814007,37.500282,204.2417,NaN,0.0,6.0,,24 / 25,,2041,2021-05-04 15:51:05:911
-0.842785,0.277736,9.794978,-1.035615,0.337421,9.745975,-0.142766,0.319888,0.903894,-2.76,1.38,-39.06,71.1217,-2.0371,5.7979,55.814007,37.500282,204.2417,NaN,0.0,6.0,,24 / 25,,2052,2021-05-04 15:51:05:922
-0.761379,0.203513,9.759064,-1.063552,0.332897,9.743122,-0.125051,0.352875,0.876405,-2.22,1.2,-39.06,71.1217,-2.0371,5.7979,55.814007,37.500282,204.2417,NaN,0.0,6.0,,24 / 25,,2061,2021-05-04 15:51:05:931
-0.919401,0.004789,9.646533,-1.063552,0.332897,9.743122,-0.051136,0.327219,0.895953,-2.22,1.2,-39.06,71.1217,-2.0371,5.7979,55.814007,37.500282,204.2417,NaN,0.0,6.0,,24 / 25,,2072,2021-05-04 15:51:05:942
-1.182772,0.112531,9.383162,-1.125019,0.332807,9.736218,-0.008986,0.317445,0.959483,-1.92,1.14,-38.82,71.1217,-2.0371,5.7979,55.814007,37.500282,204.2417,NaN,0.0,6.0,,24 / 25,,2081,2021-05-04 15:51:05:951
-1.395862,0.498009,9.057542,-1.125019,0.332807,9.736218,-0.010208,0.30706,1.052334,-1.92,1.14,-38.82,71.1217,-2.0371,5.7979,55.814007,37.500282,204.2417,NaN,0.0,6.0,,24 / 25,,2091,2021-05-04 15:51:05:961
-1.395862,0.498009,9.057542,-1.18001,0.352053,9.72903,-0.059077,0.043166,1.109756,-1.44,1.2,-38.88,67.1029,-1.9448,6.5913,55.814007,37.500282,204.2417,NaN,0.0,6.0,,24 / 25,,2101,2021-05-04 15:51:05:971
-1.278543,0.533923,8.727132,-1.18001,0.352053,9.72903,-0.059077,0.043166,1.109756,-1.44,1.2,-38.88,67.1029,-1.9448,6.5913,55.814007,37.500282,204.2417,NaN,0.0,6.0,,24 / 25,,2111,2021-05-04 15:51:05:981
-0.933767,0.742225,10.010463,-1.185783,0.367471,9.727757,-0.089621,-0.264099,1.060276,-0.9,0.84,-38.94,67.1029,-1.9448,6.5913,55.814007,37.500282,204.2417,NaN,0.0,6.0,,24 / 25,,2121,2021-05-04 15:51:05:991
-0.756591,0.720677,10.886767,-1.154423,0.370809,9.731402,-0.05358,-0.291588,1.011407,-0.9,1.56,-38.76,67.1029,-1.9448,6.5913,55.814007,37.500282,204.2417,NaN,0.0,6.0,,24 / 25,,2132,2021-05-04 15:51:06:002
-0.756591,0.720677,10.886767,-1.154423,0.370809,9.731402,0.042937,-0.085726,0.945433,-0.9,1.56,-38.76,67.1029,-1.9448,6.5913,55.814007,37.500282,204.2417,NaN,0.0,6.0,,24 / 25,,2142,2021-05-04 15:51:06:012
-0.885882,0.438152,11.233937,-1.111394,0.393022,9.735539,0.123571,0.169615,0.881292,-0.96,2.1,-38.04,57.9758,-2.167,6.7653,55.814007,37.500282,204.2417,NaN,0.0,6.0,,24 / 25,,2151,2021-05-04 15:51:06:021
-1.010384,0.459701,11.051972,-1.121484,0.414174,9.733505,0.161445,0.376699,0.845251,-1.2,2.16,-37.8,57.9758,-2.167,6.7653,55.814007,37.500282,204.2417,NaN,0.0,6.0,,24 / 25,,2162,2021-05-04 15:51:06:032
-1.27136,0.36393,9.70639,-1.121484,0.414174,9.733505,0.104024,0.578284,0.796993,-1.2,2.16,-37.8,57.9758,-2.167,6.7653,55.814007,37.500282,204.2417,NaN,0.0,6.0,,24 / 25,,2172,2021-05-04 15:51:06:042
-1.46769,0.433364,8.719949,-1.204673,0.461324,9.721437,0.002009,0.559958,0.768893,-1.56,1.2,-37.98,57.9758,-2.167,6.7653,55.814007,37.500282,204.2417,NaN,0.0,6.0,,24 / 25,,2181,2021-05-04 15:51:06:051
-1.46769,0.433364,8.719949,-1.204673,0.461324,9.721437,-0.188581,0.347377,0.714526,-1.56,1.2,-37.98,57.9758,-2.167,6.7653,55.814007,37.500282,204.2417,NaN,0.0,6.0,,24 / 25,,2192,2021-05-04 15:51:06:062
-1.46769,0.605752,8.707977,-1.292323,0.466046,9.709948,-0.266772,0.214208,0.735296,-1.38,1.38,-38.28,63.9687,-2.6963,7.064,55.814007,37.500282,204.2417,NaN,0.0,6.0,,24 / 25,,2202,2021-05-04 15:51:06:072
-1.759792,0.648849,9.256267,-1.292323,0.466046,9.709948,-0.266772,0.131742,0.785386,-1.38,1.38,-38.28,63.9687,-2.6963,7.064,55.814007,37.500282,204.2417,NaN,0.0,6.0,,24 / 25,,2211,2021-05-04 15:51:06:081
-1.709512,0.486038,9.577099,-1.326866,0.435275,9.706717,-0.213015,-0.012423,0.82998,-0.96,1.74,-38.52,63.9687,-2.6963,7.064,55.814007,37.500282,204.2417,NaN,0.0,6.0,,24 / 25,,2222,2021-05-04 15:51:06:092
-1.573039,0.66082,9.727939,-1.326866,0.435275,9.706717,-0.180029,-0.101609,0.827536,-0.96,1.74,-38.52,63.9687,-2.6963,7.064,55.814007,37.500282,204.2417,NaN,0.0,6.0,,24 / 25,,2231,2021-05-04 15:51:06:101
-1.115732,0.74462,10.005674,-1.315787,0.416317,9.709056,-0.160481,-0.121767,0.740793,-0.48,1.5,-38.82,54.8938,-2.5439,7.7838,55.814007,37.500282,204.2417,NaN,0.0,6.0,,24 / 25,,2241,2021-05-04 15:51:06:111
-1.115732,0.74462,10.005674,-1.315787,0.416317,9.709056,-0.160481,-0.121767,0.740793,-0.48,1.5,-38.82,54.8938,-2.5439,7.7838,55.814007,37.500282,204.2417,NaN,0.0,6.0,,24 / 25,,2252,2021-05-04 15:51:06:122
-0.864333,0.591386,10.362421,-1.287582,0.405074,9.713312,-0.130549,-0.016699,0.618009,-0.42,1.38,-39.24,54.8938,-2.5439,7.7838,55.814007,37.500282,204.2417,NaN,0.0,6.0,,24 / 25,,2261,2021-05-04 15:51:06:131
-0.881093,0.148445,10.067925,-1.287582,0.405074,9.713312,-0.078014,0.110361,0.522714,-0.42,1.38,-39.24,54.8938,-2.5439,7.7838,55.814007,37.500282,204.2417,NaN,0.0,6.0,,24 / 25,,2272,2021-05-04 15:51:06:142
-1.256994,-0.057463,9.646533,-1.296179,0.400626,9.712354,-0.034032,0.1519,0.494615,-0.42,1.32,-39.24,63.1349,-2.3673,7.551,55.814007,37.500282,204.2417,NaN,0.0,6.0,,24 / 25,,2282,2021-05-04 15:51:06:152
-1.819649,-0.071828,8.672064,-1.296179,0.400626,9.712354,-0.021204,0.170837,0.599683,-0.42,1.32,-39.24,63.1349,-2.3673,7.551,55.814007,37.500282,204.2417,NaN,0.0,6.0,,24 / 25,,2292,2021-05-04 15:51:06:162
-1.819649,-0.071828,8.672064,-1.323572,0.410103,9.708262,-0.100616,0.023008,0.80188,-0.06,1.56,-39.06,63.1349,-2.3673,7.551,55.814007,37.500282,204.2417,NaN,0.0,6.0,,24 / 25,,2302,2021-05-04 15:51:06:172
-2.298504,0.356747,8.674458,-1.323572,0.410103,9.708262,-0.215459,-0.139483,1.023013,-0.06,1.56,-39.06,63.1349,-2.3673,7.551,55.814007,37.500282,204.2417,NaN,0.0,6.0,,24 / 25,,2311,2021-05-04 15:51:06:181
-2.015979,0.905036,9.26345,-1.306571,0.404131,9.710815,-0.286319,-0.308692,1.176951,0.18,1.92,-38.82,55.5486,-2.3967,7.7635,55.814007,37.500282,204.2417,NaN,0.0,6.0,,24 / 25,,2322,2021-05-04 15:51:06:192
-1.654444,1.280937,9.926663,-1.277608,0.392486,9.715146,-0.287541,-0.371,1.173897,0.3,1.92,-38.4,55.5486,-2.3967,7.7635,55.814007,37.500282,204.2417,NaN,0.0,6.0,,24 / 25,,2331,2021-05-04 15:51:06:201
-1.218686,1.235446,10.228342,-1.277608,0.392486,9.715146,-0.275324,-0.296475,1.014461,0.3,1.92,-38.4,55.5486,-2.3967,7.7635,55.814007,37.500282,204.2417,NaN,0.0,6.0,,24 / 25,,2342,2021-05-04 15:51:06:212
-1.218686,1.235446,10.228342,-1.200042,0.365665,9.726077,-0.275324,-0.296475,1.014461,-0.48,2.04,-38.1,55.5486,-2.3967,7.7635,55.81401,37.50028,204.1923,NaN,0.0,6.0,,23 / 26,,2351,2021-05-04 15:51:06:221
-1.213897,1.163618,10.029617,-1.200042,0.365665,9.726077,-0.297315,-0.204234,0.81593,-0.48,2.04,-38.1,55.5486,-2.3967,7.7635,55.81401,37.50028,204.1923,NaN,0.0,6.0,,23 / 26,,2361,2021-05-04 15:51:06:231
-1.386285,0.998413,10.029617,-1.150427,0.330538,9.733327,-0.327858,-0.097333,0.70353,-0.9,2.58,-38.34,52.0717,-2.1369,7.0338,55.81401,37.50028,204.1923,NaN,0.0,6.0,,23 / 26,,2372,2021-05-04 15:51:06:242
-1.395862,0.780534,10.132571,-1.150427,0.330538,9.733327,-0.328469,-0.060681,0.638779,-0.9,2.58,-38.34,52.0717,-2.1369,7.0338,55.81401,37.50028,204.1923,NaN,0.0,6.0,,23 / 26,,2381,2021-05-04 15:51:06:251
-1.395862,0.780534,10.132571,-1.133708,0.282919,9.736789,-0.282654,-0.029527,0.591131,-0.96,3.0,-38.64,52.0717,-2.1369,7.0338,55.81401,37.50028,204.1923,NaN,0.0,6.0,,23 / 26,,2391,2021-05-04 15:51:06:261
-1.031932,0.605752,10.13736,-1.133708,0.282919,9.736789,-0.160481,-0.026472,0.495225,-0.96,3.0,-38.64,52.0717,-2.1369,7.0338,55.81401,37.50028,204.1923,NaN,0.0,6.0,,23 / 26,,2401,2021-05-04 15:51:06:271
-0.689551,0.792505,10.343267,-1.126204,0.254678,9.738439,-0.015095,0.012012,0.432306,-0.72,3.0,-38.64,53.2292,-1.6532,6.6414,55.81401,37.50028,204.1923,NaN,0.0,6.0,,23 / 26,,2411,2021-05-04 15:51:06:281
-0.744619,0.438152,9.893144,-1.126204,0.254678,9.738439,0.132123,0.027284,0.390767,-0.72,3.0,-38.64,53.2292,-1.6532,6.6414,55.81401,37.50028,204.1923,NaN,0.0,6.0,,23 / 26,,2421,2021-05-04 15:51:06:291
-0.960104,-0.047885,9.170073,-1.127963,0.276305,9.737645,0.223142,-0.080229,0.375496,-0.66,3.42,-39.18,53.2292,-1.6532,6.6414,55.81401,37.50028,204.1923,NaN,0.0,6.0,,23 / 26,,2431,2021-05-04 15:51:06:301
-0.960104,-0.047885,9.170073,-1.127963,0.276305,9.737645,0.241468,-0.255547,0.409093,-0.66,3.42,-39.18,53.2292,-1.6532,6.6414,55.81401,37.50028,204.1923,NaN,0.0,6.0,,23 / 26,,2441,2021-05-04 15:51:06:311
-1.118126,-0.227456,9.059936,-1.092853,0.330811,9.73995,0.201762,-0.411318,0.522714,-0.78,3.6,-38.82,47.1364,-1.6145,6.6074,55.81401,37.50028,204.1923,NaN,0.0,6.0,,23 / 26,,2451,2021-05-04 15:51:06:321
-0.806871,-0.150839,11.897152,-1.092853,0.330811,9.73995,0.066761,-0.008146,0.690702,-0.78,3.6,-38.82,47.1364,-1.6145,6.6074,55.81401,37.50028,204.1923,NaN,0.0,6.0,,23 / 26,,2462,2021-05-04 15:51:06:332
-0.672791,0.01676,11.466182,-1.047722,0.369781,9.743507,-0.175142,0.564845,0.82998,-0.9,2.64,-37.8,47.1364,-1.6145,6.6074,55.81401,37.50028,204.1923,NaN,0.0,6.0,,23 / 26,,2472,2021-05-04 15:51:06:342
-0.672791,0.01676,11.466182,-1.047722,0.369781,9.743507,-0.428651,0.661362,0.90817,-0.9,2.64,-37.8,47.1364,-1.6145,6.6074,55.81401,37.50028,204.1923,NaN,0.0,6.0,,23 / 26,,2481,2021-05-04 15:51:06:351
-1.429382,0.502798,8.796566,-1.160565,0.329926,9.732144,-0.694988,0.241697,0.981474,-0.78,2.58,-37.92,48.855,-2.161,6.1375,55.81401,37.50028,204.1923,NaN,0.0,6.0,,23 / 26,,2491,2021-05-04 15:51:06:361
-1.613741,0.258582,8.959376,-1.160565,0.329926,9.732144,-0.805555,-0.020364,1.011407,-0.78,2.58,-37.92,48.855,-2.161,6.1375,55.81401,37.50028,204.1923,NaN,0.0,6.0,,23 / 26,,2502,2021-05-04 15:51:06:372
-0.605751,0.351958,10.360027,-1.185809,0.211996,9.732385,-0.860533,-0.20851,0.991248,-0.42,3.36,-38.52,48.855,-2.161,6.1375,55.81401,37.50028,204.1923,NaN,0.0,6.0,,23 / 26,,2512,2021-05-04 15:51:06:382
-0.110137,0.117319,10.831699,-1.185809,0.211996,9.732385,-0.786007,-0.190184,0.883736,-0.42,3.36,-38.52,48.855,-2.161,6.1375,55.81401,37.50028,204.1923,NaN,0.0,6.0,,23 / 26,,2522,2021-05-04 15:51:06:392
-0.110137,0.117319,10.831699,-1.144646,0.072324,9.73935,-0.67544,-0.101609,0.770115,-0.12,3.96,-38.04,43.6698,-1.2387,6.9468,55.81401,37.50028,204.1923,NaN,0.0,6.0,,23 / 26,,2532,2021-05-04 15:51:06:402
-0.359141,-0.011971,10.448615,-1.144646,0.072324,9.73935,-0.513561,-0.046631,0.642444,-0.12,3.96,-38.04,43.6698,-1.2387,6.9468,55.81401,37.50028,204.1923,NaN,0.0,6.0,,23 / 26,,2541,2021-05-04 15:51:06:411
-0.665608,-0.21309,9.727939,-1.129394,-0.028278,9.741358,-0.386501,-0.068622,0.574638,-0.3,4.68,-38.16,43.6698,-1.2387,6.9468,55.81401,37.50028,204.1923,NaN,0.0,6.0,,23 / 26,,2551,2021-05-04 15:51:06:421
-0.912219,-0.433364,9.316123,-1.129394,-0.028278,9.741358,-0.214237,-0.053961,0.531877,-0.3,4.68,-38.16,43.6698,-1.2387,6.9468,55.81401,37.50028,204.1923,NaN,0.0,6.0,,23 / 26,,2561,2021-05-04 15:51:06:431
-0.912219,-0.433364,9.316123,-1.117087,-0.07828,9.742503,-0.125662,-0.117491,0.543484,-0.48,5.22,-38.58,42.5778,0.1652,6.6132,55.81401,37.50028,204.1923,NaN,0.0,6.0,,23 / 26,,2571,2021-05-04 15:51:06:441
-1.242629,-0.430969,8.988108,-1.117087,-0.07828,9.742503,-0.079847,-0.237832,0.563642,-0.48,5.22,-38.58,42.5778,0.1652,6.6132,55.81401,37.50028,204.1923,NaN,0.0,6.0,,23 / 26,,2581,2021-05-04 15:51:06:451
-1.266571,-0.304073,9.031204,-1.091201,-0.089866,9.745337,-0.079847,-0.237832,0.563642,-0.24,5.52,-38.1,42.5778,0.1652,6.6132,55.81401,37.50028,204.1923,NaN,0.0,6.0,,23 / 26,,2591,2021-05-04 15:51:06:461
-1.087001,0.124502,9.323306,-1.091201,-0.089866,9.745337,-0.113444,-0.343511,0.578914,-0.24,5.52,-38.1,42.5778,0.1652,6.6132,55.81401,37.50028,204.1923,NaN,0.0,6.0,,23 / 26,,2602,2021-05-04 15:51:06:472
-1.151646,0.26337,9.929058,-1.027363,-0.100732,9.752168,-0.214848,-0.396046,0.58991,-0.6,6.36,-37.98,42.7234,0.5251,6.3889,55.81401,37.50028,204.1923,NaN,0.0,6.0,,23 / 26,,2611,2021-05-04 15:51:06:481
-1.151646,0.26337,9.929058,-1.027363,-0.100732,9.752168,-0.278989,-0.430254,0.657716,-0.6,6.36,-37.98,42.7234,0.5251,6.3889,55.81401,37.50028,204.1923,NaN,0.0,6.0,,23 / 26,,2622,2021-05-04 15:51:06:492
-1.55149,-0.160416,10.360027,-0.94806,-0.138861,9.759728,-0.322971,-0.426589,0.85136,-1.08,6.36,-37.86,42.7234,0.5251,6.3889,55.81401,37.50028,204.1923,NaN,0.0,6.0,,23 / 26,,2632,2021-05-04 15:51:06:502
-1.142069,0.169994,9.239507,-0.94806,-0.138861,9.759728,-0.379171,-0.493173,0.946655,-1.08,6.36,-37.86,42.7234,0.5251,6.3889,55.81401,37.50028,204.1923,NaN,0.0,6.0,,23 / 26,,2642,2021-05-04 15:51:06:512
-0.964893,-0.339987,9.684841,-0.858066,-0.192794,9.767136,-0.438425,-0.630618,1.043782,-1.68,6.12,-37.92,46.0194,0.8113,5.5483,55.81401,37.50028,204.1923,NaN,0.0,6.0,,23 / 26,,2651,2021-05-04 15:51:06:521
-2.818061,-1.118126,9.998491,-0.858066,-0.192794,9.767136,-0.404216,-0.591523,1.158625,-1.68,6.12,-37.92,46.0194,0.8113,5.5483,55.81401,37.50028,204.1923,NaN,0.0,6.0,,23 / 26,,2661,2021-05-04 15:51:06:531
-2.818061,-1.118126,9.998491,-0.743453,-0.256805,9.775056,-0.327247,-0.47668,1.439623,-2.52,6.12,-37.92,46.0194,0.8113,5.5483,55.81401,37.50028,204.1923,NaN,0.0,6.0,,23 / 26,,2671,2021-05-04 15:51:06:541
-1.108549,-0.311256,9.119793,-0.743453,-0.256805,9.775056,-0.293039,-0.670935,1.5789,-2.52,6.12,-37.92,46.0194,0.8113,5.5483,55.81401,37.50028,204.1923,NaN,0.0,6.0,,23 / 26,,2682,2021-05-04 15:51:06:552
-0.34717,-0.395055,9.395134,-0.64096,-0.296332,9.781194,-0.426818,-0.896345,1.521479,-2.7,6.48,-38.16,49.5254,1.5006,4.3493,55.81401,37.50028,204.1923,NaN,0.0,6.0,,23 / 26,,2692,2021-05-04 15:51:06:562
-0.172388,-0.579414,10.980145,-0.64096,-0.296332,9.781194,-0.514783,-0.890847,1.502542,-2.7,6.48,-38.16,49.5254,1.5006,4.3493,55.81401,37.50028,204.1923,NaN,0.0,6.0,,23 / 26,,2702,2021-05-04 15:51:06:572
1.110944,-0.057463,12.605857,-0.479483,-0.364542,9.788136,-0.416434,-0.730189,1.452451,-2.88,7.2,-38.34,49.5254,1.5006,4.3493,55.81401,37.50028,204.1923,NaN,0.0,6.0,,23 / 26,,2711,2021-05-04 15:51:06:581
1.110944,-0.057463,12.605857,-0.479483,-0.364542,9.788136,-0.197744,-0.454689,1.172675,-2.88,7.2,-38.34,49.5254,1.5006,4.3493,55.81401,37.50028,204.1923,NaN,0.0,6.0,,23 / 26,,2722,2021-05-04 15:51:06:592
1.869929,-0.179571,10.482135,-0.355411,-0.428036,9.790855,-0.197744,-0.454689,1.172675,-3.06,7.44,-38.46,40.9799,2.1303,2.8045,55.81401,37.50028,204.1923,NaN,0.0,6.0,,23 / 26,,2731,2021-05-04 15:51:06:601
1.869929,-0.179571,10.482135,-0.355411,-0.428036,9.790855,-0.134825,-0.350231,0.931383,-3.06,7.44,-38.46,40.9799,2.1303,2.8045,55.81401,37.50028,204.1923,NaN,0.0,6.0,,23 / 26,,2741,2021-05-04 15:51:06:611
-0.158022,-0.454912,9.780613,-0.289485,-0.450236,9.792031,-0.142155,-0.245162,0.853192,-3.42,8.16,-38.22,40.9799,2.1303,2.8045,55.81401,37.50028,204.1923,NaN,0.0,6.0,,23 / 26,,2751,2021-05-04 15:51:06:621
0.651243,-0.967287,9.670476,-0.289485,-0.450236,9.792031,-0.158038,-0.305638,0.726132,-3.42,8.16,-38.22,40.9799,2.1303,2.8045,55.81401,37.50028,204.1923,NaN,0.0,6.0,,23 / 26,,2761,2021-05-04 15:51:06:631
-0.359141,-1.108549,10.276228,-0.243542,-0.475614,9.792082,-0.111001,-0.461408,0.52638,-3.78,9.12,-37.2,34.9026,2.6314,1.6934,55.81401,37.50028,204.1923,NaN,0.0,6.0,,23 / 26,,2771,2021-05-04 15:51:06:641
-1.268966,-0.842785,10.343267,-0.243542,-0.475614,9.792082,0.053933,-0.474848,0.550814,-3.78,9.12,-37.2,34.9026,2.6314,1.6934,55.81401,37.50028,204.1923,NaN,0.0,6.0,,23 / 26,,2782,2021-05-04 15:51:06:652
-1.268966,-0.842785,10.343267,-0.155474,-0.482712,9.793529,0.142508,-0.4553,0.683983,-3.9,9.18,-37.02,34.9026,2.6314,1.6934,55.81401,37.50028,204.1923,NaN,0.0,6.0,,23 / 26,,2792,2021-05-04 15:51:06:662
-1.015172,-0.713494,10.340873,-0.155474,-0.482712,9.793529,0.231084,-0.419259,0.990026,-3.9,9.18,-37.02,34.9026,2.6314,1.6934,55.81401,37.50028,204.1923,NaN,0.0,6.0,,23 / 26,,2802,2021-05-04 15:51:06:672
-0.38069,-0.277736,10.146936,-0.07673,-0.445897,9.796207,0.219477,-0.388716,1.226431,-3.72,8.82,-37.26,32.6036,2.8214,0.9095,55.81401,37.50028,204.1923,NaN,0.0,6.0,,23 / 26,,2812,2021-05-04 15:51:06:682
-0.423787,0.210696,10.228342,-0.07673,-0.445897,9.796207,0.156558,-0.27876,1.40908,-3.72,8.82,-37.26,32.6036,2.8214,0.9095,55.81401,37.50028,204.1923,NaN,0.0,6.0,,23 / 26,,2822,2021-05-04 15:51:06:692
-0.423787,0.210696,10.228342,-0.017689,-0.405766,9.798236,0.09425,-0.186519,1.460393,-4.02,8.88,-37.44,32.6036,2.8214,0.9095,55.81401,37.50028,204.1923,NaN,0.0,6.0,,23 / 26,,2831,2021-05-04 15:51:06:701
-0.26337,-0.047885,9.938635,-0.017689,-0.405766,9.798236,0.003842,-0.203623,1.389532,-4.02,8.88,-37.44,32.6036,2.8214,0.9095,55.81401,37.50028,204.1923,NaN,0.0,6.0,,23 / 26,,2842,2021-05-04 15:51:06:712
0.126897,-0.596174,9.783007,0.008484,-0.395885,9.798653,-0.067019,-0.275095,1.256364,-4.68,9.0,-37.62,34.3357,2.3714,0.1034,55.81401,37.50028,204.1923,NaN,0.0,6.0,,23 / 26,,2851,2021-05-04 15:51:06:721
0.234639,-0.739831,9.735122,0.008484,-0.395885,9.798653,-0.099394,-0.362448,1.080434,-4.68,9.0,-37.62,34.3357,2.3714,0.1034,55.81401,37.50028,204.1923,NaN,0.0,6.0,,23 / 26,,2862,2021-05-04 15:51:06:732
0.205908,-0.720677,9.646533,0.059063,-0.412632,9.797788,-0.091453,-0.4272,1.013239,-4.5,9.3,-37.56,34.3357,2.3714,0.1034,55.81401,37.50028,204.1923,NaN,0.0,6.0,,23 / 26,,2871,2021-05-04 15:51:06:741
0.205908,-0.720677,9.646533,0.059063,-0.412632,9.797788,-0.073738,-0.468739,1.018126,-4.74,9.42,-37.68,34.3357,2.3714,0.1034,55.81401,37.50028,204.1923,NaN,0.0,6.0,,23 / 26,,2881,2021-05-04 15:51:06:751
0.265765,-0.524346,9.584282,0.136354,-0.431455,9.796206,-0.026091,-0.474848,1.168399,-4.74,9.42,-37.68,34.3357,2.3714,0.1034,55.81401,37.50028,204.1923,NaN,0.0,6.0,,23 / 26,,2891,2021-05-04 15:51:06:761
0.385478,-0.143656,9.541185,0.136354,-0.431455,9.796206,-0.006543,-0.362448,1.347993,-5.16,8.88,-37.68,31.4263,2.5216,-0.7975,55.81401,37.50028,204.1923,NaN,0.0,6.0,,23 / 26,,2901,2021-05-04 15:51:06:771
0.385478,-0.143656,9.541185,0.215969,-0.441005,9.794349,-0.034032,-0.174302,1.519036,-5.16,8.88,-37.68,31.4263,2.5216,-0.7975,55.81401,37.50028,204.1923,NaN,0.0,6.0,,23 / 26,,2911,2021-05-04 15:51:06:781
0.555472,0.225062,9.335278,0.215969,-0.441005,9.794349,-0.090232,0.115859,1.569737,-5.28,9.24,-37.32,31.4263,2.5216,-0.7975,55.81401,37.50028,204.1923,NaN,0.0,6.0,,23 / 26,,2921,2021-05-04 15:51:06:791
1.031933,0.06704,9.330489,0.229053,-0.455422,9.793391,-0.139712,0.202602,1.44451,-5.28,9.24,-37.32,31.4263,2.5216,-0.7975,55.81401,37.50028,204.1923,NaN,0.0,6.0,,23 / 26,,2932,2021-05-04 15:51:06:802
0.888276,-0.339987,9.833286,0.229053,-0.455422,9.793391,-0.139712,0.202602,1.44451,-5.04,10.38,-37.68,26.567,2.6618,-1.3398,55.81401,37.50028,204.1923,NaN,0.0,6.0,,23 / 26,,2942,2021-05-04 15:51:06:812
0.495615,-0.636877,9.840469,0.181234,-0.486244,9.792911,-0.137268,0.115859,1.231318,-5.04,10.38,-37.68,26.567,2.6618,-1.3398,55.81401,37.50028,204.1923,NaN,0.0,6.0,,23 / 26,,2952,2021-05-04 15:51:06:822
0.495615,-0.636877,9.840469,0.181234,-0.486244,9.792911,-0.104281,0.010179,1.11953,-4.38,10.62,-37.8,26.567,2.6618,-1.3398,55.81401,37.50028,204.1923,NaN,0.0,6.0,,23 / 26,,2961,2021-05-04 15:51:06:831
0.368718,-0.648848,9.809344,0.160804,-0.512837,9.791911,-0.038919,-0.126654,1.073715,-4.38,10.62,-37.8,26.567,2.6618,-1.3398,55.81401,37.50028,204.1923,NaN,0.0,6.0,,23 / 26,,2971,2021-05-04 15:51:06:841
0.165205,-0.598569,9.907509,0.160804,-0.512837,9.791911,0.055154,-0.248217,1.129914,-3.72,10.62,-37.32,20.5524,2.9976,-0.9408,55.81401,37.50028,204.1923,NaN,0.0,6.0,,23 / 26,,2982,2021-05-04 15:51:06:852
0.047885,-0.335198,9.787795,0.188177,-0.51393,9.791366,0.12968,-0.358172,1.285074,-3.72,10.62,-37.32,20.5524,2.9976,-0.9408,55.81401,37.50028,204.1923,NaN,0.0,6.0,,23 / 26,,2991,2021-05-04 15:51:06:861
0.026337,-0.316044,9.648928,0.188177,-0.51393,9.791366,0.185269,-0.424146,1.520868,-3.72,10.56,-37.44,20.5524,2.9976,-0.9408,55.81401,37.50028,204.1923,NaN,0.0,6.0,,23 / 26,,3001,2021-05-04 15:51:06:871
0.344776,-0.158022,9.347249,0.250209,-0.489846,9.791212,0.179771,-0.309914,1.872727,-3.72,10.56,-37.44,20.5524,2.9976,-0.9408,55.81401,37.50028,204.1923,NaN,0.0,6.0,,23 / 26,,3012,2021-05-04 15:51:06:882
0.344776,-0.158022,9.347249,0.250209,-0.489846,9.791212,0.089363,-0.105274,2.118295,-4.38,10.86,-37.08,18.4855,2.8631,-1.4638,55.81401,37.50028,204.1923,NaN,0.0,6.0,,23 / 26,,3022,2021-05-04 15:51:06:892
0.5435,0.002394,9.440625,0.288437,-0.466928,9.79128,-0.023036,0.065157,2.183657,-4.74,10.5,-36.66,18.4855,2.8631,-1.4638,55.81401,37.50028,204.1923,NaN,0.0,6.0,,23 / 26,,3031,2021-05-04 15:51:06:901
0.701523,-0.208302,9.380769,0.288437,-0.466928,9.79128,-0.15987,0.153122,2.131734,-4.74,10.5,-36.66,18.4855,2.8631,-1.4638,55.81401,37.50028,204.1923,NaN,0.0,6.0,,23 / 26,,3042,2021-05-04 15:51:06:912
0.701523,-0.208302,9.380769,0.260745,-0.480484,9.791401,-0.15987,0.153122,2.131734,-4.14,10.8,-36.72,18.4855,2.8631,-1.4638,55.81401,37.50028,204.1923,NaN,0.0,6.0,,23 / 26,,3052,2021-05-04 15:51:06:922
0.545895,-0.454912,9.955395,0.236684,-0.503766,9.790842,-0.185526,0.112805,2.068204,-3.78,10.38,-37.26,20.2459,2.8084,-1.5254,55.81401,37.50028,204.1923,NaN,0.0,6.0,,23 / 26,,3062,2021-05-04 15:51:06:932
0.014366,-0.905036,9.842864,0.236684,-0.503766,9.790842,-0.070684,0.005293,1.887998,-3.78,10.38,-37.26,20.2459,2.8084,-1.5254,55.81401,37.50028,204.1923,NaN,0.0,6.0,,23 / 26,,3071,2021-05-04 15:51:06:941
0.014366,-0.905036,9.842864,0.202604,-0.540746,9.789634,0.034996,-0.056405,1.906324,-3.84,11.22,-38.1,20.2459,2.8084,-1.5254,55.81401,37.50028,204.1923,NaN,0.0,6.0,,23 / 26,,3081,2021-05-04 15:51:06:951
-0.483643,-0.842785,10.245102,0.202604,-0.540746,9.789634,0.292781,-0.188352,2.062706,-3.84,11.22,-38.1,20.2459,2.8084,-1.5254,55.81401,37.50028,204.1923,NaN,0.0,6.0,,23 / 26,,3091,2021-05-04 15:51:06:961
-0.548289,-0.569837,10.221159,0.202748,-0.52267,9.790612,0.437556,-0.260434,2.222141,-3.9,11.76,-37.86,18.0101,3.1609,-1.1856,55.81401,37.50028,204.1923,NaN,0.0,6.0,,23 / 26,,3101,2021-05-04 15:51:06:971
-0.392661,-0.237033,10.10384,0.202748,-0.52267,9.790612,0.526742,-0.298918,2.371193,-3.9,11.76,-37.86,18.0101,3.1609,-1.1856,55.81401,37.50028,204.1923,NaN,0.0,6.0,,23 / 26,,3111,2021-05-04 15:51:06:981
-0.392661,-0.237033,10.10384,0.231672,-0.445909,9.793767,0.559118,-0.331294,2.442053,-3.48,11.64,-37.38,18.0101,3.1609,-1.1856,55.81401,37.50028,204.1923,NaN,0.0,6.0,,23 / 26,,3121,2021-05-04 15:51:06:991
-0.052674,-0.237033,10.055954,0.252713,-0.396837,9.795359,0.538349,-0.329462,2.442053,-3.36,11.64,-37.44,11.6501,2.6061,-1.3551,55.81401,37.50028,204.1923,NaN,0.0,6.0,,23 / 26,,3132,2021-05-04 15:51:07:002
0.277736,-0.399844,9.627379,0.252713,-0.396837,9.795359,0.319659,-0.34229,2.336984,-3.36,11.64,-37.44,11.6501,2.6061,-1.3551,55.81401,37.50028,204.1923,NaN,0.0,6.0,,23 / 26,,3141,2021-05-04 15:51:07:011
0.672791,-0.452518,9.555551,0.298286,-0.317509,9.796969,0.212147,-0.351453,2.209313,-2.52,10.74,-37.32,11.6501,2.6061,-1.3551,55.81401,37.50028,204.1923,NaN,0.0,6.0,,23 / 26,,3151,2021-05-04 15:51:07:021
0.830813,-0.670397,9.593859,0.298286,-0.317509,9.796969,0.165721,-0.347177,2.097525,-2.52,10.74,-37.32,11.6501,2.6061,-1.3551,55.81401,37.50028,204.1923,NaN,0.0,6.0,,23 / 26,,3161,2021-05-04 15:51:07:031
0.830813,-0.670397,9.593859,0.353253,-0.287006,9.796082,0.15778,-0.347788,1.900216,-2.16,10.08,-37.14,5.6688,1.8554,-1.7439,55.81401,37.50028,204.1923,NaN,0.0,6.0,,23 / 26,,3171,2021-05-04 15:51:07:041
0.775745,-0.629694,9.835681,0.353253,-0.287006,9.796082,0.182825,-0.336181,1.795757,-2.16,10.08,-37.14,5.6688,1.8554,-1.7439,55.81401,37.50028,204.1923,NaN,0.0,6.0,,23 / 26,,3181,2021-05-04 15:51:07:051
0.320833,-0.536318,9.862018,0.410784,-0.271055,9.794292,0.195653,-0.312968,1.751164,-2.4,10.38,-37.56,5.6688,1.8554,-1.7439,55.81401,37.50028,204.1923,NaN,0.0,6.0,,23 / 26,,3191,2021-05-04 15:51:07:061
-0.062251,-0.251399,9.80695,0.410784,-0.271055,9.794292,0.174273,-0.262877,1.758495,-2.4,10.38,-37.56,5.6688,1.8554,-1.7439,55.81401,37.50028,204.1923,NaN,0.0,6.0,,23 / 26,,3202,2021-05-04 15:51:07:072
-0.237033,-0.272947,9.457385,0.462778,-0.249753,9.792541,0.174273,-0.262877,1.758495,-2.64,10.8,-38.16,8.043,1.5839,-2.4016,55.81401,37.50028,204.1923,NaN,0.0,6.0,,23 / 26,,3211,2021-05-04 15:51:07:081
-0.237033,-0.272947,9.457385,0.462778,-0.249753,9.792541,0.107078,-0.292199,1.830577,-2.64,10.8,-38.16,8.043,1.5839,-2.4016,55.81401,37.50028,204.1923,NaN,0.0,6.0,,23 / 26,,3221,2021-05-04 15:51:07:091
-0.222668,-0.359141,9.296969,0.509196,-0.244375,9.790372,0.057598,-0.43392,1.908768,-2.34,11.58,-38.22,8.043,1.5839,-2.4016,55.81401,37.50028,204.1923,NaN,0.0,6.0,,23 / 26,,3232,2021-05-04 15:51:07:102
0.210696,-0.447729,9.617802,0.509196,-0.244375,9.790372,0.064928,-0.570753,1.928315,-2.34,11.58,-38.22,8.043,1.5839,-2.4016,55.81401,37.50028,204.1923,NaN,0.0,6.0,,23 / 26,,3241,2021-05-04 15:51:07:111
0.61054,-0.61054,9.943423,0.594783,-0.254282,9.785293,0.111354,-0.591523,1.878835,-1.86,11.7,-37.62,0.1224,1.4279,-2.9773,55.81401,37.50028,204.1923,NaN,0.0,6.0,,23 / 26,,3251,2021-05-04 15:51:07:121
0.61054,-0.61054,9.943423,0.594783,-0.254282,9.785293,0.111354,-0.591523,1.878835,-1.86,11.7,-37.62,0.1224,1.4279,-2.9773,55.81401,37.50028,204.1923,NaN,0.0,6.0,,23 / 26,,3261,2021-05-04 15:51:07:131
0.972076,-0.632089,9.897932,0.696252,-0.25428,9.778597,0.167554,-0.520662,1.774988,-2.16,11.7,-37.14,0.1224,1.4279,-2.9773,55.81401,37.50028,204.1923,NaN,0.0,6.0,,23 / 26,,3272,2021-05-04 15:51:07:142
1.120521,-0.591386,9.77343,0.696252,-0.25428,9.778597,0.201151,-0.359394,1.605168,-2.16,11.7,-37.14,0.1224,1.4279,-2.9773,55.81401,37.50028,204.1923,NaN,0.0,6.0,,23 / 26,,3281,2021-05-04 15:51:07:151
1.233052,-0.562655,9.601042,0.766113,-0.240569,9.773719,0.196875,-0.21523,1.469555,-3.0,11.94,-37.56,1.5278,1.4858,-4.0727,55.81401,37.50028,204.1923,NaN,0.0,6.0,,20 / 25,,3292,2021-05-04 15:51:07:162
1.055875,-0.474066,9.435837,0.766113,-0.240569,9.773719,0.16511,-0.105885,1.309509,-3.0,11.94,-37.56,1.5278,1.4858,-4.0727,55.81401,37.50028,204.1923,NaN,0.0,6.0,,20 / 25,,3302,2021-05-04 15:51:07:172
1.055875,-0.474066,9.435837,0.785733,-0.22801,9.772463,0.118684,-0.07412,1.134191,-3.18,11.82,-38.22,1.5278,1.4858,-4.0727,55.81401,37.50028,204.1923,NaN,0.0,6.0,,20 / 25,,3311,2021-05-04 15:51:07:181
0.533923,-0.354353,9.483723,0.785733,-0.22801,9.772463,0.110743,-0.127265,1.056,-3.18,11.82,-38.22,1.5278,1.4858,-4.0727,55.81401,37.50028,204.1923,NaN,0.0,6.0,,20 / 25,,3321,2021-05-04 15:51:07:191
0.275342,-0.237033,9.665688,0.800377,-0.223499,9.771379,0.152282,-0.237832,1.060276,-2.76,11.58,-37.98,359.7157,1.3323,-4.5968,55.81401,37.50028,204.1923,NaN,0.0,6.0,,20 / 25,,3331,2021-05-04 15:51:07:201
0.167599,-0.126897,9.811738,0.800377,-0.223499,9.771379,0.277509,-0.380163,1.137245,-2.76,11.58,-37.98,359.7157,1.3323,-4.5968,55.81401,37.50028,204.1923,NaN,0.0,6.0,,20 / 25,,3342,2021-05-04 15:51:07:212
0.167599,-0.126897,9.811738,0.851793,-0.203909,9.767459,0.324546,-0.41987,1.222766,-2.94,11.28,-37.8,359.7157,1.3323,-4.5968,55.81401,37.50028,204.1923,NaN,0.0,6.0,,20 / 25,,3351,2021-05-04 15:51:07:221
0.407027,-0.035914,9.648928,0.851793,-0.203909,9.767459,0.323935,-0.410707,1.305233,-2.94,11.28,-37.8,359.7157,1.3323,-4.5968,55.81401,37.50028,204.1923,NaN,0.0,6.0,,20 / 25,,3362,2021-05-04 15:51:07:232
0.790111,0.10056,9.500483,0.9273,-0.163964,9.761333,0.294614,-0.343511,1.346772,-3.3,11.22,-37.92,358.245,1.1914,-4.984,55.81401,37.50028,204.1923,NaN,0.0,6.0,,20 / 25,,3371,2021-05-04 15:51:07:241
1.065452,0.122108,9.634562,0.96216,-0.146457,9.758237,0.237192,-0.195682,1.336998,-3.18,11.58,-37.74,358.245,1.1914,-4.984,55.81401,37.50028,204.1923,NaN,0.0,6.0,,20 / 25,,3382,2021-05-04 15:51:07:252
1.283331,-0.210696,9.373586,0.96216,-0.146457,9.758237,0.165721,-0.06007,1.278355,-3.18,11.58,-37.74,358.245,1.1914,-4.984,55.81401,37.50028,204.1923,NaN,0.0,6.0,,20 / 25,,3392,2021-05-04 15:51:07:262
1.283331,-0.210696,9.373586,0.992997,-0.128434,9.755401,0.113187,-0.01059,1.18306,-2.52,11.64,-37.62,358.245,1.1914,-4.984,55.81401,37.50028,204.1923,NaN,0.0,6.0,,20 / 25,,3401,2021-05-04 15:51:07:271
1.292908,-0.454912,9.366403,0.992997,-0.128434,9.755401,0.053933,-0.023418,1.088986,-2.52,11.64,-37.62,358.245,1.1914,-4.984,55.81401,37.50028,204.1923,NaN,0.0,6.0,,20 / 25,,3411,2021-05-04 15:51:07:281
1.072635,-0.390267,9.428655,0.992732,-0.131536,9.755386,-0.017539,-0.099776,1.003465,-2.22,11.04,-37.68,349.9644,0.7504,-5.8121,55.81401,37.50028,204.1923,NaN,0.0,6.0,,20 / 25,,3421,2021-05-04 15:51:07:291
0.821236,-0.356747,9.818921,0.996944,-0.141325,9.754821,-0.020593,-0.177356,0.963148,-2.28,10.92,-37.8,349.9644,0.7504,-5.8121,55.81401,37.50028,204.1923,NaN,0.0,6.0,,20 / 25,,3431,2021-05-04 15:51:07:301
0.732648,-0.339987,10.230737,0.996944,-0.141325,9.754821,0.029498,-0.209121,0.966813,-2.28,10.92,-37.8,349.9644,0.7504,-5.8121,55.81401,37.50028,204.1923,NaN,0.0,6.0,,20 / 25,,3442,2021-05-04 15:51:07:312
0.732648,-0.339987,10.230737,1.027131,-0.163401,9.751343,0.029498,-0.209121,0.966813,-3.12,10.8,-37.02,349.9644,0.7504,-5.8121,55.81401,37.50028,204.1923,NaN,0.0,6.0,,20 / 25,,3451,2021-05-04 15:51:07:321
0.981653,-0.361535,10.146936,1.027131,-0.163401,9.751343,0.111965,-0.230501,0.955818,-3.12,10.8,-37.02,349.9644,0.7504,-5.8121,55.81401,37.50028,204.1923,NaN,0.0,6.0,,20 / 25,,3461,2021-05-04 15:51:07:331
1.012778,-0.323227,9.988914,1.067603,-0.164911,9.74697,0.215201,-0.212175,0.948487,-3.18,10.74,-37.02,355.0865,0.9547,-6.0129,55.81401,37.50028,204.1923,NaN,0.0,6.0,,20 / 25,,3471,2021-05-04 15:51:07:341
1.043904,-0.117319,9.680053,1.067603,-0.164911,9.74697,0.276899,-0.13765,0.947877,-3.18,10.74,-37.02,355.0865,0.9547,-6.0129,55.81401,37.50028,204.1923,NaN,0.0,6.0,,20 / 25,,3482,2021-05-04 15:51:07:352
1.043904,-0.117319,9.680053,1.095114,-0.135861,9.744366,0.223142,-0.004481,0.947877,-3.12,11.1,-37.74,355.0865,0.9547,-6.0129,55.81401,37.50028,204.1923,NaN,0.0,6.0,,20 / 25,,3491,2021-05-04 15:51:07:361
0.950527,-0.239427,9.349643,1.094152,-0.12463,9.744623,0.148617,0.070655,0.961316,-3.12,11.22,-37.74,355.0865,0.9547,-6.0129,55.81401,37.50028,204.1923,NaN,0.0,6.0,,20 / 25,,3501,2021-05-04 15:51:07:371
1.175589,-0.237033,9.445415,1.094152,-0.12463,9.744623,0.055154,0.127466,0.994913,-3.12,11.22,-37.74,355.0865,0.9547,-6.0129,55.81401,37.50028,204.1923,NaN,0.0,6.0,,20 / 25,,3512,2021-05-04 15:51:07:382
1.175589,-0.237033,9.445415,1.071388,-0.125896,9.747136,0.036828,0.124411,0.972922,-2.7,11.16,-37.38,353.7807,0.7282,-6.4065,55.81401,37.50028,204.1923,NaN,0.0,6.0,,20 / 25,,3521,2021-05-04 15:51:07:391
1.266571,-0.316044,9.63935,1.071388,-0.125896,9.747136,0.03072,0.117081,0.952153,-2.7,11.16,-37.38,353.7807,0.7282,-6.4065,55.81401,37.50028,204.1923,NaN,0.0,6.0,,20 / 25,,3531,2021-05-04 15:51:07:401
1.094184,-0.41421,9.787795,1.044893,-0.139306,9.74983,0.086919,0.048664,0.953985,-2.64,10.92,-37.62,353.7807,0.7282,-6.4065,55.81401,37.50028,204.1923,NaN,0.0,6.0,,20 / 25,,3541,2021-05-04 15:51:07:411
0.955316,-0.459701,9.996098,1.044893,-0.139306,9.74983,0.156558,-0.016088,0.982696,-2.64,10.92,-37.62,353.7807,0.7282,-6.4065,55.81401,37.50028,204.1923,NaN,0.0,6.0,,20 / 25,,3551,2021-05-04 15:51:07:421
1.127703,-0.471672,10.043983,1.031924,-0.143505,9.75115,0.224364,-0.06007,0.9998,-2.46,10.74,-38.22,348.8543,0.8139,-6.1171,55.81401,37.50028,204.1923,NaN,0.0,6.0,,20 / 25,,3561,2021-05-04 15:51:07:431
1.127703,-0.471672,10.043983,1.034067,-0.135821,9.751034,0.224364,-0.06007,0.9998,-2.46,10.74,-38.22,348.8543,0.8139,-6.1171,55.81401,37.50028,204.1923,NaN,0.0,6.0,,20 / 25,,3571,2021-05-04 15:51:07:441
1.410228,-0.416604,9.938635,1.034067,-0.135821,9.751034,0.296446,-0.075342,0.975976,-2.04,11.1,-38.22,348.8543,0.8139,-6.1171,55.81401,37.50028,204.1923,NaN,0.0,6.0,,20 / 25,,3581,2021-05-04 15:51:07:451
1.309668,-0.24661,9.682447,1.045947,-0.103597,9.750161,0.328211,-0.057627,0.942379,-2.04,11.1,-38.22,348.8543,0.8139,-6.1171,55.81401,37.50028,204.1923,NaN,0.0,6.0,,20 / 25,,3591,2021-05-04 15:51:07:461
1.084607,-0.160416,9.517242,1.045947,-0.103597,9.750161,0.316605,-0.022196,0.948487,-1.62,11.22,-37.98,348.9763,0.6053,-6.123,55.81401,37.50028,204.1923,NaN,0.0,6.0,,20 / 25,,3601,2021-05-04 15:51:07:471
1.206715,0.418998,9.454991,1.050605,-0.061925,9.750014,0.23536,0.026673,0.996746,-1.62,11.22,-37.98,348.9763,0.6053,-6.123,55.81401,37.50028,204.1923,NaN,0.0,6.0,,20 / 25,,3612,2021-05-04 15:51:07:482
1.206715,0.418998,9.454991,1.050605,-0.061925,9.750014,0.211536,0.020564,1.012017,-1.86,10.92,-38.4,348.9763,0.6053,-6.123,55.81401,37.50028,204.1923,NaN,0.0,6.0,,20 / 25,,3621,2021-05-04 15:51:07:491
0.833208,-0.22985,9.529214,1.045193,-0.039764,9.750711,0.18588,0.027284,1.079824,-1.86,10.92,-38.4,348.9763,0.6053,-6.123,55.81401,37.50028,204.1923,NaN,0.0,6.0,,20 / 25,,3631,2021-05-04 15:51:07:501
1.075029,0.057463,9.328094,1.045193,-0.039764,9.750711,0.144341,0.026673,1.153738,-1.8,10.92,-38.82,348.6917,0.2323,-6.1183,55.81401,37.50028,204.1923,NaN,0.0,6.0,,20 / 25,,3641,2021-05-04 15:51:07:511
1.127703,0.035914,9.490906,1.039291,-0.031158,9.751373,0.107078,0.023008,1.173286,-1.8,10.92,-38.82,348.6917,0.2323,-6.1183,55.81401,37.50028,204.1923,NaN,0.0,6.0,,20 / 25,,3652,2021-05-04 15:51:07:522
1.127703,0.035914,9.490906,1.039291,-0.031158,9.751373,0.077756,0.056605,1.165345,-1.26,10.68,-38.34,348.6917,0.2323,-6.1183,55.81401,37.50028,204.1923,NaN,0.0,6.0,,20 / 25,,3661,2021-05-04 15:51:07:531
1.091789,-0.239427,9.70639,1.030891,-0.037556,9.752243,0.083254,0.095701,1.139688,-1.26,10.68,-38.34,348.6917,0.2323,-6.1183,55.81401,37.50028,204.1923,NaN,0.0,6.0,,20 / 25,,3671,2021-05-04 15:51:07:541
1.142069,-0.337593,9.955395,1.030891,-0.037556,9.752243,0.127237,0.104253,1.061498,-1.32,10.26,-38.16,343.0677,0.2194,-6.0342,55.81401,37.50028,204.1923,NaN,0.0,6.0,,20 / 25,,3681,2021-05-04 15:51:07:551
0.986441,-0.301679,9.914692,1.010411,-0.040152,9.754375,0.151671,0.065157,0.958261,-1.32,10.26,-38.16,343.0677,0.2194,-6.0342,55.81401,37.50028,204.1923,NaN,0.0,6.0,,20 / 25,,3691,2021-05-04 15:51:07:561
0.986441,-0.301679,9.914692,1.010411,-0.040152,9.754375,0.132123,-0.055794,0.903283,-1.08,10.56,-38.04,343.0677,0.2194,-6.0342,55.81401,37.50028,204.1923,NaN,0.0,6.0,,20 / 25,,3702,2021-05-04 15:51:07:572
0.787716,-0.110137,10.008069,1.000803,-0.031337,9.755399,0.150449,-0.150478,0.897175,-1.08,10.56,-38.04,343.0677,0.2194,-6.0342,55.81401,37.50028,204.1923,NaN,0.0,6.0,,20 / 25,,3712,2021-05-04 15:51:07:582
0.794899,0.002394,10.24989,1.000803,-0.031337,9.755399,0.20054,-0.242108,0.90084,-0.78,10.44,-38.34,343.7294,0.1831,-5.8575,55.81401,37.50028,204.1923,NaN,0.0,6.0,,20 / 25,,3722,2021-05-04 15:51:07:592
0.847573,0.038308,10.146936,1.026521,-0.020328,9.752755,0.20054,-0.242108,0.90084,-0.78,10.44,-38.34,343.7294,0.1831,-5.8575,55.81401,37.50028,204.1923,NaN,0.0,6.0,,20 / 25,,3731,2021-05-04 15:51:07:601
0.787716,0.160416,10.024829,1.026521,-0.020328,9.752755,0.227418,-0.325796,0.914279,-0.96,10.5,-38.7,343.7294,0.1831,-5.8575,55.81401,37.50028,204.1923,NaN,0.0,6.0,,20 / 25,,3741,2021-05-04 15:51:07:611
0.787716,0.160416,10.024829,1.083935,0.002483,9.746562,0.262238,-0.379553,0.950931,-0.96,10.5,-38.7,343.7294,0.1831,-5.8575,55.81401,37.50028,204.1923,NaN,0.0,6.0,,20 / 25,,3751,2021-05-04 15:51:07:621
0.751802,0.126897,10.079897,1.083935,0.002483,9.746562,0.312329,-0.359394,1.011407,-1.32,10.02,-38.52,341.6671,-0.0145,-6.3459,55.81401,37.50028,204.1923,NaN,0.0,6.0,,20 / 25,,3761,2021-05-04 15:51:07:631
0.818842,0.059857,9.905115,1.155205,0.038316,9.738297,0.369139,-0.297697,1.085932,-1.32,10.02,-38.52,341.6671,-0.0145,-6.3459,55.81401,37.50028,204.1923,NaN,0.0,6.0,,20 / 25,,3772,2021-05-04 15:51:07:642
0.905036,-0.146051,9.593859,1.155205,0.038316,9.738297,0.399072,-0.215841,1.123195,-1.5,9.36,-38.46,341.6671,-0.0145,-6.3459,55.81401,37.50028,204.1923,NaN,0.0,6.0,,20 / 25,,3781,2021-05-04 15:51:07:651
1.017567,-0.349564,9.323306,1.202247,0.088004,9.732279,0.386243,-0.160863,1.116475,-1.5,9.36,-38.46,341.6671,-0.0145,-6.3459,55.81401,37.50028,204.1923,NaN,0.0,6.0,,20 / 25,,3792,2021-05-04 15:51:07:662
1.017567,-0.349564,9.323306,1.202247,0.088004,9.732279,0.357533,-0.152311,1.050502,-1.38,9.96,-37.98,340.4751,-0.5142,-7.0422,55.81401,37.50028,204.1923,NaN,0.0,6.0,,20 / 25,,3801,2021-05-04 15:51:07:671
0.993624,-0.411815,9.225141,1.234239,0.133354,9.727757,0.303777,-0.18041,0.980863,-1.38,9.96,-37.98,340.4751,-0.5142,-7.0422,55.81401,37.50028,204.1923,NaN,0.0,6.0,,20 / 25,,3813,2021-05-04 15:51:07:683
0.948133,-0.270553,9.337671,1.234239,0.133354,9.727757,0.25002,-0.21523,0.919166,-1.02,10.08,-37.68,340.4751,-0.5142,-7.0422,55.81401,37.50028,204.1923,NaN,0.0,6.0,,20 / 25,,3821,2021-05-04 15:51:07:691
0.89067,-0.22985,9.591465,1.274906,0.162733,9.722063,0.206038,-0.232334,0.885568,-1.02,10.08,-37.68,340.4751,-0.5142,-7.0422,55.81401,37.50028,204.1923,NaN,0.0,6.0,,20 / 25,,3831,2021-05-04 15:51:07:701
0.97447,-0.011971,9.785401,1.274906,0.162733,9.722063,0.199319,-0.254936,0.871518,-0.66,9.3,-38.16,337.6931,-0.9508,-7.4709,55.81401,37.50028,204.1923,NaN,0.0,6.0,,20 / 25,,3842,2021-05-04 15:51:07:712
0.97447,-0.011971,9.785401,1.324449,0.178946,9.715153,0.235971,-0.268375,0.880071,-0.66,9.3,-38.16,337.6931,-0.9508,-7.4709,55.81401,37.50028,204.1923,NaN,0.0,6.0,,20 / 25,,3852,2021-05-04 15:51:07:722
0.85715,-0.114925,9.96976,1.351648,0.188609,9.711224,0.276899,-0.261045,0.904505,-0.96,9.06,-38.1,337.6931,-0.9508,-7.4709,55.81401,37.50028,204.1923,NaN,0.0,6.0,,20 / 25,,3861,2021-05-04 15:51:07:731
0.84039,-0.062251,10.032011,1.351648,0.188609,9.711224,0.359365,-0.207899,0.960094,-0.96,9.06,-38.1,337.6931,-0.9508,-7.4709,55.81401,37.50028,204.1923,NaN,0.0,6.0,,20 / 25,,3872,2021-05-04 15:51:07:742
0.84039,-0.062251,10.032011,1.400056,0.223968,9.703611,0.44061,-0.086948,1.033398,-1.5,8.94,-38.1,336.4032,-1.102,-7.9238,55.81401,37.50028,204.1923,NaN,0.0,6.0,,20 / 25,,3882,2021-05-04 15:51:07:752
1.070241,-0.057463,10.012857,1.400056,0.223968,9.703611,0.491312,0.027284,1.073104,-1.5,8.94,-38.1,336.4032,-1.102,-7.9238,55.81401,37.50028,204.1923,NaN,0.0,6.0,,20 / 25,,3891,2021-05-04 15:51:07:761
1.266571,-0.002394,9.828498,1.416943,0.281458,9.699661,0.487036,0.092035,1.085321,-1.44,8.58,-38.88,336.4032,-1.102,-7.9238,55.81401,37.50028,204.1923,NaN,0.0,6.0,,20 / 25,,3901,2021-05-04 15:51:07:771
1.441354,0.28013,9.694419,1.416943,0.281458,9.699661,0.465045,0.108529,1.088986,-1.44,8.58,-38.88,336.4032,-1.102,-7.9238,55.81401,37.50028,204.1923,NaN,0.0,6.0,,20 / 25,,3911,2021-05-04 15:51:07:781
1.266571,0.021548,9.799767,1.40543,0.344251,9.699311,0.435113,0.096922,1.095095,-1.38,7.92,-39.18,332.9656,-1.6447,-8.3111,55.81401,37.50028,204.1923,NaN,0.0,6.0,,20 / 25,,3922,2021-05-04 15:51:07:792
1.266571,0.021548,9.799767,1.40543,0.344251,9.699311,0.418008,0.089592,1.099371,-1.38,7.92,-39.18,332.9656,-1.6447,-8.3111,55.81401,37.50028,204.1923,NaN,0.0,6.0,,20 / 25,,3932,2021-05-04 15:51:07:802
1.065452,-0.074223,9.866806,1.394216,0.397216,9.698905,0.427782,0.095701,1.114643,-1.2,7.8,-38.7,332.9656,-1.6447,-8.3111,55.81401,37.50028,204.1923,NaN,0.0,6.0,,20 / 25,,3941,2021-05-04 15:51:07:811
0.828419,0.007183,9.783007,1.394216,0.397216,9.698905,0.444276,0.071877,1.152516,-1.2,7.8,-38.7,332.9656,-1.6447,-8.3111,55.81401,37.50028,204.1923,NaN,0.0,6.0,,20 / 25,,3951,2021-05-04 15:51:07:821
0.828419,0.007183,9.783007,1.38524,0.448047,9.697976,0.444276,0.071877,1.152516,-0.72,7.92,-38.58,334.509,-2.3214,-8.1802,55.81401,37.50028,204.1923,NaN,0.0,6.0,,20 / 25,,3961,2021-05-04 15:51:07:831
0.756591,0.112531,9.972155,1.38524,0.448047,9.697976,0.461991,0.088981,1.222155,-0.72,7.92,-38.58,334.509,-2.3214,-8.1802,55.81401,37.50028,204.1923,NaN,0.0,6.0,,20 / 25,,3971,2021-05-04 15:51:07:841
0.782928,-0.138868,9.976943,1.377984,0.503337,9.696299,0.479706,0.202602,1.351048,-0.6,6.96,-39.12,334.509,-2.3214,-8.1802,55.81401,37.50028,204.1923,NaN,0.0,6.0,,20 / 25,,3981,2021-05-04 15:51:07:851
1.003201,-0.208302,9.438231,1.377984,0.503337,9.696299,0.466267,0.269186,1.409691,-0.6,6.96,-39.12,334.509,-2.3214,-8.1802,55.81401,37.50028,204.1923,NaN,0.0,6.0,,20 / 25,,3991,2021-05-04 15:51:07:861
1.20432,0.146051,9.12937,1.344064,0.555022,9.698238,0.450384,0.266743,1.449397,-0.18,6.9,-39.18,328.5515,-2.9421,-8.0884,55.81401,37.50028,204.1923,NaN,0.0,6.0,,20 / 25,,4002,2021-05-04 15:51:07:872
1.20432,0.146051,9.12937,1.344064,0.555022,9.698238,0.427171,0.216652,1.438401,-0.18,6.9,-39.18,328.5515,-2.9421,-8.0884,55.81401,37.50028,204.1923,NaN,0.0,6.0,,20 / 25,,4012,2021-05-04 15:51:07:882
1.036721,0.632089,9.337671,1.314377,0.59986,9.699637,0.405791,0.22215,1.379758,-0.12,7.38,-38.88,328.5515,-2.9421,-8.0884,55.81401,37.50028,204.1923,NaN,0.0,6.0,,20 / 25,,4021,2021-05-04 15:51:07:891
0.670397,0.407027,9.282603,1.314377,0.59986,9.699637,0.34837,0.318666,1.361432,-0.12,7.38,-38.88,328.5515,-2.9421,-8.0884,55.81401,37.50028,204.1923,NaN,0.0,6.0,,20 / 25,,4032,2021-05-04 15:51:07:902
0.670397,0.407027,9.282603,1.274966,0.634366,9.702702,0.287283,0.443894,1.418854,0.12,7.08,-39.48,330.749,-3.5069,-7.717,55.81401,37.50028,204.1923,NaN,0.0,6.0,,20 / 25,,4041,2021-05-04 15:51:07:911
1.010384,0.459701,9.050359,1.274966,0.634366,9.702702,0.251242,0.44817,1.462225,0.12,7.08,-39.48,330.749,-3.5069,-7.717,55.81401,37.50028,204.1923,NaN,0.0,6.0,,20 / 25,,4051,2021-05-04 15:51:07:921
1.182772,0.002394,9.081485,1.205099,0.649366,9.710636,0.250631,0.376699,1.461614,0.48,6.48,-39.48,330.749,-3.5069,-7.717,55.81401,37.50028,204.1923,NaN,0.0,6.0,,20 / 25,,4061,2021-05-04 15:51:07:931
1.3384,0.062251,9.093455,1.205099,0.649366,9.710636,0.22864,0.346766,1.415799,0.48,6.48,-39.48,330.749,-3.5069,-7.717,55.81401,37.50028,204.1923,NaN,0.0,6.0,,20 / 25,,4071,2021-05-04 15:51:07:941
1.340794,0.21309,8.91149,1.153495,0.661075,9.716111,0.155336,0.337603,1.335165,0.6,6.06,-39.54,325.4861,-3.7967,-7.0743,55.81401,37.50028,204.1923,NaN,0.0,6.0,,20 / 25,,4082,2021-05-04 15:51:07:952
1.340794,0.21309,8.91149,1.153495,0.661075,9.716111,0.006896,0.316223,1.255142,0.6,6.06,-39.54,325.4861,-3.7967,-7.0743,55.81401,37.50028,204.1923,NaN,0.0,6.0,,20 / 25,,4092,2021-05-04 15:51:07:962
1.422199,0.349564,8.554744,1.106305,0.649582,9.722372,-0.109779,0.258802,1.216657,1.5,6.42,-39.42,325.4861,-3.7967,-7.0743,55.81401,37.50028,204.1923,NaN,0.0,6.0,,20 / 25,,4101,2021-05-04 15:51:07:971
1.465296,0.225062,8.413482,1.106305,0.649582,9.722372,-0.24478,0.097533,1.19711,1.5,6.42,-39.42,325.4861,-3.7967,-7.0743,55.81401,37.50028,204.1923,NaN,0.0,6.0,,20 / 25,,4112,2021-05-04 15:51:07:982
1.331217,0.464489,9.131764,1.087106,0.587983,9.728456,-0.328469,-0.035635,1.191001,2.4,6.3,-38.7,323.162,-3.798,-6.4917,55.81401,37.50028,204.1923,NaN,0.0,6.0,,20 / 25,,4121,2021-05-04 15:51:07:991
1.331217,0.464489,9.131764,1.087106,0.587983,9.728456,-0.344351,0.009569,1.164734,2.4,6.3,-38.7,323.162,-3.798,-6.4917,55.81401,37.50028,204.1923,NaN,0.0,6.0,,20 / 25,,4131,2021-05-04 15:51:08:001
1.216292,0.416604,9.591465,1.103165,0.497638,9.731688,-0.305867,0.054773,1.139688,2.34,6.06,-39.0,323.162,-3.798,-6.4917,55.81401,37.50028,204.1923,NaN,0.0,6.0,,20 / 25,,4141,2021-05-04 15:51:08:011
1.300091,0.64406,9.938635,1.103165,0.497638,9.731688,-0.243559,0.103031,1.101204,2.34,6.06,-39.0,323.162,-3.798,-6.4917,55.81401,37.50028,204.1923,NaN,0.0,6.0,,20 / 25,,4151,2021-05-04 15:51:08:021
1.319246,0.383084,9.960183,1.099863,0.417937,9.735811,-0.205074,0.16595,1.04928,1.98,6.54,-39.3,324.5043,-2.9087,-6.4673,55.81401,37.50028,204.1923,NaN,0.0,6.0,,20 / 25,,4162,2021-05-04 15:51:08:032
1.319246,0.383084,9.960183,1.088965,0.385631,9.738369,-0.18125,0.148235,1.036452,2.1,6.12,-39.48,324.5043,-2.9087,-6.4673,55.81401,37.50028,204.1923,NaN,0.0,6.0,,20 / 25,,4171,2021-05-04 15:51:08:041
1.087001,-0.146051,10.084685,1.088965,0.385631,9.738369,-0.077403,0.070655,1.043172,2.1,6.12,-39.48,324.5043,-2.9087,-6.4673,55.81401,37.50028,204.1923,NaN,0.0,6.0,,20 / 25,,4182,2021-05-04 15:51:08:052
1.115732,0.102954,10.513261,1.074401,0.333629,9.741907,0.007507,0.098755,1.036452,2.34,5.58,-39.18,324.5043,-2.9087,-6.4673,55.81401,37.50028,204.1923,NaN,0.0,6.0,,20 / 25,,4191,2021-05-04 15:51:08:061
1.266571,0.208302,10.802968,1.074401,0.333629,9.741907,0.091806,0.149457,1.011407,2.34,5.58,-39.18,324.5043,-2.9087,-6.4673,55.81401,37.50028,204.1923,NaN,0.0,6.0,,20 / 25,,4201,2021-05-04 15:51:08:071
1.379102,0.33041,10.91071,1.061413,0.311695,9.744057,0.091806,0.149457,1.011407,2.82,6.18,-38.82,315.1849,-1.9496,-6.2935,55.81401,37.50028,204.1923,NaN,0.0,6.0,,20 / 25,,4211,2021-05-04 15:51:08:081
1.379102,0.33041,10.91071,1.061413,0.311695,9.744057,0.223753,0.18672,0.968035,2.82,6.18,-38.82,315.1849,-1.9496,-6.2935,55.81401,37.50028,204.1923,NaN,0.0,6.0,,20 / 25,,4221,2021-05-04 15:51:08:091
1.324034,0.474066,10.625792,1.034695,0.328421,9.746381,0.291559,0.17328,0.970479,2.16,6.66,-39.54,315.1849,-1.9496,-6.2935,55.81401,37.50028,204.1923,NaN,0.0,6.0,,20 / 25,,4231,2021-05-04 15:51:08:101
1.37192,0.289707,10.223554,1.034695,0.328421,9.746381,0.333709,0.075542,0.939935,2.16,6.66,-39.54,315.1849,-1.9496,-6.2935,55.81401,37.50028,204.1923,NaN,0.0,6.0,,20 / 25,,4241,2021-05-04 15:51:08:111
1.177983,0.505192,10.173274,1.021465,0.372511,9.74619,0.420452,0.001627,0.891066,2.52,6.06,-39.36,315.7344,-1.9192,-6.0599,55.81401,37.50028,204.1923,NaN,0.0,6.0,,20 / 25,,4251,2021-05-04 15:51:08:121
1.177983,0.505192,10.173274,1.021465,0.372511,9.74619,0.472375,-0.020975,0.867242,2.52,6.06,-39.36,315.7344,-1.9192,-6.0599,55.81401,37.50028,204.1923,NaN,0.0,6.0,,20 / 25,,4261,2021-05-04 15:51:08:131
0.883487,0.57702,10.022434,1.030823,0.441254,9.742334,0.487647,-0.011812,0.880071,3.42,5.58,-38.64,315.7344,-1.9192,-6.0599,55.81401,37.50028,204.1923,NaN,0.0,6.0,,20 / 25,,4271,2021-05-04 15:51:08:141
0.670397,0.476461,9.852441,1.030823,0.441254,9.742334,0.50353,0.002238,0.939935,3.42,5.58,-38.64,315.7344,-1.9192,-6.0599,55.81401,37.50028,204.1923,NaN,0.0,6.0,,20 / 25,,4281,2021-05-04 15:51:08:151
0.883487,0.648849,9.708784,1.040583,0.518693,9.737481,0.525521,0.059049,0.988194,3.12,5.52,-39.36,317.4658,-2.5789,-6.0399,55.81401,37.50028,204.1923,NaN,0.0,6.0,,23 / 25,,4291,2021-05-04 15:51:08:161
0.950527,0.720677,9.402317,1.040583,0.518693,9.737481,0.520634,0.076153,0.991248,3.12,5.52,-39.36,317.4658,-2.5789,-6.0399,55.81401,37.50028,204.1923,NaN,0.0,6.0,,23 / 25,,4301,2021-05-04 15:51:08:171
0.950527,0.720677,9.402317,1.038979,0.59974,9.732996,0.493756,0.088981,0.974144,3.36,5.22,-39.36,317.4658,-2.5789,-6.0399,55.81401,37.50028,204.1923,NaN,0.0,6.0,,23 / 25,,4311,2021-05-04 15:51:08:181
0.74462,0.474066,9.28021,1.038979,0.59974,9.732996,0.424117,0.131131,1.02057,3.36,5.22,-39.36,317.4658,-2.5789,-6.0399,55.81401,37.50028,204.1923,NaN,0.0,6.0,,23 / 25,,4322,2021-05-04 15:51:08:192
0.476461,0.533923,9.115005,1.03225,0.673578,9.728882,0.380135,0.097533,1.090819,3.54,4.32,-39.6,307.8887,-3.5062,-6.0931,55.81401,37.50028,204.1923,NaN,0.0,6.0,,23 / 25,,4331,2021-05-04 15:51:08:201
0.457306,0.756591,9.251478,1.03225,0.673578,9.728882,0.380135,0.097533,1.090819,3.54,4.32,-39.6,307.8887,-3.5062,-6.0931,55.81401,37.50028,204.1923,NaN,0.0,6.0,,23 / 25,,4341,2021-05-04 15:51:08:211
0.438152,0.498009,9.26345,1.026861,0.725935,9.725686,0.330655,0.096311,1.185503,3.24,3.6,-39.42,307.8887,-3.5062,-6.0931,55.81401,37.50028,204.1923,NaN,0.0,6.0,,23 / 25,,4352,2021-05-04 15:51:08:222
0.438152,0.498009,9.26345,1.026861,0.725935,9.725686,0.289116,0.094479,1.253309,3.24,3.6,-39.42,307.8887,-3.5062,-6.0931,55.81401,37.50028,204.1923,NaN,0.0,6.0,,23 / 25,,4361,2021-05-04 15:51:08:231
0.64406,0.668003,9.414289,1.026551,0.758849,9.723206,0.264681,0.096922,1.292405,2.64,4.02,-39.24,314.0051,-4.2452,-6.0271,55.81401,37.50028,204.1923,NaN,0.0,6.0,,23 / 25,,4371,2021-05-04 15:51:08:241
0.756591,0.706311,9.565128,1.026551,0.758849,9.723206,0.239025,0.17267,1.314396,2.64,4.02,-39.24,314.0051,-4.2452,-6.0271,55.81401,37.50028,204.1923,NaN,0.0,6.0,,23 / 25,,4381,2021-05-04 15:51:08:251
0.881093,0.845179,9.450203,1.016682,0.779378,9.722619,0.211536,0.237421,1.343106,2.64,3.72,-39.54,314.0051,-4.2452,-6.0271,55.81401,37.50028,204.1923,NaN,0.0,6.0,,23 / 25,,4391,2021-05-04 15:51:08:261
0.816448,0.565049,9.433443,1.016682,0.779378,9.722619,0.169386,0.258191,1.358378,2.94,3.6,-39.42,314.0051,-4.2452,-6.0271,55.81401,37.50028,204.1923,NaN,0.0,6.0,,23 / 25,,4402,2021-05-04 15:51:08:272
0.816448,0.565049,9.433443,0.988158,0.787922,9.724871,0.12968,0.265521,1.385867,2.94,3.6,-39.42,314.0051,-4.2452,-6.0271,55.81401,37.50028,204.1923,NaN,0.0,6.0,,23 / 25,,4411,2021-05-04 15:51:08:281
0.897853,0.605752,9.301758,0.988158,0.787922,9.724871,0.074702,0.226426,1.432904,3.84,2.82,-39.42,307.4838,-4.6084,-5.802,55.81401,37.50028,204.1923,NaN,0.0,6.0,,23 / 25,,4421,2021-05-04 15:51:08:291
0.998413,0.138868,9.416683,0.961973,0.779544,9.72817,0.01667,0.159841,1.435958,3.84,2.82,-39.42,307.4838,-4.6084,-5.802,55.81401,37.50028,204.1923,NaN,0.0,6.0,,23 / 25,,4431,2021-05-04 15:51:08:301
1.659233,0.179571,9.809344,0.961973,0.779544,9.72817,0.007507,0.05294,1.433514,3.72,2.22,-40.2,307.4838,-4.6084,-5.802,55.81401,37.50028,204.1923,NaN,0.0,6.0,,23 / 25,,4441,2021-05-04 15:51:08:311
1.659233,0.179571,9.809344,0.963131,0.753887,9.730078,0.050878,0.008958,1.355324,3.42,2.04,-39.84,307.4838,-4.6084,-5.802,55.81401,37.50028,204.1923,NaN,0.0,6.0,,23 / 25,,4452,2021-05-04 15:51:08:322
2.006402,0.344776,10.273833,0.963131,0.753887,9.730078,0.140676,0.139072,1.166566,3.42,2.04,-39.84,307.4838,-4.6084,-5.802,55.81401,37.50028,204.1923,NaN,0.0,6.0,,23 / 25,,4461,2021-05-04 15:51:08:331
1.999219,0.531529,10.242707,0.973003,0.744113,9.729849,0.210314,0.227648,1.067606,3.96,1.62,-38.88,302.3124,-4.409,-5.653,55.81401,37.50028,204.1923,NaN,0.0,6.0,,23 / 25,,4471,2021-05-04 15:51:08:341
1.826832,0.629694,9.847652,0.973003,0.744113,9.729849,0.242079,0.248417,0.975976,3.96,1.62,-38.88,302.3124,-4.409,-5.653,55.81401,37.50028,204.1923,NaN,0.0,6.0,,23 / 25,,4481,2021-05-04 15:51:08:351
1.826832,0.629694,9.847652,0.945315,0.764505,9.730997,0.237803,0.155565,0.92222,4.26,2.04,-39.42,302.3124,-4.409,-5.653,55.81401,37.50028,204.1923,NaN,0.0,6.0,,23 / 25,,4491,2021-05-04 15:51:08:361
1.386285,0.349564,9.414289,0.931313,0.779004,9.731197,0.237803,0.155565,0.941157,3.96,1.98,-39.24,302.3124,-4.409,-5.653,55.81401,37.50028,204.1923,NaN,0.0,6.0,,23 / 25,,4501,2021-05-04 15:51:08:371
1.268966,0.59378,9.435837,0.931313,0.779004,9.731197,0.242079,-0.045409,0.941157,3.96,1.98,-39.24,302.3124,-4.409,-5.653,55.81401,37.50028,204.1923,NaN,0.0,6.0,,23 / 25,,4512,2021-05-04 15:51:08:382
1.37192,0.706311,9.938635,0.953024,0.807751,9.72675,0.26407,-0.269597,0.968035,3.54,1.92,-39.48,303.254,-4.5562,-5.4668,55.81401,37.50028,204.1923,NaN,0.0,6.0,,23 / 25,,4521,2021-05-04 15:51:08:391
1.513182,0.94095,10.285805,0.953024,0.807751,9.72675,0.33432,-0.272651,0.979031,3.54,1.92,-39.48,303.254,-4.5562,-5.4668,55.81401,37.50028,204.1923,NaN,0.0,6.0,,23 / 25,,4532,2021-05-04 15:51:08:402
1.513182,0.94095,10.285805,1.025012,0.847138,9.716074,0.399682,-0.155976,0.958261,4.02,1.32,-39.18,303.254,-4.5562,-5.4668,55.81401,37.50028,204.1923,NaN,0.0,6.0,,23 / 25,,4541,2021-05-04 15:51:08:411
1.419805,0.912219,10.168485,1.025012,0.847138,9.716074,0.433891,0.010179,0.926496,4.02,1.32,-39.18,303.254,-4.5562,-5.4668,55.81401,37.50028,204.1923,NaN,0.0,6.0,,23 / 25,,4551,2021-05-04 15:51:08:421
1.048692,0.861939,9.63935,1.056396,0.907909,9.70722,0.420452,0.163507,0.899007,4.26,1.2,-38.94,298.1091,-4.9556,-6.0222,55.81401,37.50028,204.1923,NaN,0.0,6.0,,23 / 25,,4561,2021-05-04 15:51:08:431
0.739831,0.773351,9.268238,1.056396,0.907909,9.70722,0.36975,0.205656,0.916722,4.26,1.2,-38.94,298.1091,-4.9556,-6.0222,55.81401,37.50028,204.1923,NaN,0.0,6.0,,23 / 25,,4571,2021-05-04 15:51:08:441
0.739831,0.773351,9.268238,1.038152,0.965077,9.703672,0.261627,0.170226,0.981474,3.96,1.38,-38.94,298.1091,-4.9556,-6.0222,55.81401,37.50028,204.1923,NaN,0.0,6.0,,23 / 25,,4581,2021-05-04 15:51:08:451
0.600963,0.854756,9.371192,1.038152,0.965077,9.703672,0.184658,0.187941,1.003465,3.96,1.38,-38.94,298.1091,-4.9556,-6.0222,55.81401,37.50028,204.1923,NaN,0.0,6.0,,23 / 25,,4591,2021-05-04 15:51:08:461
0.600963,0.864333,9.44302,1.022393,0.989598,9.702875,0.121739,0.211154,1.0279,3.9,1.32,-38.88,300.4104,-5.6476,-6.1066,55.81401,37.50028,204.1923,NaN,0.0,6.0,,23 / 25,,4601,2021-05-04 15:51:08:471
1.015173,1.106155,9.632168,1.022393,0.989598,9.702875,0.083254,0.261856,1.063941,3.9,1.32,-38.88,300.4104,-5.6476,-6.1066,55.81401,37.50028,204.1923,NaN,0.0,6.0,,23 / 25,,4611,2021-05-04 15:51:08:481
1.015173,1.106155,9.632168,0.999674,0.988875,9.705317,0.050878,0.335771,1.056611,4.32,0.6,-39.0,300.4104,-5.6476,-6.1066,55.81401,37.50028,204.1923,NaN,0.0,6.0,,23 / 25,,4621,2021-05-04 15:51:08:491
1.309668,1.336005,9.361614,0.999674,0.988875,9.705317,0.007507,0.302173,1.023013,4.32,0.6,-39.0,300.4104,-5.6476,-6.1066,55.81401,37.50028,204.1923,NaN,0.0,6.0,,23 / 25,,4631,2021-05-04 15:51:08:501
1.520365,1.192349,8.918674,0.957676,0.977324,9.71072,-0.06824,0.172059,0.96437,4.68,-0.36,-39.3,293.2857,-5.7874,-5.8809,55.81401,37.50028,204.1923,NaN,0.0,6.0,,23 / 25,,4641,2021-05-04 15:51:08:511
1.336005,0.632089,8.791777,0.957676,0.977324,9.71072,-0.15254,0.057216,0.935659,4.68,-0.36,-39.3,293.2857,-5.7874,-5.8809,55.81401,37.50028,204.1923,NaN,0.0,6.0,,23 / 25,,4652,2021-05-04 15:51:08:522
1.336005,0.632089,8.791777,0.94296,0.945208,9.715338,-0.238061,-0.035635,0.927718,4.62,-0.48,-39.3,293.2857,-5.7874,-5.8809,55.81401,37.50028,204.1923,NaN,0.0,6.0,,23 / 25,,4661,2021-05-04 15:51:08:531
1.3384,0.632089,8.870789,0.94296,0.945208,9.715338,-0.311365,-0.041744,0.923442,4.62,-0.48,-39.3,293.2857,-5.7874,-5.8809,55.81401,37.50028,204.1923,NaN,0.0,6.0,,23 / 25,,4671,2021-05-04 15:51:08:541
1.194743,0.462095,9.043176,0.965686,0.881285,9.719114,-0.36451,-0.012423,0.963148,4.5,0.3,-38.82,292.9064,-5.531,-5.5437,55.81401,37.50028,204.1923,NaN,0.0,6.0,,23 / 25,,4681,2021-05-04 15:51:08:551
1.340794,0.67758,9.342461,0.965686,0.881285,9.719114,-0.36451,-0.012423,0.963148,4.5,0.3,-38.82,292.9064,-5.531,-5.5437,55.81401,37.50028,204.1923,NaN,0.0,6.0,,23 / 25,,4691,2021-05-04 15:51:08:561
1.65205,0.878699,9.62259,0.985624,0.793888,9.724643,-0.395664,0.058438,1.007131,4.2,0.18,-39.0,292.9064,-5.531,-5.5437,55.81401,37.50028,204.1923,NaN,0.0,6.0,,23 / 25,,4702,2021-05-04 15:51:08:572
1.65205,0.878699,9.62259,0.985624,0.793888,9.724643,-0.42071,0.212987,0.973533,4.2,0.18,-39.0,292.9064,-5.531,-5.5437,55.81401,37.50028,204.1923,NaN,0.0,6.0,,23 / 25,,4711,2021-05-04 15:51:08:581
1.929786,0.754197,9.557945,0.971787,0.694945,9.733605,-0.443312,0.255747,0.892288,4.38,0.0,-39.6,291.7013,-4.6434,-5.7874,55.81401,37.50028,204.1923,NaN,0.0,6.0,,23 / 25,,4721,2021-05-04 15:51:08:591
2.138088,0.790111,9.57231,0.971787,0.694945,9.733605,-0.45614,0.256969,0.785386,4.38,0.0,-39.6,291.7013,-4.6434,-5.7874,55.81401,37.50028,204.1923,NaN,0.0,6.0,,23 / 25,,4731,2021-05-04 15:51:08:601
2.657645,1.22108,13.510893,0.93453,0.59193,9.744058,-0.452475,0.379142,0.635114,4.8,0.72,-39.6,291.7013,-4.6434,-5.7874,55.81401,37.50028,204.1923,NaN,0.0,6.0,,23 / 25,,4741,2021-05-04 15:51:08:611
0.861939,0.102954,12.828525,0.907629,0.540821,9.74957,-0.219124,0.71634,0.492171,4.74,0.9,-39.0,291.7013,-4.6434,-5.7874,55.81401,37.50028,204.1923,NaN,0.0,6.0,,23 / 25,,4751,2021-05-04 15:51:08:621
0.861939,0.102954,12.828525,0.907629,0.540821,9.74957,0.17183,0.379142,0.421922,4.74,0.9,-39.0,291.7013,-4.6434,-5.7874,55.81401,37.50028,204.1923,NaN,0.0,6.0,,23 / 25,,4761,2021-05-04 15:51:08:631
0.227456,0.009577,11.791803,0.796485,0.521132,9.760349,0.283007,-2.05E-4,0.384048,4.8,1.62,-38.58,295.5762,-3.1614,-5.3186,55.81401,37.50028,204.1923,NaN,0.0,6.0,,23 / 25,,4771,2021-05-04 15:51:08:641
-0.220273,-0.138868,10.132571,0.796485,0.521132,9.760349,0.283007,-2.05E-4,0.384048,4.8,1.62,-38.58,295.5762,-3.1614,-5.3186,55.81401,37.50028,204.1923,NaN,0.0,6.0,,23 / 25,,4781,2021-05-04 15:51:08:651
0.459701,0.816448,10.462981,0.809809,0.569397,9.756557,0.319048,-0.376498,0.481176,4.86,0.84,-38.7,295.5762,-3.1614,-5.3186,55.81401,37.50028,204.1923,NaN,0.0,6.0,,23 / 25,,4792,2021-05-04 15:51:08:662
1.37192,1.180378,10.31693,0.809809,0.569397,9.756557,0.326379,-0.184687,0.616788,4.86,0.84,-38.7,295.5762,-3.1614,-5.3186,55.81401,37.50028,204.1923,NaN,0.0,6.0,,23 / 25,,4801,2021-05-04 15:51:08:671
1.37192,1.180378,10.31693,0.867483,0.622795,9.748332,0.328822,0.086538,0.657716,4.86,0.42,-39.84,285.4427,-3.3286,-4.7448,55.81401,37.50028,204.1923,NaN,0.0,6.0,,23 / 25,,4811,2021-05-04 15:51:08:681
1.702329,0.842785,9.560339,0.867483,0.622795,9.748332,0.315383,0.24353,0.680928,4.86,0.42,-39.84,285.4427,-3.3286,-4.7448,55.81401,37.50028,204.1923,NaN,0.0,6.0,,23 / 25,,4822,2021-05-04 15:51:08:692
1.537124,0.928979,8.660092,0.838197,0.673148,9.747547,0.275066,0.228869,0.706585,4.98,0.9,-39.18,285.4427,-3.3286,-4.7448,55.81401,37.50028,204.1923,NaN,0.0,6.0,,23 / 25,,4831,2021-05-04 15:51:08:701
1.245023,0.84039,8.341654,0.838197,0.673148,9.747547,0.213369,0.120746,0.748124,4.98,0.9,-39.18,285.4427,-3.3286,-4.7448,55.81401,37.50028,204.1923,NaN,0.0,6.0,,23 / 25,,4842,2021-05-04 15:51:08:712
1.280937,0.572232,8.118986,0.819345,0.705563,9.746858,0.07348,0.107918,0.83731,4.68,0.06,-38.88,287.585,-3.936,-4.9148,55.81401,37.50028,204.1923,NaN,0.0,6.0,,23 / 25,,4851,2021-05-04 15:51:08:721
1.280937,0.572232,8.118986,0.819345,0.705563,9.746858,-0.111001,0.183665,0.888623,4.68,0.06,-38.88,287.585,-3.936,-4.9148,55.81401,37.50028,204.1923,NaN,0.0,6.0,,23 / 25,,4862,2021-05-04 15:51:08:732
0.74462,0.457306,8.176449,0.803925,0.687966,9.7494,-0.310754,0.217874,0.905116,3.9,0.06,-38.82,287.585,-3.936,-4.9148,55.81401,37.50028,204.1923,NaN,0.0,6.0,,23 / 25,,4871,2021-05-04 15:51:08:741
-0.131685,0.090982,8.921068,0.803925,0.687966,9.7494,-0.465914,0.184887,0.979031,3.9,0.06,-38.82,287.585,-3.936,-4.9148,55.81401,37.50028,204.1923,NaN,0.0,6.0,,23 / 25,,4881,2021-05-04 15:51:08:751
-0.498009,0.177176,10.13736,0.777396,0.59738,9.75752,-0.531276,0.110361,1.118919,4.02,0.24,-38.22,290.3278,-4.0228,-4.7139,55.81401,37.50028,204.1923,NaN,0.0,6.0,,23 / 25,,4891,2021-05-04 15:51:08:761
-0.26337,0.270553,11.439845,0.777396,0.59738,9.75752,-0.465303,0.207489,1.269192,4.02,0.24,-38.22,290.3278,-4.0228,-4.7139,55.81401,37.50028,204.1923,NaN,0.0,6.0,,23 / 25,,4901,2021-05-04 15:51:08:771
-0.26337,0.270553,11.439845,0.760457,0.480204,9.765322,-0.295482,0.373644,1.368763,5.52,0.24,-38.7,290.3278,-4.0228,-4.7139,55.81401,37.50028,204.1923,NaN,0.0,6.0,,23 / 25,,4911,2021-05-04 15:51:08:781
0.665608,0.316044,10.953807,0.760457,0.480204,9.765322,-0.188581,0.515976,1.390143,5.52,0.24,-38.7,290.3278,-4.0228,-4.7139,55.81401,37.50028,204.1923,NaN,0.0,6.0,,23 / 25,,4921,2021-05-04 15:51:08:791
1.120521,0.174782,9.629773,0.694919,0.405185,9.773602,-0.162924,0.525139,1.349215,6.36,0.18,-38.7,281.7933,-2.8067,-4.4528,55.81401,37.50028,204.1923,NaN,0.0,6.0,,23 / 25,,4931,2021-05-04 15:51:08:801
1.125309,0.459701,8.791777,0.694919,0.405185,9.773602,-0.189192,0.334549,1.251477,6.36,0.18,-38.7,281.7933,-2.8067,-4.4528,55.81401,37.50028,204.1923,NaN,0.0,6.0,,23 / 25,,4941,2021-05-04 15:51:08:811
0.998413,0.457306,8.906702,0.609543,0.354613,9.781262,-0.220957,0.161063,1.177562,6.0,0.0,-38.76,281.7933,-2.8067,-4.4528,55.81401,37.50028,204.1923,NaN,0.0,6.0,,23 / 25,,4951,2021-05-04 15:51:08:821
0.998413,0.457306,8.906702,0.609543,0.354613,9.781262,-0.299758,-0.132763,1.032176,6.0,0.0,-38.76,281.7933,-2.8067,-4.4528,55.81401,37.50028,204.1923,NaN,0.0,6.0,,23 / 25,,4962,2021-05-04 15:51:08:832
0.682368,0.160416,9.871595,0.60782,0.29272,9.783418,-0.294871,-0.1798,0.991859,6.3,0.06,-38.76,279.4073,-2.0723,-3.5659,55.81401,37.50028,204.1923,NaN,0.0,6.0,,23 / 25,,4972,2021-05-04 15:51:08:842
0.620117,0.172388,10.939442,0.60782,0.29272,9.783418,-0.194689,-0.093668,0.968646,6.3,0.06,-38.76,279.4073,-2.0723,-3.5659,55.81401,37.50028,204.1923,NaN,0.0,6.0,,23 / 25,,4981,2021-05-04 15:51:08:851
0.524346,0.21309,11.25788,0.645431,0.225443,9.78279,-0.194689,-0.093668,0.968646,6.48,0.42,-38.76,279.4073,-2.0723,-3.5659,55.81401,37.50028,204.1923,NaN,0.0,6.0,,23 / 25,,4991,2021-05-04 15:51:08:861
0.481249,0.079011,10.908316,0.645431,0.225443,9.78279,-0.06091,0.059049,0.956429,6.48,0.42,-38.76,279.4073,-2.0723,-3.5659,55.81401,37.50028,204.1923,NaN,0.0,6.0,,23 / 25,,5001,2021-05-04 15:51:08:871
0.481249,0.079011,10.908316,0.645821,0.195467,9.783409,0.070426,0.110972,0.947877,5.88,1.2,-38.94,282.4284,-1.3173,-3.7747,55.81401,37.50028,204.1923,NaN,0.0,6.0,,23 / 25,,5011,2021-05-04 15:51:08:881
0.481249,-0.047885,10.714379,0.645821,0.195467,9.783409,0.14373,0.182443,0.973533,5.88,1.2,-38.94,282.4284,-1.3173,-3.7747,55.81401,37.50028,204.1923,NaN,0.0,6.0,,23 / 25,,5021,2021-05-04 15:51:08:891
0.572232,-0.234639,10.331296,0.618256,0.205543,9.784983,0.191377,0.347377,1.052334,5.58,0.96,-39.06,282.4284,-1.3173,-3.7747,55.81401,37.50028,204.1923,NaN,0.0,6.0,,23 / 25,,5033,2021-05-04 15:51:08:903
0.438152,-0.162811,9.950606,0.618256,0.205543,9.784983,0.191377,0.347377,1.052334,5.58,0.96,-39.06,282.4284,-1.3173,-3.7747,55.81401,37.50028,204.1923,NaN,0.0,6.0,,23 / 25,,5042,2021-05-04 15:51:08:912
0.498009,0.095771,9.557945,0.55924,0.228838,9.788016,0.220699,0.429233,1.121973,6.24,0.42,-38.7,275.4629,-1.201,-3.6154,55.81401,37.50028,204.1923,NaN,0.0,6.0,,23 / 25,,5052,2021-05-04 15:51:08:922
0.498009,0.095771,9.557945,0.55924,0.228838,9.788016,0.217645,0.508646,1.195888,6.24,0.42,-38.7,275.4629,-1.201,-3.6154,55.81401,37.50028,204.1923,NaN,0.0,6.0,,23 / 25,,5061,2021-05-04 15:51:08:931
0.835602,0.21309,9.155706,0.473547,0.259526,9.791772,0.213979,0.530026,1.245979,6.24,0.12,-38.64,275.4629,-1.201,-3.6154,55.81401,37.50028,204.1923,NaN,0.0,6.0,,23 / 25,,5071,2021-05-04 15:51:08:941
1.098972,0.162811,9.328094,0.473547,0.259526,9.791772,0.217645,0.51903,1.253309,6.24,0.12,-38.64,275.4629,-1.201,-3.6154,55.81401,37.50028,204.1923,NaN,0.0,6.0,,23 / 25,,5081,2021-05-04 15:51:08:951
0.579415,0.136474,9.792584,0.378148,0.290348,9.795054,0.223753,0.508035,1.228264,6.12,-0.54,-39.0,270.1716,-1.5165,-2.7688,55.81401,37.50028,204.1923,NaN,0.0,6.0,,23 / 25,,5091,2021-05-04 15:51:08:961
0.579415,0.136474,9.792584,0.378148,0.290348,9.795054,0.268957,0.489098,1.183671,6.12,-0.54,-39.0,270.1716,-1.5165,-2.7688,55.81401,37.50028,204.1923,NaN,0.0,6.0,,23 / 25,,5101,2021-05-04 15:51:08:971
0.071828,0.146051,9.823709,0.288437,0.32911,9.796881,0.295835,0.462831,1.178784,7.02,-0.06,-38.88,270.1716,-1.5165,-2.7688,55.81401,37.50028,204.1923,NaN,0.0,6.0,,23 / 25,,5111,2021-05-04 15:51:08:981
-0.052674,0.277736,9.364009,0.288437,0.32911,9.796881,0.251242,0.431066,1.206883,7.02,-0.06,-38.88,270.1716,-1.5165,-2.7688,55.81401,37.50028,204.1923,NaN,0.0,6.0,,23 / 25,,5121,2021-05-04 15:51:08:991
0.009577,0.198725,8.813326,0.207358,0.378564,9.797147,0.133956,0.387694,1.240481,7.68,-0.06,-39.12,278.0935,-1.9232,-1.6864,55.81401,37.50028,204.1923,NaN,0.0,6.0,,23 / 25,,5132,2021-05-04 15:51:09:002
0.0,0.253793,8.956982,0.207358,0.378564,9.797147,0.133956,0.387694,1.240481,7.68,-0.06,-39.12,278.0935,-1.9232,-1.6864,55.81401,37.50028,204.1923,NaN,0.0,6.0,,23 / 25,,5141,2021-05-04 15:51:09:011
0.0,0.253793,8.956982,0.140956,0.401881,9.797398,0.022779,0.343101,1.262472,7.2,-1.08,-38.46,278.0935,-1.9232,-1.6864,55.81401,37.50028,204.1923,NaN,0.0,6.0,,23 / 25,,5152,2021-05-04 15:51:09:022
0.150839,0.227456,9.534002,0.140956,0.401881,9.797398,-0.026091,0.339436,1.290572,7.2,-1.08,-38.46,278.0935,-1.9232,-1.6864,55.81401,37.50028,204.1923,NaN,0.0,6.0,,23 / 25,,5161,2021-05-04 15:51:09:031
0.569837,0.284919,10.312141,0.084114,0.395379,9.798315,-0.036475,0.445726,1.297292,7.14,-0.96,-37.98,274.1975,-2.3487,-0.8243,55.81401,37.50028,204.1923,NaN,0.0,6.0,,23 / 25,,5171,2021-05-04 15:51:09:041
0.928979,0.471672,10.077502,0.084114,0.395379,9.798315,1.77E-4,0.622266,1.25392,7.14,-0.96,-37.98,274.1975,-2.3487,-0.8243,55.81401,37.50028,204.1923,NaN,0.0,6.0,,23 / 25,,5181,2021-05-04 15:51:09:051
0.928979,0.471672,10.077502,0.084114,0.395379,9.798315,1.77E-4,0.622266,1.25392,7.14,-0.96,-37.98,274.1975,-2.3487,-0.8243,55.81401,37.50028,204.1923,NaN,0.0,6.0,,23 / 25,,5191,2021-05-04 15:51:09:061
0.928979,0.471672,10.077502,0.084114,0.395379,9.798315,1.77E-4,0.622266,1.25392,7.14,-0.96,-37.98,274.1975,-2.3487,-0.8243,55.81401,37.50028,204.1923,NaN,0.0,6.0,,23 / 25,,5201,2021-05-04 15:51:09:071
0.909824,0.478855,9.816526,-0.014042,0.391179,9.798835,0.022168,0.8434,1.167177,8.16,-1.68,-38.76,267.0547,-2.3106,-0.4918,55.81401,37.50028,204.1923,NaN,0.0,6.0,,23 / 25,,5211,2021-05-04 15:51:09:081
0.679974,0.483644,7.326481,-0.014042,0.391179,9.798835,-0.305867,0.889825,0.769504,8.16,-1.68,-38.76,267.0547,-2.3106,-0.4918,55.81401,37.50028,204.1923,NaN,0.0,6.0,,23 / 25,,5221,2021-05-04 15:51:09:091
0.679974,0.483644,7.326481,-0.377013,0.360339,9.792773,-0.486683,0.692516,0.622285,7.92,-1.26,-38.4,267.0547,-2.3106,-0.4918,55.81401,37.50028,204.1923,NaN,0.0,6.0,,23 / 25,,5232,2021-05-04 15:51:09:102
0.165205,0.586597,8.573898,-0.377013,0.360339,9.792773,-0.553267,0.584393,0.548371,7.92,-1.26,-38.4,267.0547,-2.3106,-0.4918,55.81401,37.50028,204.1923,NaN,0.0,6.0,,23 / 25,,5241,2021-05-04 15:51:09:111
-0.129291,0.390267,10.161303,-0.505222,0.270174,9.7899,-0.526389,0.569121,0.507443,9.06,-1.26,-37.44,270.2521,-1.5787,2.9542,55.81401,37.50028,204.1923,NaN,0.0,6.0,,23 / 25,,5251,2021-05-04 15:51:09:121
-0.186753,-0.114925,10.527626,-0.505222,0.270174,9.7899,-0.422542,0.597832,0.472623,9.06,-1.26,-37.44,270.2521,-1.5787,2.9542,55.81401,37.50028,204.1923,NaN,0.0,6.0,,23 / 25,,5261,2021-05-04 15:51:09:131
-0.433364,-0.486038,10.388759,-0.613539,0.174528,9.785883,-0.315641,0.645479,0.481786,10.62,-1.02,-37.08,270.2521,-1.5787,2.9542,55.81401,37.50028,204.1923,NaN,0.0,6.0,,23 / 25,,5271,2021-05-04 15:51:09:141
-0.433364,-0.486038,10.388759,-0.613539,0.174528,9.785883,-0.23012,0.727335,0.517827,10.62,-1.02,-37.08,270.2521,-1.5787,2.9542,55.81401,37.50028,204.1923,NaN,0.0,6.0,,23 / 25,,5281,2021-05-04 15:51:09:151
-0.754197,-0.308861,10.139753,-0.737356,0.118493,9.778172,-0.23012,0.727335,0.517827,10.8,-0.66,-37.32,267.8159,-1.0197,3.5875,55.81401,37.50028,204.1067,NaN,0.0,6.0,,26 / 26,,5291,2021-05-04 15:51:09:161
-1.398256,-0.193936,9.854836,-0.737356,0.118493,9.778172,-0.167201,0.789643,0.599073,10.8,-0.66,-37.32,267.8159,-1.0197,3.5875,55.81401,37.50028,204.1067,NaN,0.0,6.0,,26 / 26,,5301,2021-05-04 15:51:09:171
-0.950527,0.529135,9.768641,-0.886359,0.092507,9.766074,-0.150707,0.831182,0.672376,10.5,-1.26,-37.38,267.8159,-1.0197,3.5875,55.81401,37.50028,204.1067,NaN,0.0,6.0,,26 / 26,,5311,2021-05-04 15:51:09:181
-0.227456,0.888276,9.711179,-0.886359,0.092507,9.766074,-0.164757,0.855006,0.644277,10.98,-1.38,-37.32,267.8159,-1.0197,3.5875,55.81401,37.50028,204.1067,NaN,0.0,6.0,,26 / 26,,5321,2021-05-04 15:51:09:191
-0.227456,0.888276,9.711179,-1.049044,0.074692,9.750093,-0.172698,0.828739,0.449411,10.98,-1.38,-37.32,267.8159,-1.0197,3.5875,55.81401,37.50028,204.1067,NaN,0.0,6.0,,26 / 26,,5332,2021-05-04 15:51:09:202
0.344776,0.715888,9.665688,-1.049044,0.074692,9.750093,-0.156205,0.768263,0.274703,11.76,-1.14,-37.2,264.9112,-0.4364,6.141,55.81401,37.50028,204.1067,NaN,0.0,6.0,,26 / 26,,5341,2021-05-04 15:51:09:211
-0.21309,0.337593,9.967366,-1.206916,0.051908,9.73196,-0.126883,0.790865,0.162304,11.76,-1.14,-37.2,264.9112,-0.4364,6.141,55.81401,37.50028,204.1067,NaN,0.0,6.0,,26 / 26,,5351,2021-05-04 15:51:09:221
-1.977671,-0.220273,9.972155,-1.206916,0.051908,9.73196,-0.03953,0.73772,0.188571,12.66,-1.14,-37.08,264.9112,-0.4364,6.141,55.81401,37.50028,204.1067,NaN,0.0,6.0,,26 / 26,,5362,2021-05-04 15:51:09:232
-3.100586,-0.646454,9.672871,-1.356924,0.034169,9.712258,0.029498,0.570954,0.352283,12.66,-1.14,-37.08,264.9112,-0.4364,6.141,55.81401,37.50028,204.1067,NaN,0.0,6.0,,26 / 26,,5371,2021-05-04 15:51:09:241
-3.100586,-0.646454,9.672871,-1.356924,0.034169,9.712258,0.077756,0.478102,0.527601,13.14,-0.72,-37.08,263.6281,-0.1996,7.9535,55.81401,37.50028,204.1067,NaN,0.0,6.0,,26 / 26,,5381,2021-05-04 15:51:09:251
-2.985661,-0.102954,10.403124,-1.471968,0.047191,9.695436,0.077756,0.478102,0.527601,13.14,-0.72,-37.08,263.6281,-0.1996,7.9535,55.81401,37.50028,204.1067,NaN,0.0,6.0,,26 / 26,,5391,2021-05-04 15:51:09:261
-2.176396,0.055068,10.549175,-1.471968,0.047191,9.695436,0.141897,0.467718,0.669933,13.74,-0.3,-36.84,263.6281,-0.1996,7.9535,55.81401,37.50028,204.1067,NaN,0.0,6.0,,26 / 26,,5401,2021-05-04 15:51:09:271
-1.185166,0.114925,10.285805,-1.561823,0.089614,9.681067,0.174884,0.481767,0.685815,13.74,-0.3,-36.84,263.6281,-0.1996,7.9535,55.81401,37.50028,204.1067,NaN,0.0,6.0,,26 / 26,,5411,2021-05-04 15:51:09:281
-1.460508,0.095771,10.503684,-1.561823,0.089614,9.681067,0.192599,0.509867,0.654661,14.22,-1.2,-36.48,265.3712,-0.5236,9.1644,55.81401,37.50028,204.1067,NaN,0.0,6.0,,26 / 26,,5421,2021-05-04 15:51:09:291
-1.460508,0.095771,10.503684,-1.656524,0.14697,9.664612,0.229251,0.584393,0.652829,14.22,-1.2,-36.48,265.3712,-0.5236,9.1644,55.81401,37.50028,204.1067,NaN,0.0,6.0,,26 / 26,,5431,2021-05-04 15:51:09:301
-1.774158,0.007183,10.465375,-1.656524,0.14697,9.664612,0.261016,0.701679,0.695589,14.52,-2.22,-36.12,265.3712,-0.5236,9.1644,55.81401,37.50028,204.1067,NaN,0.0,6.0,,26 / 26,,5442,2021-05-04 15:51:09:312
-1.709512,0.126897,9.802161,-1.78264,0.218738,9.640785,0.305609,0.77987,0.7243,14.52,-2.22,-36.12,265.3712,-0.5236,9.1644,55.81401,37.50028,204.1067,NaN,0.0,6.0,,26 / 26,,5451,2021-05-04 15:51:09:321
-1.604164,0.423787,9.153313,-1.78264,0.218738,9.640785,0.319659,0.666249,0.712693,14.88,-2.22,-36.54,262.0025,-1.2781,10.476,55.81401,37.50028,204.1067,NaN,0.0,6.0,,26 / 26,,5461,2021-05-04 15:51:09:331
-1.570644,0.756591,9.064724,-1.917379,0.305152,9.61254,0.273844,0.529415,0.65344,14.88,-2.22,-36.54,262.0025,-1.2781,10.476,55.81401,37.50028,204.1067,NaN,0.0,6.0,,26 / 26,,5472,2021-05-04 15:51:09:342
-1.570644,0.756591,9.064724,-1.917379,0.305152,9.61254,0.199319,0.38464,0.559977,15.3,-2.52,-36.54,262.0025,-1.2781,10.476,55.81401,37.50028,204.1067,NaN,0.0,6.0,,26 / 26,,5481,2021-05-04 15:51:09:351
-1.886689,0.689551,8.964165,-2.000173,0.374127,9.593212,0.120517,0.217874,0.488506,15.3,-2.52,-36.54,262.0025,-1.2781,10.476,55.81401,37.50028,204.1067,NaN,0.0,6.0,,26 / 26,,5491,2021-05-04 15:51:09:361
-2.363149,0.41421,9.337671,-2.000173,0.374127,9.593212,0.054544,0.104864,0.454297,15.84,-3.24,-35.64,259.5827,-2.1864,11.7774,55.81401,37.50028,204.1067,NaN,0.0,6.0,,26 / 26,,5502,2021-05-04 15:51:09:372
-2.154847,0.311256,9.670476,-2.027542,0.410573,9.585974,0.036828,0.071877,0.464682,15.84,-3.24,-35.64,259.5827,-2.1864,11.7774,55.81401,37.50028,204.1067,NaN,0.0,6.0,,26 / 26,,5511,2021-05-04 15:51:09:381
-2.032739,0.186753,9.897932,-2.027542,0.410573,9.585974,0.041715,0.071877,0.479954,16.38,-3.54,-35.4,259.5827,-2.1864,11.7774,55.81401,37.50028,204.1067,NaN,0.0,6.0,,26 / 26,,5521,2021-05-04 15:51:09:391
-2.032739,0.186753,9.897932,-2.037287,0.437256,9.582726,0.075924,0.013234,0.507443,16.38,-3.54,-35.4,259.5827,-2.1864,11.7774,55.81401,37.50028,204.1067,NaN,0.0,6.0,,26 / 26,,5531,2021-05-04 15:51:09:401
-1.970488,0.043097,9.751882,-2.037287,0.437256,9.582726,0.093028,-0.028916,0.535543,16.56,-3.54,-35.04,256.1113,-2.5555,12.0024,55.81401,37.50028,204.1067,NaN,0.0,6.0,,26 / 26,,5541,2021-05-04 15:51:09:411
-1.687964,0.268159,9.794978,-2.033041,0.473101,9.581925,0.116852,0.00346,0.541651,16.56,-3.54,-35.04,256.1113,-2.5555,12.0024,55.81401,37.50028,204.1067,NaN,0.0,6.0,,26 / 26,,5551,2021-05-04 15:51:09:421
-1.355159,0.699128,9.921875,-2.033041,0.473101,9.581925,0.142508,0.10242,0.495225,16.86,-3.66,-35.34,256.1113,-2.5555,12.0024,55.81401,37.50028,204.1067,NaN,0.0,6.0,,26 / 26,,5561,2021-05-04 15:51:09:431
-1.295303,0.945739,10.029617,-2.030879,0.516809,9.580127,0.188934,0.120135,0.412759,16.86,-3.66,-35.34,256.1113,-2.5555,12.0024,55.81401,37.50028,204.1067,NaN,0.0,6.0,,26 / 26,,5572,2021-05-04 15:51:09:442
-1.295303,0.945739,10.029617,-2.030879,0.516809,9.580127,0.188934,0.120135,0.412759,16.62,-4.08,-35.76,257.9721,-3.0209,11.9689,55.81401,37.50028,204.1067,NaN,0.0,6.0,,26 / 26,,5582,2021-05-04 15:51:09:452
-1.386285,1.154041,10.156514,-2.047079,0.570214,9.573647,0.253075,0.085927,0.319296,16.62,-4.08,-35.76,257.9721,-3.0209,11.9689,55.81401,37.50028,204.1067,NaN,0.0,6.0,,26 / 26,,5592,2021-05-04 15:51:09:462
-1.874717,0.883487,9.960183,-2.047079,0.570214,9.573647,0.332487,0.041944,0.212395,16.02,-4.08,-35.7,257.9721,-3.0209,11.9689,55.81401,37.50028,204.1067,NaN,0.0,6.0,,26 / 26,,5601,2021-05-04 15:51:09:471
-2.377515,0.656031,9.440625,-2.052916,0.639997,9.567984,0.344094,0.001627,0.175743,16.02,-4.08,-35.7,257.9721,-3.0209,11.9689,55.81401,37.50028,204.1067,NaN,0.0,6.0,,26 / 26,,5611,2021-05-04 15:51:09:481
-2.379909,0.612934,8.930645,-2.052916,0.639997,9.567984,0.33432,-0.008757,0.197734,15.72,-4.02,-36.06,259.6672,-3.7419,12.1098,55.81401,37.50028,204.1067,NaN,0.0,6.0,,26 / 26,,5622,2021-05-04 15:51:09:492
-2.379909,0.612934,8.930645,-2.048881,0.712574,9.563718,0.295224,-0.01059,0.230721,15.72,-4.02,-36.06,259.6672,-3.7419,12.1098,55.81401,37.50028,204.1067,NaN,0.0,6.0,,26 / 26,,5632,2021-05-04 15:51:09:502
-2.087808,0.723071,8.964165,-2.048881,0.712574,9.563718,0.272622,0.001627,0.239884,15.96,-4.2,-35.64,259.6672,-3.7419,12.1098,55.81401,37.50028,204.1067,NaN,0.0,6.0,,26 / 26,,5641,2021-05-04 15:51:09:511
-1.695146,0.780534,9.378374,-2.044026,0.777289,9.559715,0.270179,-0.082061,0.204454,15.96,-4.2,-35.64,259.6672,-3.7419,12.1098,55.81401,37.50028,204.1067,NaN,0.0,6.0,,26 / 26,,5652,2021-05-04 15:51:09:522
-1.817254,0.723071,9.608225,-2.044026,0.777289,9.559715,0.304998,-0.251882,0.169023,16.68,-4.92,-35.82,258.1292,-4.5461,12.0691,55.81401,37.50028,204.1067,NaN,0.0,6.0,,26 / 26,,5661,2021-05-04 15:51:09:531
-1.958517,1.02475,9.754275,-2.021007,0.83814,9.559468,0.304998,-0.251882,0.169023,16.68,-4.92,-35.82,258.1292,-4.5461,12.0691,55.81401,37.50028,204.1067,NaN,0.0,6.0,,26 / 26,,5671,2021-05-04 15:51:09:541
-1.958517,1.02475,9.754275,-2.021007,0.83814,9.559468,0.322713,-0.374055,0.131761,16.2,-5.22,-36.12,258.1292,-4.5461,12.0691,55.81401,37.50028,204.1067,NaN,0.0,6.0,,26 / 26,,5682,2021-05-04 15:51:09:552
-1.946545,1.328823,9.359221,-1.953029,0.904413,9.567554,0.297057,-0.388105,0.089611,16.2,-5.22,-36.12,258.1292,-4.5461,12.0691,55.81401,37.50028,204.1067,NaN,0.0,6.0,,26 / 26,,5692,2021-05-04 15:51:09:562
-1.699935,1.230657,9.332883,-1.953029,0.904413,9.567554,0.239025,-0.366724,0.015696,15.54,-5.52,-35.16,253.8249,-5.2916,11.5373,55.81401,37.50028,204.1067,NaN,0.0,6.0,,26 / 26,,5702,2021-05-04 15:51:09:572
-1.496422,0.876305,9.349643,-1.879987,0.956505,9.577115,0.198097,-0.331905,-0.044779,15.54,-5.52,-35.16,253.8249,-5.2916,11.5373,55.81401,37.50028,204.1067,NaN,0.0,6.0,,26 / 26,,5712,2021-05-04 15:51:09:582
-1.783735,0.792505,9.562734,-1.879987,0.956505,9.577115,0.138232,-0.265932,-0.070436,15.78,-6.06,-34.92,253.8249,-5.2916,11.5373,55.81401,37.50028,204.1067,NaN,0.0,6.0,,26 / 26,,5722,2021-05-04 15:51:09:592
-1.783735,0.792505,9.562734,-1.823794,0.9865,9.584934,0.09425,-0.177967,-0.028897,15.78,-6.06,-34.92,253.8249,-5.2916,11.5373,55.81401,37.50028,204.1067,NaN,0.0,6.0,,26 / 26,,5731,2021-05-04 15:51:09:601
-1.826832,0.708705,9.897932,-1.823794,0.9865,9.584934,0.095472,-0.129098,0.012031,14.76,-6.06,-34.86,254.7826,-5.7734,10.7733,55.81401,37.50028,204.1067,NaN,0.0,6.0,,26 / 26,,5741,2021-05-04 15:51:09:611
-1.675992,0.782928,9.809344,-1.79137,1.003849,9.589248,0.099748,-0.132763,0.038909,14.76,-6.06,-34.86,254.7826,-5.7734,10.7733,55.81401,37.50028,204.1067,NaN,0.0,6.0,,26 / 26,,5752,2021-05-04 15:51:09:622
-1.582616,0.902642,9.627379,-1.79137,1.003849,9.589248,0.089363,-0.181021,0.04685,14.34,-6.06,-34.8,254.7826,-5.7734,10.7733,55.81401,37.50028,204.1067,NaN,0.0,6.0,,26 / 26,,5761,2021-05-04 15:51:09:631
-1.503604,1.067847,9.677659,-1.762987,1.023611,9.592419,0.072259,-0.181021,0.027913,14.34,-6.06,-34.8,254.7826,-5.7734,10.7733,55.81401,37.50028,204.1067,NaN,0.0,6.0,,26 / 26,,5772,2021-05-04 15:51:09:642
-1.503604,1.067847,9.677659,-1.762987,1.023611,9.592419,0.039883,-0.200569,-1.86E-4,14.76,-6.18,-34.74,256.0627,-5.9914,10.4141,55.81401,37.50028,204.1067,NaN,0.0,6.0,,26 / 26,,5781,2021-05-04 15:51:09:651
-1.762186,1.079818,9.397529,-1.727316,1.038656,9.597289,-4.34E-4,-0.223171,-0.01668,14.76,-6.18,-34.74,256.0627,-5.9914,10.4141,55.81401,37.50028,204.1067,NaN,0.0,6.0,,26 / 26,,5792,2021-05-04 15:51:09:662
-2.047105,1.139675,9.186832,-1.727316,1.038656,9.597289,-0.044417,-0.235999,-0.012404,14.82,-6.66,-35.28,256.0627,-5.9914,10.4141,55.81401,37.50028,204.1067,NaN,0.0,6.0,,26 / 26,,5801,2021-05-04 15:51:09:671
-1.996825,1.233052,9.383162,-1.685261,1.037689,9.604867,-0.044417,-0.235999,-0.012404,14.82,-6.66,-35.28,256.0627,-5.9914,10.4141,55.81401,37.50028,204.1067,NaN,0.0,6.0,,26 / 26,,5811,2021-05-04 15:51:09:681
-1.731061,1.142069,9.689631,-1.685261,1.037689,9.604867,-0.041362,-0.26471,-0.006906,14.76,-6.72,-35.82,251.0635,-6.0741,9.9518,55.81401,37.50028,204.1067,NaN,0.0,6.0,,26 / 26,,5822,2021-05-04 15:51:09:692
-1.731061,1.142069,9.689631,-1.63567,1.028762,9.614396,-0.007154,-0.265321,0.001035,14.76,-6.72,-35.82,251.0635,-6.0741,9.9518,55.81401,37.50028,204.1067,NaN,0.0,6.0,,26 / 26,,5831,2021-05-04 15:51:09:701
-1.482056,0.979258,10.405519,-1.63567,1.028762,9.614396,0.038661,-0.23661,0.01814,14.22,-6.3,-35.64,251.0635,-6.0741,9.9518,55.81401,37.50028,204.1067,NaN,0.0,6.0,,26 / 26,,5841,2021-05-04 15:51:09:711
-1.388679,0.754197,10.692831,-1.587499,1.03211,9.622108,0.114408,-0.201791,0.016918,14.22,-6.3,-35.64,251.0635,-6.0741,9.9518,55.81401,37.50028,204.1067,NaN,0.0,6.0,,26 / 26,,5852,2021-05-04 15:51:09:722
-1.448536,0.895459,10.292988,-1.587499,1.03211,9.622108,0.178549,-0.168193,0.028524,14.46,-6.36,-35.76,255.9621,-6.0413,9.3685,55.81401,37.50028,204.1067,NaN,0.0,6.0,,26 / 26,,5861,2021-05-04 15:51:09:731
-1.707118,1.019961,10.051166,-1.55152,1.060788,9.624858,0.229862,-0.182854,0.035855,15.12,-6.66,-35.52,255.9621,-6.0413,9.3685,55.81401,37.50028,204.1067,NaN,0.0,6.0,,26 / 26,,5872,2021-05-04 15:51:09:742
-1.707118,1.019961,10.051166,-1.55152,1.060788,9.624858,0.271401,-0.17308,0.056624,15.12,-6.66,-35.52,255.9621,-6.0413,9.3685,55.81401,37.50028,204.1067,NaN,0.0,6.0,,26 / 26,,5881,2021-05-04 15:51:09:751
