ACCELEROMETER X (m/s²),ACCELEROMETER Y (m/s²),ACCELEROMETER Z (m/s²),GRAVITY X (m/s²),GRAVITY Y (m/s²),GRAVITY Z (m/s²),GYROSCOPE X (rad/s),GYROSCOPE Y (rad/s),GYROSCOPE Z (rad/s),MAGNETIC FIELD X (μT),MAGNETIC FIELD Y (μT),MAGNETIC FIELD Z (μT),ORIENTATION Z (azimuth °),ORIENTATION X (pitch °),ORIENTATION Y (roll °),LOCATION Latitude : ,LOCATION Longitude : ,LOCATION Altitude ( m),LOCATION Altitude-google ( m),LOCATION Speed ( m/s),LOCATION Accuracy ( m),LOCATION ORIENTATION (°),Satellites in range,GPS NMEA,Time since start in ms ,YYYY-MO-DD HH-MI-SS_SSS
-0.007634,-0.001762,9.807589,-3.11E-4,-0.001159,9.806651,0.004206,0.003184,0.003946,4.98,-19.62,-21.42,194.6449,0.1471,-0.6029,55.814037,37.50047,210.7,NaN,,15.3,,0 / 1,,24,2021-05-01 16:24:09:055
-0.007634,-0.001762,9.807589,2.6E-4,3.08E-4,9.806649,0.001763,0.005016,-0.002163,5.46,-19.5,-21.42,195.3249,0.1401,-0.6029,55.814037,37.50047,210.7,NaN,,15.3,,0 / 1,,34,2021-05-01 16:24:09:065
0.005591,0.003531,9.752416,2.6E-4,3.08E-4,9.806649,0.001152,0.001962,8.91E-4,5.46,-19.5,-21.42,195.3249,0.1401,-0.6029,55.814037,37.50047,210.7,NaN,,15.3,,0 / 1,,44,2021-05-01 16:24:09:075
0.0151,8.52E-4,9.781044,7.51E-4,7.74E-4,9.80665,-0.001902,-4.81E-4,2.8E-4,5.4,-20.04,-22.26,195.3249,0.1401,-0.6029,55.814037,37.50047,210.7,NaN,,15.3,,0 / 1,,54,2021-05-01 16:24:09:085
0.001424,0.007204,9.733318,0.001658,8.17E-4,9.806649,-7.0E-5,-4.81E-4,-9.41E-4,5.46,-20.28,-22.56,195.3249,0.1401,-0.6029,55.814037,37.50047,210.7,NaN,,15.3,,0 / 1,,64,2021-05-01 16:24:09:095
0.007877,0.00291,9.749995,0.001658,8.17E-4,9.806649,-7.0E-5,1.3E-4,-0.002163,5.46,-20.28,-22.56,195.3249,0.1401,-0.6029,55.814037,37.50047,210.7,NaN,,15.3,,0 / 1,,74,2021-05-01 16:24:09:105
0.007877,0.00291,9.749995,0.001484,7.07E-4,9.80665,-7.0E-5,1.3E-4,-0.002163,5.04,-19.62,-22.38,194.6103,0.1473,-0.5949,55.814037,37.50047,210.7,NaN,,15.3,,0 / 1,,85,2021-05-01 16:24:09:116
0.016253,0.001979,9.769057,0.001972,9.78E-4,9.80665,-0.001291,-0.001703,8.91E-4,4.98,-19.62,-22.14,194.6103,0.1473,-0.5949,55.814037,37.50047,210.7,NaN,,15.3,,0 / 1,,94,2021-05-01 16:24:09:125
0.002826,-0.01186,9.776296,0.001972,9.78E-4,9.80665,0.001152,7.4E-4,2.8E-4,4.98,-19.62,-22.14,194.6103,0.1473,-0.5949,55.814037,37.50047,210.7,NaN,,15.3,,0 / 1,,104,2021-05-01 16:24:09:135
-0.013617,0.009694,9.795716,0.002926,0.001723,9.80665,0.002985,-0.001092,2.8E-4,5.22,-19.38,-21.96,194.6103,0.1473,-0.5949,55.814037,37.50047,210.7,NaN,,15.3,,0 / 1,,115,2021-05-01 16:24:09:146
-0.014992,-0.004774,9.788471,0.002926,0.001723,9.80665,0.001152,7.4E-4,0.003335,5.22,-19.38,-21.96,194.6103,0.1473,-0.5949,55.814037,37.50047,210.7,NaN,,15.3,,0 / 1,,124,2021-05-01 16:24:09:155
-0.014992,-0.004774,9.788471,8.33E-4,1.76E-4,9.806647,0.003596,7.4E-4,0.001502,5.04,-19.44,-21.96,195.3226,0.1613,-0.5808,55.814037,37.50047,210.7,NaN,,15.3,,0 / 1,,134,2021-05-01 16:24:09:165
-0.013806,-0.007278,9.740533,8.33E-4,1.76E-4,9.806647,-6.81E-4,-0.002925,-3.3E-4,5.04,-19.44,-21.96,195.3226,0.1613,-0.5808,55.814037,37.50047,210.7,NaN,,15.3,,0 / 1,,145,2021-05-01 16:24:09:176
-0.010951,-0.005549,9.730939,7.87E-4,1.46E-4,9.806648,0.001152,0.005627,0.003946,4.08,-20.04,-22.32,195.3226,0.1613,-0.5808,55.814037,37.50047,210.7,NaN,,15.3,,0 / 1,,154,2021-05-01 16:24:09:185
-0.006214,0.020432,9.740614,7.87E-4,1.46E-4,9.806648,5.41E-4,0.005627,0.002724,4.08,-20.04,-22.32,195.3226,0.1613,-0.5808,55.814037,37.50047,210.7,NaN,,15.3,,0 / 1,,165,2021-05-01 16:24:09:196
-0.006214,0.020432,9.740614,2.43E-4,-1.11E-4,9.80665,-6.81E-4,0.006238,0.001502,4.02,-20.04,-22.26,191.8819,0.1634,-0.5766,55.814037,37.50047,210.7,NaN,,15.3,,0 / 1,,174,2021-05-01 16:24:09:205
-9.95E-4,-0.006284,9.785915,2.43E-4,-1.11E-4,9.80665,-0.003124,0.001962,-0.001552,4.02,-20.04,-22.26,191.8819,0.1634,-0.5766,55.814037,37.50047,210.7,NaN,,15.3,,0 / 1,,184,2021-05-01 16:24:09:215
0.012996,0.015337,9.75237,4.05E-4,-2.3E-4,9.80665,5.41E-4,-0.001092,2.8E-4,5.22,-19.92,-22.5,191.8819,0.1634,-0.5766,55.814037,37.50047,210.7,NaN,,15.3,,0 / 1,,195,2021-05-01 16:24:09:226
0.003375,0.014838,9.778795,4.05E-4,-2.3E-4,9.80665,-0.002513,0.005627,2.8E-4,5.22,-19.92,-22.5,191.8819,0.1634,-0.5766,55.814037,37.50047,210.7,NaN,,15.3,,0 / 1,,204,2021-05-01 16:24:09:235
0.012556,-0.014382,9.699545,6.07E-4,-3.89E-4,9.80665,-0.001902,0.003795,-0.002163,5.28,-19.86,-22.5,194.5849,0.1625,-0.574,55.814037,37.50047,210.7,NaN,,15.3,,0 / 1,,214,2021-05-01 16:24:09:245
0.012556,-0.014382,9.699545,6.07E-4,-3.89E-4,9.80665,-0.001902,0.003795,-0.002163,5.28,-19.86,-22.5,194.5849,0.1625,-0.574,55.814037,37.50047,210.7,NaN,,15.3,,0 / 1,,224,2021-05-01 16:24:09:255
-0.024531,-1.43E-4,9.822067,5.72E-4,-3.62E-4,9.806651,0.001152,0.005627,-3.3E-4,4.8,-19.62,-21.9,194.5849,0.1625,-0.574,55.814037,37.50047,210.7,NaN,,15.3,,0 / 1,,234,2021-05-01 16:24:09:265
-0.02407,0.012184,9.795791,5.72E-4,-3.62E-4,9.806651,-0.001291,-0.003536,0.001502,4.8,-19.62,-21.9,194.5849,0.1625,-0.574,55.814037,37.50047,210.7,NaN,,15.3,,0 / 1,,244,2021-05-01 16:24:09:275
-0.016084,0.007879,9.783715,-8.31E-4,4.71E-4,9.80665,-7.0E-5,-0.002314,-9.41E-4,4.92,-19.68,-21.78,194.5814,0.1613,-0.5703,55.814037,37.50047,210.7,NaN,,15.3,,0 / 1,,254,2021-05-01 16:24:09:285
0.002936,-0.011737,9.723583,-0.001056,5.51E-4,9.80665,-0.001291,-0.002925,-0.002163,5.1,-19.74,-21.84,194.5814,0.1613,-0.5703,55.814037,37.50047,210.7,NaN,,15.3,,0 / 1,,264,2021-05-01 16:24:09:295
0.002936,-0.011737,9.723583,-0.001056,5.51E-4,9.80665,-6.81E-4,-0.004757,2.8E-4,5.1,-19.74,-21.84,194.5814,0.1613,-0.5703,55.814037,37.50047,210.7,NaN,,15.3,,0 / 1,,275,2021-05-01 16:24:09:306
-0.01322,-0.00297,9.855466,-0.001116,4.42E-4,9.80665,5.41E-4,-0.001703,0.002113,5.22,-19.86,-21.66,194.5814,0.1613,-0.5703,55.814037,37.50047,210.7,NaN,,15.3,,0 / 1,,284,2021-05-01 16:24:09:315
0.009348,0.011209,9.766745,-0.001116,4.42E-4,9.80665,-6.81E-4,0.001962,2.8E-4,5.22,-19.86,-21.66,194.5814,0.1613,-0.5703,55.814037,37.50047,210.7,NaN,,15.3,,0 / 1,,294,2021-05-01 16:24:09:325
0.004081,0.02217,9.819539,-1.91E-4,3.74E-4,9.80665,0.001763,-0.002314,8.91E-4,4.56,-19.8,-21.66,194.5883,0.1622,-0.5772,55.814037,37.50047,210.7,NaN,,15.3,,0 / 1,,304,2021-05-01 16:24:09:335
0.004081,0.02217,9.819539,-2.77E-4,1.1E-5,9.80665,0.001763,-0.002314,0.004556,4.38,-19.68,-21.78,194.5883,0.1622,-0.5772,55.814037,37.50047,210.7,NaN,,15.3,,0 / 1,,314,2021-05-01 16:24:09:345
0.016181,0.007008,9.697234,-2.77E-4,1.1E-5,9.80665,0.001763,0.001351,-9.41E-4,4.38,-19.68,-21.78,194.5883,0.1622,-0.5772,55.814037,37.50047,210.7,NaN,,15.3,,0 / 1,,324,2021-05-01 16:24:09:355
-0.013148,0.004457,9.795656,-7.66E-4,-4.2E-5,9.80665,5.41E-4,0.002573,-9.41E-4,5.16,-19.44,-21.96,194.5883,0.1622,-0.5772,55.814037,37.50047,210.7,NaN,,15.3,,0 / 1,,335,2021-05-01 16:24:09:366
-0.017039,6.41E-4,9.754967,-7.66E-4,-4.2E-5,9.80665,-0.001291,-0.004757,-9.41E-4,5.16,-19.44,-21.96,194.5883,0.1622,-0.5772,55.814037,37.50047,210.7,NaN,,15.3,,0 / 1,,344,2021-05-01 16:24:09:375
-0.017039,6.41E-4,9.754967,-7.89E-4,-1.7E-4,9.80665,-7.0E-5,-0.004147,-9.41E-4,5.52,-19.38,-22.8,198.1053,0.1608,-0.5815,55.814037,37.50047,210.7,NaN,,15.3,,0 / 1,,354,2021-05-01 16:24:09:385
0.003543,-0.002526,9.845758,-8.93E-4,-1.83E-4,9.80665,-7.0E-5,-0.004147,-9.41E-4,4.86,-19.56,-22.44,198.1053,0.1608,-0.5815,55.814037,37.50047,210.7,NaN,,15.3,,0 / 1,,364,2021-05-01 16:24:09:395
0.003543,-0.002526,9.845758,-8.93E-4,-1.83E-4,9.80665,0.001152,-0.002314,-9.41E-4,4.86,-19.56,-22.44,198.1053,0.1608,-0.5815,55.814037,37.50047,210.7,NaN,,15.3,,0 / 1,,374,2021-05-01 16:24:09:405
0.00312,0.01284,9.807541,-8.27E-4,-7.9E-5,9.80665,-0.002513,0.001962,-9.41E-4,4.44,-19.74,-22.68,198.1053,0.1608,-0.5815,55.814037,37.50047,210.7,NaN,,15.3,,0 / 1,,385,2021-05-01 16:24:09:416
0.001317,0.008497,9.771615,-8.27E-4,-7.9E-5,9.80665,0.002374,0.001962,-3.3E-4,4.44,-19.74,-22.68,198.1053,0.1608,-0.5815,55.814037,37.50047,210.7,NaN,,15.3,,0 / 1,,395,2021-05-01 16:24:09:426
-0.012121,0.002289,9.80044,4.78E-4,-2.25E-4,9.806651,-0.001291,1.3E-4,-0.002774,4.8,-19.86,-22.44,194.5981,0.1589,-0.5859,55.814037,37.50047,210.7,NaN,,15.3,,0 / 1,,404,2021-05-01 16:24:09:435
0.007576,-0.005143,9.74036,5.17E-4,-1.14E-4,9.80665,5.41E-4,-4.81E-4,-3.3E-4,4.98,-19.38,-22.26,194.5981,0.1589,-0.5859,55.814037,37.50047,210.7,NaN,,15.3,,0 / 1,,414,2021-05-01 16:24:09:445
0.007576,-0.005143,9.74036,5.17E-4,-1.14E-4,9.80665,0.001763,0.001351,0.001502,4.98,-19.38,-22.26,194.5981,0.1589,-0.5859,55.814037,37.50047,210.7,NaN,,15.3,,0 / 1,,424,2021-05-01 16:24:09:455
-0.005105,4.41E-4,9.807549,0.001159,1.28E-4,9.80665,5.41E-4,0.001351,8.91E-4,4.62,-19.62,-22.26,194.5981,0.1589,-0.5859,55.814037,37.50047,210.7,NaN,,15.3,,0 / 1,,435,2021-05-01 16:24:09:466
-0.011989,0.002213,9.814805,0.001159,1.28E-4,9.80665,0.001152,0.003795,8.91E-4,4.62,-19.62,-22.26,194.5981,0.1589,-0.5859,55.814037,37.50047,210.7,NaN,,15.3,,0 / 1,,444,2021-05-01 16:24:09:475
-0.009146,0.001244,9.745326,7.37E-4,-1.14E-4,9.80665,0.001152,-0.001703,-9.41E-4,4.8,-20.34,-22.08,194.5909,0.1613,-0.5796,55.814037,37.50047,210.7,NaN,,15.3,,0 / 1,,454,2021-05-01 16:24:09:485
-0.009146,0.001244,9.745326,7.37E-4,-1.14E-4,9.80665,-7.0E-5,1.3E-4,-3.3E-4,4.8,-20.34,-22.08,194.5909,0.1613,-0.5796,55.814037,37.50047,210.7,NaN,,15.3,,0 / 1,,464,2021-05-01 16:24:09:495
-0.00548,-0.004735,9.7716,7.97E-4,4.34E-4,9.806652,-7.0E-5,1.3E-4,-3.3E-4,5.1,-20.46,-22.02,194.5909,0.1613,-0.5796,55.814037,37.50047,210.7,NaN,,15.3,,0 / 1,,475,2021-05-01 16:24:09:506
-8.46E-4,-0.005942,9.771551,7.97E-4,4.34E-4,9.806652,-6.81E-4,-0.001703,2.8E-4,5.1,-20.46,-22.02,194.5909,0.1613,-0.5796,55.814037,37.50047,210.7,NaN,,15.3,,0 / 1,,484,2021-05-01 16:24:09:515
-8.46E-4,-0.005942,9.771551,5.19E-4,1.08E-4,9.80665,-0.001902,0.001351,-3.3E-4,5.28,-20.4,-22.38,194.586,0.1649,-0.5757,55.814037,37.50047,210.7,NaN,,15.3,,0 / 1,,494,2021-05-01 16:24:09:525
-9.46E-4,-0.021292,9.735549,5.19E-4,1.08E-4,9.80665,5.41E-4,-0.001092,0.001502,5.28,-20.4,-22.38,194.586,0.1649,-0.5757,55.814037,37.50047,210.7,NaN,,15.3,,0 / 1,,504,2021-05-01 16:24:09:535
0.008167,-0.003757,9.697248,7.58E-4,3.0E-6,9.806649,-7.0E-5,-0.001703,-3.3E-4,5.34,-20.28,-22.68,194.586,0.1649,-0.5757,55.814037,37.50047,210.7,NaN,,15.3,,0 / 1,,515,2021-05-01 16:24:09:546
0.008167,-0.003757,9.697248,7.58E-4,3.0E-6,9.806649,-6.81E-4,7.4E-4,2.8E-4,5.34,-20.28,-22.68,194.586,0.1649,-0.5757,55.814037,37.50047,210.7,NaN,,15.3,,0 / 1,,525,2021-05-01 16:24:09:556
-0.009891,-0.019071,9.771556,6.66E-4,4.0E-5,9.806651,5.41E-4,0.006238,0.003946,5.28,-20.04,-22.5,194.5813,0.1661,-0.5714,55.814037,37.50047,210.7,NaN,,15.3,,0 / 1,,534,2021-05-01 16:24:09:565
-2.13E-4,0.005705,9.678214,6.66E-4,4.0E-5,9.806651,0.001152,-0.002314,0.001502,5.28,-20.04,-22.5,194.5813,0.1661,-0.5714,55.814037,37.50047,210.7,NaN,,15.3,,0 / 1,,545,2021-05-01 16:24:09:576
-2.13E-4,0.005705,9.678214,9.06E-4,-6.4E-5,9.806651,0.001152,-0.002314,0.001502,4.86,-20.04,-22.2,194.5813,0.1661,-0.5714,55.814037,37.50047,210.7,NaN,,15.3,,0 / 1,,554,2021-05-01 16:24:09:585
-0.009751,-0.004327,9.726133,9.06E-4,-6.4E-5,9.806651,-0.001902,0.002573,-0.003385,4.86,-20.04,-22.2,194.5813,0.1661,-0.5714,55.814037,37.50047,210.7,NaN,,15.3,,0 / 1,,565,2021-05-01 16:24:09:596
-0.006156,0.011791,9.757305,-9.2E-5,3.74E-4,9.806651,0.003596,0.003795,2.8E-4,4.92,-20.1,-22.2,194.5757,0.167,-0.5662,55.814037,37.50047,210.7,NaN,,15.3,,0 / 1,,574,2021-05-01 16:24:09:605
0.010193,2.48E-4,9.714,-9.2E-5,3.74E-4,9.806651,5.41E-4,0.003184,-3.3E-4,4.92,-20.1,-22.2,194.5757,0.167,-0.5662,55.814037,37.50047,210.7,NaN,,15.3,,0 / 1,,584,2021-05-01 16:24:09:615
-0.001127,-0.006827,9.754766,-0.001118,9.8E-4,9.806651,-6.81E-4,0.003795,-0.002774,5.46,-20.16,-22.8,194.5757,0.167,-0.5662,55.814037,37.50047,210.7,NaN,,15.3,,0 / 1,,594,2021-05-01 16:24:09:625
-0.001127,-0.006827,9.754766,-0.001118,9.8E-4,9.806651,-6.81E-4,-0.001703,-3.3E-4,5.46,-20.16,-22.8,194.5757,0.167,-0.5662,55.814037,37.50047,210.7,NaN,,15.3,,0 / 1,,604,2021-05-01 16:24:09:635
-0.006883,0.01179,9.750149,-3.81E-4,2.69E-4,9.806651,-7.0E-5,-0.002314,-0.003385,5.52,-19.68,-22.74,197.2467,0.1709,-0.574,55.814037,37.50047,210.7,NaN,,15.3,,0 / 1,,615,2021-05-01 16:24:09:646
-0.008021,-4.36E-4,9.764455,-3.81E-4,2.69E-4,9.806651,0.001152,1.3E-4,8.91E-4,5.52,-19.68,-22.74,197.2467,0.1709,-0.574,55.814037,37.50047,210.7,NaN,,15.3,,0 / 1,,624,2021-05-01 16:24:09:655
0.007765,0.002207,9.75715,-2.02E-4,3.48E-4,9.80665,0.001763,-0.004757,-0.001552,5.7,-19.38,-22.5,197.2467,0.1709,-0.574,55.814037,37.50047,210.7,NaN,,15.3,,0 / 1,,635,2021-05-01 16:24:09:666
-0.006442,-6.72E-4,9.683029,-2.02E-4,3.48E-4,9.80665,0.001763,-0.005979,2.8E-4,5.7,-19.38,-22.5,197.2467,0.1709,-0.574,55.814037,37.50047,210.7,NaN,,15.3,,0 / 1,,644,2021-05-01 16:24:09:675
-0.006442,-6.72E-4,9.683029,-2.19E-4,1.0E-6,9.80665,0.001763,-0.005979,2.8E-4,5.22,-19.8,-22.32,194.5839,0.1725,-0.5757,55.814037,37.50047,210.7,NaN,,15.3,,0 / 1,,654,2021-05-01 16:24:09:685
-0.01444,-0.014002,9.683034,-2.19E-4,1.0E-6,9.80665,-6.81E-4,0.001351,0.001502,5.22,-19.8,-22.32,194.5839,0.1725,-0.5757,55.814037,37.50047,210.7,NaN,,15.3,,0 / 1,,664,2021-05-01 16:24:09:695
-1.21E-4,-0.007943,9.718855,-4.17E-4,1.17E-4,9.80665,-7.0E-5,0.003184,2.8E-4,5.58,-19.2,-22.14,194.5839,0.1725,-0.5757,55.814037,37.50047,210.7,NaN,,15.3,,0 / 1,,675,2021-05-01 16:24:09:706
0.002333,0.001299,9.723672,-1.08E-4,6.1E-5,9.80665,5.41E-4,-4.81E-4,-9.41E-4,5.82,-18.48,-22.5,194.5839,0.1725,-0.5757,55.814037,37.50047,210.7,NaN,,15.3,,0 / 1,,684,2021-05-01 16:24:09:715
0.002333,0.001299,9.723672,-1.08E-4,6.1E-5,9.80665,-0.003124,-0.003536,2.8E-4,5.82,-18.48,-22.5,194.5839,0.1725,-0.5757,55.814037,37.50047,210.7,NaN,,15.3,,0 / 1,,694,2021-05-01 16:24:09:725
0.002782,-0.001656,9.840978,-0.001655,-1.61E-4,9.806651,-6.81E-4,-0.002314,0.001502,5.76,-19.26,-22.26,198.0709,0.1727,-0.5764,55.814037,37.50047,210.7,NaN,,15.3,,0 / 1,,704,2021-05-01 16:24:09:735
-0.006543,0.016308,9.826801,-0.001655,-1.61E-4,9.806651,-0.001291,7.4E-4,8.91E-4,5.76,-19.26,-22.26,198.0709,0.1727,-0.5764,55.814037,37.50047,210.7,NaN,,15.3,,0 / 1,,714,2021-05-01 16:24:09:745
-5.3E-5,-7.61E-4,9.776359,-0.003601,-1.07E-4,9.806651,0.001152,1.3E-4,-3.3E-4,5.22,-19.98,-23.04,198.0709,0.1727,-0.5764,55.814037,37.50047,210.7,NaN,,15.3,,0 / 1,,724,2021-05-01 16:24:09:755
0.005647,0.010078,9.742853,-0.0044,-1.54E-4,9.80665,0.001763,0.001962,8.91E-4,5.16,-19.5,-23.04,198.0709,0.1727,-0.5764,55.814037,37.50047,210.7,NaN,,15.3,,0 / 1,,735,2021-05-01 16:24:09:766
0.005647,0.010078,9.742853,-0.0044,-1.54E-4,9.80665,0.001763,0.001351,2.8E-4,5.16,-19.5,-23.04,198.0709,0.1727,-0.5764,55.814037,37.50047,210.7,NaN,,15.3,,0 / 1,,744,2021-05-01 16:24:09:775
-0.007541,-0.017,9.764408,-5.09E-4,-1.66E-4,9.80665,0.001763,0.001351,2.8E-4,5.46,-19.86,-23.28,194.6377,0.1639,-0.6006,55.814037,37.50047,210.7,NaN,,15.3,,0 / 1,,754,2021-05-01 16:24:09:785
0.007604,-0.006086,9.757141,-5.09E-4,-1.66E-4,9.80665,0.001152,-0.001703,-9.41E-4,5.46,-19.86,-23.28,194.6377,0.1639,-0.6006,55.814037,37.50047,210.7,NaN,,15.3,,0 / 1,,765,2021-05-01 16:24:09:796
-0.003626,0.006667,9.783654,-9.42E-4,-2.8E-5,9.80665,-6.81E-4,-0.001092,2.8E-4,5.28,-19.56,-22.92,194.6377,0.1639,-0.6006,55.814037,37.50047,210.7,NaN,,15.3,,0 / 1,,774,2021-05-01 16:24:09:805
-0.003626,0.006667,9.783654,-9.42E-4,-2.8E-5,9.80665,-6.81E-4,-4.81E-4,-9.41E-4,5.28,-19.56,-22.92,194.6377,0.1639,-0.6006,55.814037,37.50047,210.7,NaN,,15.3,,0 / 1,,784,2021-05-01 16:24:09:815
-0.007356,0.018076,9.745451,-1.28E-4,1.65E-4,9.80665,-0.002513,-0.001092,-0.001552,5.28,-19.44,-22.5,195.3491,0.1623,-0.6059,55.814037,37.50047,210.7,NaN,,15.3,,0 / 1,,795,2021-05-01 16:24:09:826
-0.00258,-6.08E-4,9.742908,-1.28E-4,1.65E-4,9.80665,0.001763,0.001351,0.001502,5.28,-19.44,-22.5,195.3491,0.1623,-0.6059,55.814037,37.50047,210.7,NaN,,15.3,,0 / 1,,804,2021-05-01 16:24:09:835
0.001698,0.005646,9.750086,7.4E-5,6.85E-4,9.806649,0.002985,0.002573,-0.002163,5.34,-19.32,-23.04,195.3491,0.1623,-0.6059,55.814037,37.50047,210.7,NaN,,15.3,,0 / 1,,814,2021-05-01 16:24:09:845
0.001698,0.005646,9.750086,7.4E-5,6.85E-4,9.806649,-0.001291,-0.002314,-0.001552,5.34,-19.32,-23.04,195.3491,0.1623,-0.6059,55.814037,37.50047,210.7,NaN,,15.3,,0 / 1,,825,2021-05-01 16:24:09:856
9.89E-4,-0.004663,9.706941,3.64E-4,3.29E-4,9.806651,-0.001902,0.006849,8.91E-4,4.8,-19.32,-23.16,195.3759,0.1663,-0.6065,55.814037,37.50047,210.7,NaN,,15.3,,0 / 1,,834,2021-05-01 16:24:09:865
-0.002262,0.015807,9.802863,3.64E-4,3.29E-4,9.806651,-7.0E-5,-0.002314,8.91E-4,4.8,-19.32,-23.16,195.3759,0.1663,-0.6065,55.814037,37.50047,210.7,NaN,,15.3,,0 / 1,,844,2021-05-01 16:24:09:875
-0.002262,0.015807,9.802863,-4.52E-4,4.48E-4,9.806652,-6.81E-4,0.006238,0.001502,5.1,-19.38,-22.86,195.3759,0.1663,-0.6065,55.814037,37.50047,210.7,NaN,,15.3,,0 / 1,,854,2021-05-01 16:24:09:885
1.94E-4,-0.009562,9.757203,-4.52E-4,4.48E-4,9.806652,-0.003735,0.006238,-0.003996,5.1,-19.38,-22.86,195.3759,0.1663,-0.6065,55.814037,37.50047,210.7,NaN,,15.3,,0 / 1,,865,2021-05-01 16:24:09:896
5.92E-4,-0.002629,9.790766,-5.14E-4,1.34E-4,9.806649,5.41E-4,0.001962,2.8E-4,4.74,-19.62,-22.74,194.6464,0.1681,-0.6097,55.814037,37.50047,210.7,NaN,,15.3,,0 / 1,,875,2021-05-01 16:24:09:906
0.013656,-0.008445,9.766665,-5.14E-4,1.34E-4,9.806649,0.001763,0.003184,-3.3E-4,4.74,-19.62,-22.74,194.6464,0.1681,-0.6097,55.814037,37.50047,210.7,NaN,,15.3,,0 / 1,,884,2021-05-01 16:24:09:915
0.006909,-0.014012,9.735572,-6.01E-4,-1.28E-4,9.806649,0.004206,-4.81E-4,0.002724,4.74,-19.8,-22.62,194.6464,0.1681,-0.6097,55.814037,37.50047,210.7,NaN,,15.3,,0 / 1,,894,2021-05-01 16:24:09:925
0.006909,-0.014012,9.735572,-6.01E-4,-1.28E-4,9.806649,0.004206,-4.81E-4,0.002724,4.74,-19.8,-22.62,194.6464,0.1681,-0.6097,55.814037,37.50047,210.7,NaN,,15.3,,0 / 1,,904,2021-05-01 16:24:09:935
0.023524,0.009121,9.745122,-4.2E-5,-1.2E-5,9.80665,-0.001902,-0.002925,-0.003996,5.22,-19.62,-22.92,194.6503,0.1665,-0.613,55.814037,37.50047,210.7,NaN,,15.3,,0 / 1,,914,2021-05-01 16:24:09:945
0.006407,-0.001382,9.788328,-4.2E-5,-1.2E-5,9.80665,-0.001902,-0.001703,-0.001552,5.22,-19.62,-22.92,194.6503,0.1665,-0.613,55.814037,37.50047,210.7,NaN,,15.3,,0 / 1,,925,2021-05-01 16:24:09:956
0.012129,-0.005158,9.723603,-3.97E-4,4.49E-4,9.806651,0.001763,-0.002925,-3.3E-4,4.86,-19.62,-22.98,194.6503,0.1665,-0.613,55.814037,37.50047,210.7,NaN,,15.3,,0 / 1,,935,2021-05-01 16:24:09:966
0.012129,-0.005158,9.723603,-3.97E-4,4.49E-4,9.806651,0.001763,-0.002925,-3.3E-4,4.86,-19.62,-22.98,194.6503,0.1665,-0.613,55.814037,37.50047,210.7,NaN,,15.3,,0 / 1,,944,2021-05-01 16:24:09:975
0.003094,-0.002869,9.747647,6.6E-5,1.29E-4,9.806649,0.001152,-0.001092,8.91E-4,5.04,-19.26,-23.22,195.3857,0.1685,-0.6159,55.814037,37.50047,210.7,NaN,,15.3,,0 / 1,,954,2021-05-01 16:24:09:985
-0.004353,0.013708,9.740634,6.6E-5,1.29E-4,9.806649,-0.002513,0.003184,-3.3E-4,5.04,-19.26,-23.22,195.3857,0.1685,-0.6159,55.814037,37.50047,210.7,NaN,,15.3,,0 / 1,,964,2021-05-01 16:24:09:995
-0.020207,-0.009362,9.778966,7.31E-4,-4.3E-5,9.806649,-6.81E-4,0.002573,0.002113,5.52,-18.36,-22.86,195.3857,0.1685,-0.6159,55.814037,37.50047,210.7,NaN,,15.3,,0 / 1,,974,2021-05-01 16:24:10:005
-0.006606,-0.003018,9.728588,0.001165,-4.86E-4,9.806649,-0.001291,1.3E-4,2.8E-4,5.58,-18.72,-22.62,195.3857,0.1685,-0.6159,55.814037,37.50047,210.7,NaN,,15.3,,0 / 1,,984,2021-05-01 16:24:10:015
-3.82E-4,0.002814,9.697433,0.001165,-4.86E-4,9.806649,-7.0E-5,-0.005368,-3.3E-4,5.58,-18.72,-22.62,195.3857,0.1685,-0.6159,55.814037,37.50047,210.7,NaN,,15.3,,0 / 1,,994,2021-05-01 16:24:10:025
-3.82E-4,0.002814,9.697433,-4.58E-4,2.74E-4,9.806648,0.001152,-0.004147,-0.002774,6.0,-19.14,-22.98,198.1323,0.1675,-0.6085,55.814037,37.50047,210.7,NaN,,15.3,,0 / 1,,1004,2021-05-01 16:24:10:035
0.023556,-0.030169,9.754467,-4.58E-4,2.74E-4,9.806648,0.001763,-4.81E-4,2.8E-4,6.0,-19.14,-22.98,198.1323,0.1675,-0.6085,55.814037,37.50047,210.7,NaN,,15.3,,0 / 1,,1014,2021-05-01 16:24:10:045
0.024402,-0.005326,9.778554,7.82E-4,-0.001828,9.806649,-0.001291,0.003184,-9.41E-4,5.94,-19.74,-23.4,198.1323,0.1675,-0.6085,55.814037,37.50047,210.7,NaN,,15.3,,0 / 1,,1035,2021-05-01 16:24:10:066
0.024402,-0.005326,9.778554,7.82E-4,-0.001828,9.806649,-0.001291,0.003184,-9.41E-4,5.94,-19.74,-23.4,198.1323,0.1675,-0.6085,55.814037,37.50047,210.7,NaN,,15.3,,0 / 1,,1035,2021-05-01 16:24:10:066
0.024402,-0.005326,9.778554,7.82E-4,-0.001828,9.806649,-0.001291,0.003184,-9.41E-4,5.1,-19.26,-23.1,195.372,0.1588,-0.6009,55.814037,37.50047,210.7,NaN,,15.3,,0 / 1,,1044,2021-05-01 16:24:10:075
0.011316,-0.00134,9.749947,0.002176,-0.001545,9.806649,0.001152,1.3E-4,0.001502,5.1,-19.26,-23.1,195.372,0.1588,-0.6009,55.814037,37.50047,210.7,NaN,,15.3,,0 / 1,,1055,2021-05-01 16:24:10:086
0.004132,-0.019292,9.771466,0.002176,-0.001545,9.806649,0.002374,-4.81E-4,-0.001552,5.04,-19.02,-22.44,195.372,0.1588,-0.6009,55.814037,37.50047,210.7,NaN,,15.3,,0 / 1,,1064,2021-05-01 16:24:10:095
0.01695,-0.007848,9.747464,0.002739,-0.002753,9.806648,0.002374,-0.002925,0.001502,5.04,-19.02,-22.44,195.372,0.1588,-0.6009,55.814037,37.50047,210.7,NaN,,15.3,,0 / 1,,1074,2021-05-01 16:24:10:105
0.015759,0.009895,9.747532,0.002699,-0.003264,9.806648,0.001763,0.001962,-0.002163,5.1,-19.44,-22.26,195.3272,0.1446,-0.5806,55.814037,37.50047,210.7,NaN,,15.3,,0 / 1,,1084,2021-05-01 16:24:10:115
0.015759,0.009895,9.747532,0.002699,-0.003264,9.806648,-0.001902,1.3E-4,8.91E-4,5.1,-19.44,-22.26,195.3272,0.1446,-0.5806,55.814037,37.50047,210.7,NaN,,15.3,,0 / 1,,1094,2021-05-01 16:24:10:125
0.02705,0.024197,9.740319,6.2E-5,-0.001013,9.80665,5.41E-4,0.001351,8.91E-4,5.16,-19.14,-22.8,195.3272,0.1446,-0.5806,55.814037,37.50047,210.7,NaN,,15.3,,0 / 1,,1105,2021-05-01 16:24:10:136
-0.025747,0.001265,9.802938,6.2E-5,-0.001013,9.80665,0.001152,1.3E-4,0.002113,5.16,-19.14,-22.8,195.3272,0.1446,-0.5806,55.814037,37.50047,210.7,NaN,,15.3,,0 / 1,,1114,2021-05-01 16:24:10:145
0.018527,0.00264,9.759436,-3.31E-4,4.5E-5,9.806652,-0.001291,0.001351,-9.41E-4,4.92,-18.72,-23.4,195.3532,0.139,-0.5787,55.814037,37.50047,210.7,NaN,,15.3,,0 / 1,,1124,2021-05-01 16:24:10:155
0.015587,0.028288,9.754803,3.1E-5,-4.7E-5,9.806652,5.41E-4,-0.001703,2.8E-4,4.98,-18.78,-22.86,195.3532,0.139,-0.5787,55.814037,37.50047,210.7,NaN,,15.3,,0 / 1,,1134,2021-05-01 16:24:10:165
0.015587,0.028288,9.754803,3.1E-5,-4.7E-5,9.806652,5.41E-4,-0.001703,2.8E-4,4.98,-18.78,-22.86,195.3532,0.139,-0.5787,55.814037,37.50047,210.7,NaN,,15.3,,0 / 1,,1145,2021-05-01 16:24:10:176
0.013362,0.001551,9.769056,4.92E-4,-3.7E-5,9.806652,0.001763,-0.001092,-0.002163,4.56,-19.02,-22.74,195.3532,0.139,-0.5787,55.814037,37.50047,210.7,NaN,,15.3,,0 / 1,,1154,2021-05-01 16:24:10:185
7.06E-4,0.002676,9.7165,4.92E-4,-3.7E-5,9.806652,-0.001291,-0.003536,0.002113,4.56,-19.02,-22.74,195.3532,0.139,-0.5787,55.814037,37.50047,210.7,NaN,,15.3,,0 / 1,,1164,2021-05-01 16:24:10:195
-0.001535,0.020368,9.798013,8.53E-4,0.001295,9.80665,-6.81E-4,-0.002925,-0.002774,4.86,-19.32,-23.46,195.3499,0.1395,-0.5759,55.814037,37.50047,210.7,NaN,,15.3,,0 / 1,,1174,2021-05-01 16:24:10:205
-0.001535,0.020368,9.798013,8.53E-4,0.001295,9.80665,-7.0E-5,-4.81E-4,-3.3E-4,5.1,-19.26,-23.52,195.3499,0.1395,-0.5759,55.814037,37.50047,210.7,NaN,,15.3,,0 / 1,,1184,2021-05-01 16:24:10:215
0.002683,0.009327,9.778764,7.67E-4,0.002389,9.806651,0.001152,0.004406,2.8E-4,5.1,-19.26,-23.52,195.3499,0.1395,-0.5759,55.814037,37.50047,210.7,NaN,,15.3,,0 / 1,,1195,2021-05-01 16:24:10:226
-0.001539,0.013035,9.752483,7.18E-4,0.002958,9.80665,0.001763,1.3E-4,0.001502,5.88,-18.84,-24.36,195.3499,0.1395,-0.5759,55.814037,37.50047,210.7,NaN,,15.3,,0 / 1,,1205,2021-05-01 16:24:10:236
-0.004911,0.018932,9.750148,7.18E-4,0.002958,9.80665,0.002985,-4.81E-4,0.002113,5.88,-18.84,-24.36,195.3499,0.1395,-0.5759,55.814037,37.50047,210.7,NaN,,15.3,,0 / 1,,1214,2021-05-01 16:24:10:245
-0.004911,0.018932,9.750148,3.5E-5,7.18E-4,9.80665,0.002985,-0.001703,0.003335,5.7,-19.02,-24.06,198.1258,0.1573,-0.5764,55.814037,37.50047,210.7,NaN,,15.3,,0 / 1,,1224,2021-05-01 16:24:10:255
-0.001803,0.017762,9.752529,6.4E-5,5.9E-4,9.80665,-7.0E-5,0.003184,-0.001552,5.7,-19.38,-23.7,198.1258,0.1573,-0.5764,55.814037,37.50047,210.7,NaN,,15.3,,0 / 1,,1234,2021-05-01 16:24:10:265
-0.001803,0.017762,9.752529,6.4E-5,5.9E-4,9.80665,-7.0E-5,0.003184,-0.001552,5.7,-19.38,-23.7,198.1258,0.1573,-0.5764,55.814037,37.50047,210.7,NaN,,15.3,,0 / 1,,1244,2021-05-01 16:24:10:275
0.009532,0.006522,9.742788,4.03E-4,5.68E-4,9.80665,-6.81E-4,0.003795,-3.3E-4,5.46,-18.9,-23.4,198.1258,0.1573,-0.5764,55.814037,37.50047,210.7,NaN,,15.3,,0 / 1,,1254,2021-05-01 16:24:10:285
-0.009061,0.017515,9.788507,4.03E-4,5.68E-4,9.80665,-6.81E-4,-4.81E-4,-0.001552,5.46,-18.9,-23.4,198.1258,0.1573,-0.5764,55.814037,37.50047,210.7,NaN,,15.3,,0 / 1,,1264,2021-05-01 16:24:10:295
-0.009061,0.017515,9.788507,2.1E-5,-2.47E-4,9.806651,-6.81E-4,0.001962,0.001502,5.52,-19.2,-23.58,198.1231,0.1612,-0.5752,55.814037,37.50047,210.7,NaN,,15.3,,0 / 1,,1274,2021-05-01 16:24:10:305
0.003589,-0.00498,9.795452,3.78E-4,-3.55E-4,9.806651,0.004206,-0.001703,-3.3E-4,5.4,-19.2,-23.16,198.1231,0.1612,-0.5752,55.814037,37.50047,210.7,NaN,,15.3,,0 / 1,,1284,2021-05-01 16:24:10:315
-0.002225,0.002124,9.740472,3.78E-4,-3.55E-4,9.806651,0.004206,-0.001703,-3.3E-4,5.4,-19.2,-23.16,198.1231,0.1612,-0.5752,55.814037,37.50047,210.7,NaN,,15.3,,0 / 1,,1295,2021-05-01 16:24:10:326
0.002719,-0.007172,9.781081,1.83E-4,-4.07E-4,9.806651,-7.0E-5,-0.001092,-0.003996,4.98,-19.38,-23.16,198.1231,0.1612,-0.5752,55.814037,37.50047,210.7,NaN,,15.3,,0 / 1,,1305,2021-05-01 16:24:10:336
0.00187,-0.024465,9.759438,1.83E-4,-4.07E-4,9.806651,-0.001291,0.001351,2.8E-4,4.98,-19.38,-23.16,198.1231,0.1612,-0.5752,55.814037,37.50047,210.7,NaN,,15.3,,0 / 1,,1314,2021-05-01 16:24:10:345
0.00187,-0.024465,9.759438,2.02E-4,-9.6E-5,9.806652,0.002374,7.4E-4,0.001502,5.1,-19.68,-22.62,194.61,0.1593,-0.5734,55.814037,37.50047,210.7,NaN,,15.3,,0 / 1,,1324,2021-05-01 16:24:10:355
-0.017416,0.01115,9.757413,3.66E-4,-1.85E-4,9.806652,5.41E-4,7.4E-4,-3.3E-4,5.28,-19.98,-22.2,194.61,0.1593,-0.5734,55.814037,37.50047,210.7,NaN,,15.3,,0 / 1,,1334,2021-05-01 16:24:10:365
0.001958,0.008499,9.783563,3.66E-4,-1.85E-4,9.806652,5.41E-4,0.003184,2.8E-4,5.28,-19.98,-22.2,194.61,0.1593,-0.5734,55.814037,37.50047,210.7,NaN,,15.3,,0 / 1,,1345,2021-05-01 16:24:10:376
-0.007378,-0.008904,9.797923,-2.2E-5,-2.34E-4,9.806651,-0.001291,1.3E-4,-9.41E-4,5.58,-19.02,-21.96,194.61,0.1593,-0.5734,55.814037,37.50047,210.7,NaN,,15.3,,0 / 1,,1354,2021-05-01 16:24:10:385
-0.007378,-0.008904,9.797923,-2.2E-5,-2.34E-4,9.806651,-0.001291,1.3E-4,-9.41E-4,5.58,-19.02,-21.96,194.61,0.1593,-0.5734,55.814037,37.50047,210.7,NaN,,15.3,,0 / 1,,1365,2021-05-01 16:24:10:396
-0.001777,0.024448,9.738186,-1.62E-4,-2.0E-6,9.806651,-6.81E-4,-0.001703,2.8E-4,5.52,-18.78,-22.44,198.0726,0.1579,-0.5732,55.814037,37.50047,210.7,NaN,,15.3,,0 / 1,,1374,2021-05-01 16:24:10:405
0.011154,-0.01946,9.800087,1.62E-4,-1.62E-4,9.806651,0.001152,-4.81E-4,0.002113,5.22,-18.9,-22.32,198.0726,0.1579,-0.5732,55.814037,37.50047,210.7,NaN,,15.3,,0 / 1,,1384,2021-05-01 16:24:10:415
0.011154,-0.01946,9.800087,1.62E-4,-1.62E-4,9.806651,5.41E-4,0.003184,-3.3E-4,5.22,-18.9,-22.32,198.0726,0.1579,-0.5732,55.814037,37.50047,210.7,NaN,,15.3,,0 / 1,,1394,2021-05-01 16:24:10:425
0.00678,0.014833,9.757221,-1.53E-4,-7.9E-4,9.806651,-6.81E-4,0.002573,8.91E-4,5.7,-18.84,-22.44,198.0726,0.1579,-0.5732,55.814037,37.50047,210.7,NaN,,15.3,,0 / 1,,1405,2021-05-01 16:24:10:436
-0.009674,0.010957,9.759731,-2.78E-4,-6.4E-4,9.80665,-6.81E-4,7.4E-4,-0.001552,5.82,-18.9,-22.26,198.0736,0.1533,-0.5726,55.814037,37.50047,210.7,NaN,,15.3,,0 / 1,,1414,2021-05-01 16:24:10:445
0.002636,0.009398,9.781166,-2.78E-4,-6.4E-4,9.80665,5.41E-4,7.4E-4,0.001502,5.82,-18.9,-22.26,198.0736,0.1533,-0.5726,55.814037,37.50047,210.7,NaN,,15.3,,0 / 1,,1424,2021-05-01 16:24:10:455
-0.024789,0.003303,9.757425,-7.4E-4,-7.09E-4,9.80665,-6.81E-4,0.001962,-3.3E-4,5.16,-18.9,-23.04,198.0736,0.1533,-0.5726,55.814037,37.50047,210.7,NaN,,15.3,,0 / 1,,1434,2021-05-01 16:24:10:465
-0.024789,0.003303,9.757425,-7.4E-4,-7.09E-4,9.80665,-6.81E-4,0.001962,-3.3E-4,5.16,-18.9,-23.04,198.0736,0.1533,-0.5726,55.814037,37.50047,210.7,NaN,,15.3,,0 / 1,,1445,2021-05-01 16:24:10:476
0.006369,-0.001854,9.766704,-4.3E-4,-2.56E-4,9.80665,5.41E-4,0.001351,8.91E-4,4.5,-18.6,-23.04,195.3468,0.148,-0.5755,55.814037,37.50047,210.7,NaN,,15.3,,0 / 1,,1454,2021-05-01 16:24:10:485
-0.001952,0.008978,9.826696,-4.3E-4,-2.56E-4,9.80665,0.002374,0.005016,8.91E-4,4.5,-18.6,-23.04,195.3468,0.148,-0.5755,55.814037,37.50047,210.7,NaN,,15.3,,0 / 1,,1465,2021-05-01 16:24:10:496
-0.001952,0.008978,9.826696,-5.57E-4,-9.1E-4,9.80665,0.001152,-4.81E-4,8.91E-4,5.28,-19.08,-23.16,195.3468,0.148,-0.5755,55.814037,37.50047,210.7,NaN,,15.3,,0 / 1,,1474,2021-05-01 16:24:10:505
0.014198,0.014547,9.800241,-0.001108,-0.00148,9.806649,-0.001291,-0.002925,-0.001552,5.82,-19.5,-23.52,195.3468,0.148,-0.5755,55.814037,37.50047,210.7,NaN,,15.3,,0 / 1,,1484,2021-05-01 16:24:10:515
0.014198,0.014547,9.800241,-0.001108,-0.00148,9.806649,0.002374,-0.002314,-3.3E-4,5.82,-19.5,-23.52,195.3468,0.148,-0.5755,55.814037,37.50047,210.7,NaN,,15.3,,0 / 1,,1495,2021-05-01 16:24:10:526
-0.011758,0.00184,9.788437,-2.44E-4,4.03E-4,9.806651,5.41E-4,7.4E-4,-9.41E-4,6.42,-19.26,-23.1,198.1111,0.1379,-0.5794,55.814037,37.50047,210.7,NaN,,15.3,,0 / 1,,1504,2021-05-01 16:24:10:535
-0.014904,-0.002307,9.798022,-2.44E-4,4.03E-4,9.806651,-7.0E-5,7.4E-4,-3.3E-4,6.42,-19.26,-23.1,198.1111,0.1379,-0.5794,55.814037,37.50047,210.7,NaN,,15.3,,0 / 1,,1514,2021-05-01 16:24:10:545
0.002259,0.004736,9.773964,-7.14E-4,0.001367,9.806651,-7.0E-5,7.4E-4,-3.3E-4,6.24,-19.14,-22.26,198.1111,0.1379,-0.5794,55.814037,37.50047,210.7,NaN,,15.3,,0 / 1,,1524,2021-05-01 16:24:10:555
-0.001568,-0.014122,9.757135,-4.76E-4,0.001431,9.80665,0.001763,-4.81E-4,-0.001552,6.18,-19.2,-21.96,198.1111,0.1379,-0.5794,55.814037,37.50047,210.7,NaN,,15.3,,0 / 1,,1534,2021-05-01 16:24:10:565
-0.001568,-0.014122,9.757135,-4.76E-4,0.001431,9.80665,-0.001291,1.3E-4,-0.002163,6.18,-19.2,-21.96,198.1111,0.1379,-0.5794,55.814037,37.50047,210.7,NaN,,15.3,,0 / 1,,1544,2021-05-01 16:24:10:575
-0.011225,0.009097,9.793262,-2.85E-4,-1.73E-4,9.806649,-7.0E-5,1.3E-4,-0.001552,5.82,-18.54,-22.2,198.0889,0.145,-0.5847,55.814037,37.50047,210.7,NaN,,15.3,,0 / 1,,1555,2021-05-01 16:24:10:586
0.00586,-0.002768,9.781086,-2.85E-4,-1.73E-4,9.806649,5.41E-4,0.001962,-9.41E-4,5.82,-18.54,-22.2,198.0889,0.145,-0.5847,55.814037,37.50047,210.7,NaN,,15.3,,0 / 1,,1564,2021-05-01 16:24:10:595
0.00612,-0.010473,9.804983,-9.28E-4,0.001156,9.806649,5.41E-4,0.001962,-9.41E-4,5.7,-18.24,-22.8,198.0889,0.145,-0.5847,55.814037,37.50047,210.7,NaN,,15.3,,0 / 1,,1574,2021-05-01 16:24:10:605
0.009773,9.47E-4,9.797832,-0.001035,0.001789,9.80665,-0.001291,0.003795,0.002113,5.52,-18.54,-23.22,198.0889,0.145,-0.5847,55.814037,37.50047,210.7,NaN,,15.3,,0 / 1,,1584,2021-05-01 16:24:10:615
0.009773,9.47E-4,9.797832,-0.001035,0.001789,9.80665,-7.0E-5,-0.001703,-0.001552,5.52,-18.54,-23.22,198.0889,0.145,-0.5847,55.814037,37.50047,210.7,NaN,,15.3,,0 / 1,,1594,2021-05-01 16:24:10:625
0.025572,0.003368,9.788126,1.42E-4,0.001232,9.806648,-7.0E-5,-4.81E-4,-0.002163,5.4,-18.84,-22.98,195.3656,0.1531,-0.5937,55.814037,37.50047,210.7,NaN,,15.3,,0 / 1,,1604,2021-05-01 16:24:10:635
0.009726,-0.012364,9.771437,1.42E-4,0.001232,9.806648,0.001763,0.003184,0.002113,5.4,-18.84,-22.98,195.3656,0.1531,-0.5937,55.814037,37.50047,210.7,NaN,,15.3,,0 / 1,,1614,2021-05-01 16:24:10:645
-0.024962,0.007186,9.740736,2.29E-4,0.001576,9.806648,0.001152,7.4E-4,-0.001552,5.52,-18.78,-22.08,195.3656,0.1531,-0.5937,55.814037,37.50047,210.7,NaN,,15.3,,0 / 1,,1625,2021-05-01 16:24:10:656
-0.024962,0.007186,9.740736,2.29E-4,0.001576,9.806648,-6.81E-4,1.3E-4,2.8E-4,5.52,-18.78,-22.08,195.3656,0.1531,-0.5937,55.814037,37.50047,210.7,NaN,,15.3,,0 / 1,,1634,2021-05-01 16:24:10:665
-0.002793,0.00459,9.754893,0.001055,5.09E-4,9.806652,-6.81E-4,1.3E-4,2.8E-4,5.52,-19.32,-22.74,198.1192,0.1623,-0.5948,55.814037,37.50047,210.7,NaN,,15.3,,0 / 1,,1644,2021-05-01 16:24:10:675
-0.001663,-9.33E-4,9.793162,0.001188,4.76E-4,9.806651,5.41E-4,0.002573,-0.002774,5.64,-19.26,-22.98,198.1192,0.1623,-0.5948,55.814037,37.50047,210.7,NaN,,15.3,,0 / 1,,1654,2021-05-01 16:24:10:685
-0.001663,-9.33E-4,9.793162,0.001188,4.76E-4,9.806651,0.001763,7.4E-4,-3.3E-4,5.64,-19.26,-22.98,198.1192,0.1623,-0.5948,55.814037,37.50047,210.7,NaN,,15.3,,0 / 1,,1664,2021-05-01 16:24:10:695
0.027305,0.002114,9.816863,0.001219,1.06E-4,9.806651,-0.001902,0.001351,-0.002163,5.76,-19.14,-23.4,198.1192,0.1623,-0.5948,55.814037,37.50047,210.7,NaN,,15.3,,0 / 1,,1675,2021-05-01 16:24:10:706
0.013648,-0.016048,9.802512,0.001393,2.44E-4,9.806652,-7.0E-5,0.001351,0.001502,5.76,-19.14,-23.4,198.1192,0.1623,-0.5948,55.814037,37.50047,210.7,NaN,,15.3,,0 / 1,,1684,2021-05-01 16:24:10:715
0.013648,-0.016048,9.802512,0.001393,2.44E-4,9.806652,0.002374,-0.002314,0.003335,5.58,-19.56,-23.64,197.2867,0.1662,-0.5875,55.814037,37.50047,210.7,NaN,,15.3,,0 / 1,,1694,2021-05-01 16:24:10:725
0.005186,-0.021157,9.735506,2.47E-4,-5.0E-4,9.80665,-0.002513,-0.004757,0.002113,5.58,-19.56,-23.64,197.2867,0.1662,-0.5875,55.814037,37.50047,210.7,NaN,,15.3,,0 / 1,,1704,2021-05-01 16:24:10:735
0.013004,0.008717,9.831386,2.47E-4,-5.0E-4,9.80665,5.41E-4,0.00746,-9.41E-4,5.1,-19.38,-23.04,197.2867,0.1662,-0.5875,55.814037,37.50047,210.7,NaN,,15.3,,0 / 1,,1714,2021-05-01 16:24:10:745
0.002138,0.007185,9.797952,8.69E-4,-0.00173,9.806651,5.41E-4,0.00746,-9.41E-4,5.1,-19.38,-23.04,197.2867,0.1662,-0.5875,55.814037,37.50047,210.7,NaN,,15.3,,0 / 1,,1724,2021-05-01 16:24:10:755
0.002138,0.007185,9.797952,8.69E-4,-0.00173,9.806651,0.001763,0.001962,-3.3E-4,5.4,-19.14,-22.92,195.3484,0.158,-0.5797,55.814037,37.50047,210.7,NaN,,15.3,,0 / 1,,1734,2021-05-01 16:24:10:765
-3.67E-4,0.024378,9.740579,2.58E-4,-9.3E-4,9.806649,-7.0E-5,0.005016,-3.3E-4,5.4,-19.14,-22.92,195.3484,0.158,-0.5797,55.814037,37.50047,210.7,NaN,,15.3,,0 / 1,,1744,2021-05-01 16:24:10:775
-0.001257,0.02954,9.757375,2.58E-4,-9.3E-4,9.806649,0.002985,-0.002314,2.8E-4,6.12,-19.26,-23.7,195.3484,0.158,-0.5797,55.814037,37.50047,210.7,NaN,,15.3,,0 / 1,,1754,2021-05-01 16:24:10:785
0.004252,0.003104,9.790706,8.77E-4,-0.001032,9.80665,-0.001902,1.3E-4,8.91E-4,6.12,-19.26,-23.7,195.3484,0.158,-0.5797,55.814037,37.50047,210.7,NaN,,15.3,,0 / 1,,1765,2021-05-01 16:24:10:796
0.004252,0.003104,9.790706,2.18E-4,6.7E-5,9.806649,-7.0E-5,-0.001092,0.002113,6.06,-19.38,-23.52,198.1235,0.1536,-0.5731,55.814037,37.50047,210.7,NaN,,15.3,,0 / 1,,1774,2021-05-01 16:24:10:805
-0.016184,-0.024763,9.764376,2.18E-4,6.7E-5,9.806649,-0.001291,7.4E-4,8.91E-4,6.06,-19.38,-23.52,198.1235,0.1536,-0.5731,55.814037,37.50047,210.7,NaN,,15.3,,0 / 1,,1784,2021-05-01 16:24:10:815
0.006924,-0.017352,9.8145,-3.83E-4,-8.15E-4,9.806649,-0.001291,-0.002314,0.001502,5.58,-19.14,-23.04,198.1235,0.1536,-0.5731,55.814037,37.50047,210.7,NaN,,15.3,,0 / 1,,1794,2021-05-01 16:24:10:825
0.015902,0.002382,9.814533,-3.83E-4,-8.15E-4,9.806649,-7.0E-5,-0.001092,0.003335,5.58,-19.14,-23.04,198.1235,0.1536,-0.5731,55.814037,37.50047,210.7,NaN,,15.3,,0 / 1,,1805,2021-05-01 16:24:10:836
-0.003558,0.012241,9.802785,-3.02E-4,-7.35E-4,9.80665,0.001763,0.001962,8.91E-4,5.52,-19.08,-23.16,198.1013,0.1484,-0.5738,55.814037,37.50047,210.7,NaN,,15.3,,0 / 1,,1815,2021-05-01 16:24:10:846
-0.003558,0.012241,9.802785,-3.02E-4,-7.35E-4,9.80665,0.001763,0.001962,8.91E-4,5.52,-19.08,-23.16,198.1013,0.1484,-0.5738,55.814037,37.50047,210.7,NaN,,15.3,,0 / 1,,1824,2021-05-01 16:24:10:855
-0.00277,0.006946,9.802749,-3.05E-4,-0.001157,9.80665,0.002985,0.001962,8.91E-4,5.58,-19.86,-23.22,198.1013,0.1484,-0.5738,55.814037,37.50047,210.7,NaN,,15.3,,0 / 1,,1834,2021-05-01 16:24:10:865
0.017039,0.015768,9.735582,-3.05E-4,-0.001157,9.80665,-6.81E-4,0.005627,-0.002774,5.58,-19.86,-23.22,198.1013,0.1484,-0.5738,55.814037,37.50047,210.7,NaN,,15.3,,0 / 1,,1844,2021-05-01 16:24:10:875
0.017039,0.015768,9.735582,-5.07E-4,1.58E-4,9.806651,-0.001902,-0.001092,0.001502,5.76,-19.86,-23.28,197.2556,0.1414,-0.5734,55.814037,37.50047,210.7,NaN,,15.3,,0 / 1,,1854,2021-05-01 16:24:10:885
0.002099,0.016769,9.752471,-5.07E-4,1.58E-4,9.806651,-6.81E-4,7.4E-4,8.91E-4,5.76,-19.86,-23.28,197.2556,0.1414,-0.5734,55.814037,37.50047,210.7,NaN,,15.3,,0 / 1,,1864,2021-05-01 16:24:10:895
-0.015189,-0.008058,9.79559,3.38E-4,2.45E-4,9.806652,-6.81E-4,7.4E-4,8.91E-4,5.46,-19.26,-22.86,197.2556,0.1414,-0.5734,55.814037,37.50047,210.7,NaN,,15.3,,0 / 1,,1874,2021-05-01 16:24:10:905
-0.002421,-0.006984,9.785906,3.38E-4,2.45E-4,9.806652,-7.0E-5,-4.81E-4,-0.001552,5.46,-19.26,-22.86,197.2556,0.1414,-0.5734,55.814037,37.50047,210.7,NaN,,15.3,,0 / 1,,1884,2021-05-01 16:24:10:915
-0.00271,1.23E-4,9.809889,1.54E-4,6.88E-4,9.80665,0.001152,-4.81E-4,2.8E-4,5.22,-19.38,-22.92,195.3442,0.1433,-0.5719,55.814037,37.50047,210.7,NaN,,15.3,,0 / 1,,1894,2021-05-01 16:24:10:925
-0.00271,1.23E-4,9.809889,1.54E-4,6.88E-4,9.80665,-6.81E-4,7.4E-4,8.91E-4,5.22,-19.38,-22.92,195.3442,0.1433,-0.5719,55.814037,37.50047,210.7,NaN,,15.3,,0 / 1,,1904,2021-05-01 16:24:10:935
-8.9E-5,0.00198,9.773958,-2.85E-4,0.001814,9.80665,-6.81E-4,-4.81E-4,-9.41E-4,5.34,-19.74,-22.86,195.3442,0.1433,-0.5719,55.814037,37.50047,210.7,NaN,,15.3,,0 / 1,,1915,2021-05-01 16:24:10:946
-0.006189,0.00608,9.795583,-2.85E-4,0.001814,9.80665,5.41E-4,0.001351,-3.3E-4,5.34,-19.74,-22.86,195.3442,0.1433,-0.5719,55.814037,37.50047,210.7,NaN,,15.3,,0 / 1,,1924,2021-05-01 16:24:10:955
-0.008899,0.003137,9.774055,1.51E-4,2.05E-4,9.80665,5.41E-4,-0.001092,2.8E-4,5.88,-18.96,-23.04,198.1023,0.1531,-0.5763,55.814037,37.50047,210.7,NaN,,15.3,,0 / 1,,1934,2021-05-01 16:24:10:965
-0.008899,0.003137,9.774055,1.51E-4,2.05E-4,9.80665,-7.0E-5,1.3E-4,2.8E-4,5.88,-18.96,-23.04,198.1023,0.1531,-0.5763,55.814037,37.50047,210.7,NaN,,15.3,,0 / 1,,1944,2021-05-01 16:24:10:975
-0.002877,-0.008873,9.761961,2.73E-4,7.81E-4,9.80665,5.41E-4,-4.81E-4,2.8E-4,6.24,-18.66,-23.04,198.1023,0.1531,-0.5763,55.814037,37.50047,210.7,NaN,,15.3,,0 / 1,,1954,2021-05-01 16:24:10:985
-0.002877,-0.008873,9.761961,2.73E-4,7.81E-4,9.80665,5.41E-4,-4.81E-4,2.8E-4,6.24,-18.66,-23.04,198.1023,0.1531,-0.5763,55.814037,37.50047,210.7,NaN,,15.3,,0 / 1,,1964,2021-05-01 16:24:10:995
-0.024064,0.010607,9.776624,5.9E-5,0.001478,9.806649,-7.0E-5,-4.81E-4,0.002113,5.76,-19.2,-23.1,198.1005,0.158,-0.5762,55.814037,37.50047,210.7,NaN,,15.3,,0 / 1,,1975,2021-05-01 16:24:11:006
0.001788,0.006458,9.730883,5.9E-5,0.001478,9.806649,-7.0E-5,-4.81E-4,0.002113,5.76,-19.2,-23.1,198.1005,0.158,-0.5762,55.814037,37.50047,210.7,NaN,,15.3,,0 / 1,,1984,2021-05-01 16:24:11:015
0.011474,0.003098,9.797824,-7.3E-5,0.001512,9.80665,-7.0E-5,0.003795,0.002724,5.22,-19.2,-23.04,198.1005,0.158,-0.5762,55.814037,37.50047,210.7,NaN,,15.3,,0 / 1,,1994,2021-05-01 16:24:11:025
-0.005049,-0.009155,9.805079,-7.3E-5,0.001512,9.80665,-7.0E-5,1.3E-4,0.001502,5.22,-19.2,-23.04,198.1005,0.158,-0.5762,55.814037,37.50047,210.7,NaN,,15.3,,0 / 1,,2004,2021-05-01 16:24:11:035
-0.009377,-0.012166,9.824274,1.27E-4,4.76E-4,9.80665,-0.001902,0.001351,0.002113,5.22,-19.56,-22.5,194.5894,0.1662,-0.5794,55.814037,37.50047,210.7,NaN,,15.3,,0 / 1,,2015,2021-05-01 16:24:11:046
-0.009377,-0.012166,9.824274,1.27E-4,4.76E-4,9.80665,-7.0E-5,0.001351,2.8E-4,5.22,-19.56,-22.5,194.5894,0.1662,-0.5794,55.814037,37.50047,210.7,NaN,,15.3,,0 / 1,,2024,2021-05-01 16:24:11:055
0.001383,0.002489,9.77876,2.78E-4,2.1E-4,9.80665,5.41E-4,0.003795,2.8E-4,5.64,-19.74,-22.92,194.5894,0.1662,-0.5794,55.814037,37.50047,210.7,NaN,,15.3,,0 / 1,,2034,2021-05-01 16:24:11:065
-0.006162,-0.005279,9.723717,2.78E-4,2.1E-4,9.80665,0.001763,7.4E-4,0.001502,5.64,-19.74,-22.92,194.5894,0.1662,-0.5794,55.814037,37.50047,210.7,NaN,,15.3,,0 / 1,,2044,2021-05-01 16:24:11:075
-0.030955,-0.018526,9.78849,8.29E-4,0.001048,9.806651,0.001763,0.001962,0.003946,5.64,-19.5,-23.16,198.0951,0.1734,-0.5762,55.814037,37.50047,210.7,NaN,,15.3,,0 / 1,,2054,2021-05-01 16:24:11:085
-0.030955,-0.018526,9.78849,8.29E-4,0.001048,9.806651,0.001763,0.001962,0.003946,5.64,-19.5,-23.16,198.0951,0.1734,-0.5762,55.814037,37.50047,210.7,NaN,,15.3,,0 / 1,,2064,2021-05-01 16:24:11:095
0.00191,-0.011761,9.828952,1.56E-4,3.05E-4,9.806649,5.41E-4,0.004406,-0.002163,5.76,-19.2,-22.86,198.0951,0.1734,-0.5762,55.814037,37.50047,210.7,NaN,,15.3,,0 / 1,,2074,2021-05-01 16:24:11:105
0.010512,0.003487,9.694883,1.56E-4,3.05E-4,9.806649,-7.0E-5,-0.002925,8.91E-4,5.76,-19.2,-22.86,198.0951,0.1734,-0.5762,55.814037,37.50047,210.7,NaN,,15.3,,0 / 1,,2085,2021-05-01 16:24:11:116
-0.009594,0.006702,9.843531,5.01E-4,-2.64E-4,9.806651,0.001152,7.4E-4,0.002724,5.94,-19.44,-22.08,198.0695,0.1753,-0.5759,55.814037,37.50047,210.7,NaN,,15.3,,0 / 1,,2094,2021-05-01 16:24:11:125
0.02884,0.012132,9.737879,5.31E-4,-3.91E-4,9.80665,-0.001291,0.006238,0.002113,6.12,-19.14,-22.62,198.0695,0.1753,-0.5759,55.814037,37.50047,210.7,NaN,,15.3,,0 / 1,,2104,2021-05-01 16:24:11:135
0.02884,0.012132,9.737879,5.31E-4,-3.91E-4,9.80665,0.001152,0.00746,0.002113,6.12,-19.14,-22.62,198.0695,0.1753,-0.5759,55.814037,37.50047,210.7,NaN,,15.3,,0 / 1,,2114,2021-05-01 16:24:11:145
-0.016104,0.006762,9.702317,0.001759,-4.08E-4,9.80665,0.001763,0.001962,0.001502,6.12,-18.72,-23.4,198.0695,0.1753,-0.5759,55.814037,37.50047,210.7,NaN,,15.3,,0 / 1,,2125,2021-05-01 16:24:11:156
-0.023332,-0.003816,9.762155,-3.91E-4,1.36E-4,9.806651,-0.001291,0.001962,8.91E-4,5.7,-18.72,-23.58,198.1063,0.1763,-0.5654,55.814037,37.50047,210.7,NaN,,15.3,,0 / 1,,2135,2021-05-01 16:24:11:166
0.003165,1.09E-4,9.76435,-3.91E-4,1.36E-4,9.806651,0.002374,-0.002314,0.001502,5.7,-18.72,-23.58,198.1063,0.1763,-0.5654,55.814037,37.50047,210.7,NaN,,15.3,,0 / 1,,2145,2021-05-01 16:24:11:176
-0.004345,2.2E-5,9.771594,-0.002054,-5.9E-5,9.806649,-6.81E-4,0.003184,-0.001552,5.82,-18.84,-22.68,198.1063,0.1763,-0.5654,55.814037,37.50047,210.7,NaN,,15.3,,0 / 1,,2155,2021-05-01 16:24:11:186
-0.004345,2.2E-5,9.771594,-0.002054,-5.9E-5,9.806649,-6.81E-4,0.003184,-0.001552,5.82,-18.84,-22.68,198.1063,0.1763,-0.5654,55.814037,37.50047,210.7,NaN,,15.3,,0 / 1,,2164,2021-05-01 16:24:11:195
0.001044,0.008927,9.814719,-3.7E-4,-1.1E-4,9.80665,-6.81E-4,-0.001092,2.8E-4,6.48,-19.2,-22.38,198.0713,0.1722,-0.5767,55.814037,37.50047,210.7,NaN,,15.3,,0 / 1,,2175,2021-05-01 16:24:11:206
0.014426,0.012199,9.788283,-3.7E-4,-1.1E-4,9.80665,0.001763,7.4E-4,0.003335,6.48,-19.2,-22.38,198.0713,0.1722,-0.5767,55.814037,37.50047,210.7,NaN,,15.3,,0 / 1,,2185,2021-05-01 16:24:11:216
0.014426,0.012199,9.788283,-0.001278,-0.001016,9.806651,-7.0E-5,0.001351,-0.002163,5.82,-19.74,-22.74,198.0713,0.1722,-0.5767,55.814037,37.50047,210.7,NaN,,15.3,,0 / 1,,2194,2021-05-01 16:24:11:225
0.004447,-0.002091,9.761947,-0.001278,-0.001016,9.806651,0.001763,7.4E-4,-0.001552,5.82,-19.74,-22.74,198.0713,0.1722,-0.5767,55.814037,37.50047,210.7,NaN,,15.3,,0 / 1,,2204,2021-05-01 16:24:11:235
-0.016204,0.002694,9.704699,1.55E-4,-0.001006,9.80665,0.001763,0.001962,0.002113,5.04,-19.56,-22.62,194.6177,0.1642,-0.5819,55.814037,37.50047,210.7,NaN,,15.3,,0 / 1,,2214,2021-05-01 16:24:11:245
0.010289,0.008057,9.738008,1.55E-4,-0.001006,9.80665,-0.001291,0.001962,0.002724,5.04,-19.56,-22.62,194.6177,0.1642,-0.5819,55.814037,37.50047,210.7,NaN,,15.3,,0 / 1,,2225,2021-05-01 16:24:11:256
0.010289,0.008057,9.738008,-1.15E-4,-0.001834,9.80665,0.001763,-0.007201,0.001502,5.52,-18.42,-22.62,194.6177,0.1642,-0.5819,55.814037,37.50047,210.7,NaN,,15.3,,0 / 1,,2234,2021-05-01 16:24:11:265
-0.012225,-0.013403,9.776408,-4.03E-4,-0.002538,9.806651,0.001763,-0.001092,8.91E-4,5.4,-18.66,-22.5,194.6177,0.1642,-0.5819,55.814037,37.50047,210.7,NaN,,15.3,,0 / 1,,2244,2021-05-01 16:24:11:275
-0.006808,0.007698,9.786037,-4.03E-4,-0.002538,9.806651,0.002374,-0.002925,2.8E-4,5.4,-18.54,-22.38,195.3257,0.1493,-0.5805,55.814037,37.50047,210.7,NaN,,15.3,,0 / 1,,2255,2021-05-01 16:24:11:286
-0.006808,0.007698,9.786037,-6.02E-4,-0.001141,9.806648,0.002374,-0.002925,2.8E-4,5.4,-18.54,-22.38,195.3257,0.1493,-0.5805,55.814037,37.50047,210.7,NaN,,15.3,,0 / 1,,2264,2021-05-01 16:24:11:295
-0.015351,0.002507,9.817215,-6.02E-4,-0.001141,9.806648,0.004206,-0.001703,0.001502,5.34,-19.26,-22.68,195.3257,0.1493,-0.5805,55.814037,37.50047,210.7,NaN,,15.3,,0 / 1,,2275,2021-05-01 16:24:11:306
0.002223,-0.014708,9.812178,-0.001441,-0.002878,9.806648,0.006039,7.4E-4,2.8E-4,5.34,-19.26,-22.68,195.3257,0.1493,-0.5805,55.814037,37.50047,210.7,NaN,,15.3,,0 / 1,,2284,2021-05-01 16:24:11:315
-0.007868,0.009288,9.786056,-0.001441,-0.002878,9.806648,-7.0E-5,0.003184,-3.3E-4,6.06,-19.14,-23.1,198.1188,0.1309,-0.5842,55.814037,37.50047,210.7,NaN,,15.3,,0 / 1,,2295,2021-05-01 16:24:11:326
-0.006639,0.006447,9.752508,1.74E-4,-6.89E-4,9.806651,-0.001291,-0.007812,0.001502,6.3,-19.56,-22.86,198.1188,0.1309,-0.5842,55.814037,37.50047,210.7,NaN,,15.3,,0 / 1,,2306,2021-05-01 16:24:11:337
-0.006639,0.006447,9.752508,1.74E-4,-6.89E-4,9.806651,0.001152,-0.001703,2.8E-4,6.3,-19.56,-22.86,198.1188,0.1309,-0.5842,55.814037,37.50047,210.7,NaN,,15.3,,0 / 1,,2315,2021-05-01 16:24:11:346
-0.007827,0.001717,9.786015,-4.39E-4,-7.19E-4,9.806651,-6.81E-4,0.001351,-0.001552,5.58,-19.62,-22.56,198.1188,0.1309,-0.5842,55.814037,37.50047,210.7,NaN,,15.3,,0 / 1,,2324,2021-05-01 16:24:11:355
9.83E-4,0.00374,9.841018,-4.39E-4,-7.19E-4,9.806651,0.001763,-0.003536,0.002113,5.58,-19.62,-22.56,198.1188,0.1309,-0.5842,55.814037,37.50047,210.7,NaN,,15.3,,0 / 1,,2335,2021-05-01 16:24:11:366
-0.003724,-0.011505,9.848163,2.11E-4,-3.75E-4,9.806649,-0.001902,-4.81E-4,-0.002163,5.52,-19.26,-22.92,198.1217,0.1261,-0.5853,55.814037,37.50047,210.7,NaN,,15.3,,0 / 1,,2345,2021-05-01 16:24:11:376
0.00233,0.009353,9.776385,4.35E-4,-3.68E-4,9.80665,-6.81E-4,-0.001092,-0.002163,5.7,-19.02,-22.98,198.1217,0.1261,-0.5853,55.814037,37.50047,210.7,NaN,,15.3,,0 / 1,,2354,2021-05-01 16:24:11:385
0.00233,0.009353,9.776385,4.35E-4,-3.68E-4,9.80665,-6.81E-4,-0.001092,-0.002163,5.7,-19.02,-22.98,198.1217,0.1261,-0.5853,55.814037,37.50047,210.7,NaN,,15.3,,0 / 1,,2365,2021-05-01 16:24:11:396
0.001875,0.002072,9.72128,4.93E-4,-6.25E-4,9.80665,-0.002513,7.4E-4,-3.3E-4,6.12,-19.62,-22.86,198.1217,0.1261,-0.5853,55.814037,37.50047,210.7,NaN,,15.3,,0 / 1,,2374,2021-05-01 16:24:11:405
-0.018194,0.008534,9.766989,4.93E-4,-6.25E-4,9.80665,-0.002513,0.003795,-3.3E-4,6.12,-19.62,-22.86,198.1217,0.1261,-0.5853,55.814037,37.50047,210.7,NaN,,15.3,,0 / 1,,2384,2021-05-01 16:24:11:415
-0.018194,0.008534,9.766989,6.93E-4,1.23E-4,9.80665,5.41E-4,-0.003536,-0.001552,6.18,-19.74,-22.98,197.2698,0.1235,-0.5814,55.814037,37.50047,210.7,NaN,,15.3,,0 / 1,,2395,2021-05-01 16:24:11:426
-0.007947,0.002952,9.783619,3.39E-4,1.63E-4,9.806649,0.001763,1.3E-4,0.003946,6.0,-20.04,-22.98,197.2698,0.1235,-0.5814,55.814037,37.50047,210.7,NaN,,15.3,,0 / 1,,2404,2021-05-01 16:24:11:435
-0.001021,-0.006701,9.773931,3.39E-4,1.63E-4,9.806649,-6.81E-4,0.003795,-3.3E-4,6.0,-20.04,-22.98,197.2698,0.1235,-0.5814,55.814037,37.50047,210.7,NaN,,15.3,,0 / 1,,2414,2021-05-01 16:24:11:445
0.008228,0.005365,9.819401,2.41E-4,1.69E-4,9.806649,0.002374,-4.81E-4,0.001502,5.52,-19.74,-23.28,197.2698,0.1235,-0.5814,55.814037,37.50047,210.7,NaN,,15.3,,0 / 1,,2424,2021-05-01 16:24:11:455
0.008228,0.005365,9.819401,2.41E-4,1.69E-4,9.806649,-7.0E-5,7.4E-4,0.003335,5.52,-19.74,-23.28,197.2698,0.1235,-0.5814,55.814037,37.50047,210.7,NaN,,15.3,,0 / 1,,2435,2021-05-01 16:24:11:466
-0.006305,0.012045,9.721394,2.01E-4,0.001738,9.806651,0.001763,0.002573,2.8E-4,5.4,-19.44,-24.24,195.386,0.1249,-0.5804,55.814037,37.50047,210.7,NaN,,15.3,,0 / 1,,2444,2021-05-01 16:24:11:475
-0.006412,0.009461,9.778849,2.01E-4,0.001738,9.806651,-0.001902,1.3E-4,0.002724,5.4,-19.44,-24.24,195.386,0.1249,-0.5804,55.814037,37.50047,210.7,NaN,,15.3,,0 / 1,,2454,2021-05-01 16:24:11:485
-0.006412,0.009461,9.778849,-7.06E-4,0.003435,9.80665,-0.001902,1.3E-4,0.002724,5.94,-19.8,-23.76,195.386,0.1249,-0.5804,55.814037,37.50047,210.7,NaN,,15.3,,0 / 1,,2464,2021-05-01 16:24:11:495
-0.019089,0.02793,9.743137,-7.06E-4,0.003435,9.80665,0.001763,0.001351,-3.3E-4,5.94,-19.8,-23.76,195.386,0.1249,-0.5804,55.814037,37.50047,210.7,NaN,,15.3,,0 / 1,,2475,2021-05-01 16:24:11:506
0.004468,-0.019553,9.819326,4.6E-5,8.97E-4,9.806652,-0.001291,0.003795,-9.41E-4,5.7,-19.92,-22.68,197.272,0.1431,-0.5897,55.814037,37.50047,210.7,NaN,,15.3,,0 / 1,,2484,2021-05-01 16:24:11:515
0.004468,-0.019553,9.819326,4.6E-5,8.97E-4,9.806652,0.002374,-4.81E-4,-0.002163,5.46,-19.92,-22.5,197.272,0.1431,-0.5897,55.814037,37.50047,210.7,NaN,,15.3,,0 / 1,,2494,2021-05-01 16:24:11:525
0.006934,8.0E-6,9.716451,0.001187,0.002003,9.806651,0.001152,0.001962,-9.41E-4,5.34,-20.16,-22.86,197.272,0.1431,-0.5897,55.814037,37.50047,210.7,NaN,,15.3,,0 / 1,,2504,2021-05-01 16:24:11:535
0.006934,8.0E-6,9.716451,0.001187,0.002003,9.806651,0.001152,1.3E-4,8.91E-4,5.34,-20.16,-22.86,197.272,0.1431,-0.5897,55.814037,37.50047,210.7,NaN,,15.3,,0 / 1,,2514,2021-05-01 16:24:11:545
0.001394,0.011541,9.800367,1.28E-4,3.75E-4,9.80665,-0.003124,-4.81E-4,-9.41E-4,5.34,-19.98,-23.22,194.6248,0.1563,-0.5865,55.814037,37.50047,210.7,NaN,,15.3,,0 / 1,,2524,2021-05-01 16:24:11:555
-0.0119,-0.00459,9.747726,1.28E-4,3.75E-4,9.80665,0.002985,-0.001092,0.001502,5.34,-19.98,-23.22,194.6248,0.1563,-0.5865,55.814037,37.50047,210.7,NaN,,15.3,,0 / 1,,2534,2021-05-01 16:24:11:565
-0.0119,-0.00459,9.747726,-5.8E-5,6.68E-4,9.806649,0.002374,7.4E-4,-0.002163,5.4,-19.98,-23.58,194.6248,0.1563,-0.5865,55.814037,37.50047,210.7,NaN,,15.3,,0 / 1,,2544,2021-05-01 16:24:11:575
0.011177,-0.010584,9.737904,-2.67E-4,0.001266,9.80665,0.002374,7.4E-4,-0.002163,5.46,-19.74,-23.7,194.6248,0.1563,-0.5865,55.814037,37.50047,210.7,NaN,,15.3,,0 / 1,,2555,2021-05-01 16:24:11:586
0.011177,-0.010584,9.737904,-2.67E-4,0.001266,9.80665,-7.0E-5,7.4E-4,8.91E-4,5.46,-19.74,-23.7,194.6248,0.1563,-0.5865,55.814037,37.50047,210.7,NaN,,15.3,,0 / 1,,2565,2021-05-01 16:24:11:596
-0.012756,-0.009423,9.786018,2.22E-4,3.29E-4,9.806651,-0.001291,-0.001092,0.002113,5.76,-19.5,-23.94,198.139,0.1631,-0.5899,55.814037,37.50047,210.7,NaN,,15.3,,0 / 1,,2574,2021-05-01 16:24:11:605
3.7E-4,0.008369,9.781219,2.22E-4,3.29E-4,9.806651,5.41E-4,0.001351,8.91E-4,5.76,-19.5,-23.94,198.139,0.1631,-0.5899,55.814037,37.50047,210.7,NaN,,15.3,,0 / 1,,2584,2021-05-01 16:24:11:615
3.7E-4,0.008369,9.781219,3.62E-4,-8.9E-5,9.806651,-6.81E-4,-4.81E-4,0.002724,6.3,-18.78,-23.64,198.139,0.1631,-0.5899,55.814037,37.50047,210.7,NaN,,15.3,,0 / 1,,2594,2021-05-01 16:24:11:625
-0.009721,-0.013398,9.740475,3.43E-4,-3.0E-6,9.806652,-6.81E-4,1.3E-4,0.002113,6.24,-18.66,-23.64,198.139,0.1631,-0.5899,55.814037,37.50047,210.7,NaN,,15.3,,0 / 1,,2604,2021-05-01 16:24:11:635
-0.009721,-0.013398,9.740475,3.43E-4,-3.0E-6,9.806652,-6.81E-4,1.3E-4,0.002113,6.24,-18.66,-23.64,198.139,0.1631,-0.5899,55.814037,37.50047,210.7,NaN,,15.3,,0 / 1,,2615,2021-05-01 16:24:11:646
0.007274,-0.009009,9.781055,-7.8E-4,2.1E-5,9.806649,-7.0E-5,0.003184,-9.41E-4,5.88,-19.86,-23.22,197.2636,0.1637,-0.588,55.814037,37.50047,210.7,NaN,,15.3,,0 / 1,,2624,2021-05-01 16:24:11:655
0.001923,-0.024794,9.761851,-7.8E-4,2.1E-5,9.806649,5.41E-4,0.002573,2.8E-4,5.88,-19.86,-23.22,197.2636,0.1637,-0.588,55.814037,37.50047,210.7,NaN,,15.3,,0 / 1,,2634,2021-05-01 16:24:11:665
0.001923,-0.024794,9.761851,-7.21E-4,2.71E-4,9.80665,0.001152,-0.001092,8.91E-4,5.4,-19.68,-22.5,197.2636,0.1637,-0.588,55.814037,37.50047,210.7,NaN,,15.3,,0 / 1,,2644,2021-05-01 16:24:11:675
0.003938,-0.002919,9.783508,-0.001082,2.74E-4,9.80665,0.001152,0.001351,-3.3E-4,5.7,-19.74,-22.5,197.2636,0.1637,-0.588,55.814037,37.50047,210.7,NaN,,15.3,,0 / 1,,2654,2021-05-01 16:24:11:685
0.013661,0.004081,9.785857,-0.001082,2.74E-4,9.80665,-6.81E-4,1.3E-4,-9.41E-4,5.7,-19.74,-22.5,197.2636,0.1637,-0.588,55.814037,37.50047,210.7,NaN,,15.3,,0 / 1,,2664,2021-05-01 16:24:11:695
0.005355,-0.018345,9.785813,3.1E-5,-1.28E-4,9.806651,-7.0E-5,1.3E-4,-3.3E-4,5.76,-19.62,-22.38,197.2458,0.1634,-0.5945,55.814037,37.50047,210.7,NaN,,15.3,,0 / 1,,2675,2021-05-01 16:24:11:706
0.005355,-0.018345,9.785813,3.1E-5,-1.28E-4,9.806651,-6.81E-4,0.001962,2.8E-4,5.76,-19.62,-22.38,197.2458,0.1634,-0.5945,55.814037,37.50047,210.7,NaN,,15.3,,0 / 1,,2684,2021-05-01 16:24:11:715
0.012881,-0.01816,9.780957,1.02E-4,0.0,9.80665,-6.81E-4,0.001962,2.8E-4,5.82,-19.56,-22.86,197.2458,0.1634,-0.5945,55.814037,37.50047,210.7,NaN,,15.3,,0 / 1,,2695,2021-05-01 16:24:11:726
0.009527,-0.004569,9.776278,1.02E-4,0.0,9.80665,-7.0E-5,7.4E-4,-9.41E-4,5.82,-19.56,-22.86,197.2458,0.1634,-0.5945,55.814037,37.50047,210.7,NaN,,15.3,,0 / 1,,2704,2021-05-01 16:24:11:735
0.009527,-0.004569,9.776278,8.81E-4,-1.96E-4,9.80665,0.001152,0.001962,-9.41E-4,5.64,-19.44,-22.74,198.1178,0.1636,-0.5939,55.814037,37.50047,210.7,NaN,,15.3,,0 / 1,,2714,2021-05-01 16:24:11:745
-0.004901,-0.014933,9.699723,8.81E-4,-1.96E-4,9.80665,0.001763,0.001962,8.91E-4,5.64,-19.44,-22.74,198.1178,0.1636,-0.5939,55.814037,37.50047,210.7,NaN,,15.3,,0 / 1,,2724,2021-05-01 16:24:11:755
0.019733,0.012089,9.761917,0.001482,-5.46E-4,9.80665,-7.0E-5,1.3E-4,0.001502,6.42,-19.14,-23.34,198.1178,0.1636,-0.5939,55.814037,37.50047,210.7,NaN,,15.3,,0 / 1,,2736,2021-05-01 16:24:11:767
0.005332,-0.015891,9.742724,0.001482,-5.46E-4,9.80665,-7.0E-5,0.003184,2.8E-4,6.42,-19.14,-23.34,198.1178,0.1636,-0.5939,55.814037,37.50047,210.7,NaN,,15.3,,0 / 1,,2744,2021-05-01 16:24:11:775
0.003509,0.004735,9.776373,5.66E-4,-5.76E-4,9.80665,-7.0E-5,1.3E-4,-3.3E-4,6.72,-18.6,-22.86,200.7794,0.1632,-0.5847,55.814037,37.50047,210.7,NaN,,15.3,,0 / 1,,2756,2021-05-01 16:24:11:787
0.003509,0.004735,9.776373,5.66E-4,-5.76E-4,9.80665,0.001152,0.001962,0.002113,6.72,-18.6,-22.86,200.7794,0.1632,-0.5847,55.814037,37.50047,210.7,NaN,,15.3,,0 / 1,,2765,2021-05-01 16:24:11:796
7.0E-5,-0.004189,9.771557,9.53E-4,-4.45E-4,9.80665,5.41E-4,-0.001092,-0.002774,5.64,-18.72,-22.08,200.7794,0.1632,-0.5847,55.814037,37.50047,210.7,NaN,,15.3,,0 / 1,,2775,2021-05-01 16:24:11:806
0.006683,-0.006662,9.759513,9.53E-4,-4.45E-4,9.80665,0.004206,7.4E-4,-3.3E-4,5.64,-18.72,-22.08,200.7794,0.1632,-0.5847,55.814037,37.50047,210.7,NaN,,15.3,,0 / 1,,2784,2021-05-01 16:24:11:815
0.011558,0.005397,9.735582,-6.96E-4,-8.03E-4,9.80665,0.004206,7.4E-4,-3.3E-4,5.16,-19.08,-22.44,195.3197,0.1628,-0.5786,55.814037,37.50047,210.7,NaN,,15.3,,0 / 1,,2794,2021-05-01 16:24:11:825
-0.010907,0.004033,9.75972,-6.96E-4,-8.03E-4,9.80665,0.003596,7.4E-4,0.004556,5.16,-19.08,-22.44,195.3197,0.1628,-0.5786,55.814037,37.50047,210.7,NaN,,15.3,,0 / 1,,2805,2021-05-01 16:24:11:836
-0.010907,0.004033,9.75972,-0.001212,-0.0013,9.80665,5.41E-4,7.4E-4,0.002113,6.12,-19.14,-23.16,195.3197,0.1628,-0.5786,55.814037,37.50047,210.7,NaN,,15.3,,0 / 1,,2814,2021-05-01 16:24:11:845
0.010891,-0.016896,9.780961,-0.001212,-0.0013,9.80665,0.001763,0.005016,0.002724,6.12,-19.14,-23.16,195.3197,0.1628,-0.5786,55.814037,37.50047,210.7,NaN,,15.3,,0 / 1,,2824,2021-05-01 16:24:11:855
-0.0027,-0.003918,9.757212,4.43E-4,-3.86E-4,9.806652,-7.0E-5,0.002573,8.91E-4,6.66,-19.56,-23.28,199.8285,0.1536,-0.5834,55.814037,37.50047,210.7,NaN,,15.3,,0 / 1,,2835,2021-05-01 16:24:11:866
-0.010373,-0.003663,9.745307,4.43E-4,-3.86E-4,9.806652,5.41E-4,0.001351,0.001502,6.66,-19.56,-23.28,199.8285,0.1536,-0.5834,55.814037,37.50047,210.7,NaN,,15.3,,0 / 1,,2844,2021-05-01 16:24:11:875
-0.008315,0.008239,9.774094,3.84E-4,-6.73E-4,9.80665,0.001152,7.4E-4,2.8E-4,6.18,-19.44,-23.28,199.8285,0.1536,-0.5834,55.814037,37.50047,210.7,NaN,,15.3,,0 / 1,,2854,2021-05-01 16:24:11:885
-0.008315,0.008239,9.774094,3.84E-4,-6.73E-4,9.80665,0.001152,0.001351,8.91E-4,6.18,-19.44,-23.28,199.8285,0.1536,-0.5834,55.814037,37.50047,210.7,NaN,,15.3,,0 / 1,,2865,2021-05-01 16:24:11:896
-0.011502,0.008738,9.79327,-2.5E-4,-7.69E-4,9.806651,0.001763,-4.81E-4,2.8E-4,5.34,-18.66,-22.98,195.351,0.1506,-0.58,55.814037,37.50047,210.7,NaN,,15.3,,0 / 1,,2874,2021-05-01 16:24:11:905
-0.002207,-0.001158,9.754823,-2.5E-4,-7.69E-4,9.806651,-6.81E-4,-0.001092,8.91E-4,5.34,-18.66,-22.98,195.351,0.1506,-0.58,55.814037,37.50047,210.7,NaN,,15.3,,0 / 1,,2884,2021-05-01 16:24:11:915
0.004225,0.004551,9.745217,-1.71E-4,-0.001083,9.80665,-7.0E-5,-4.81E-4,8.91E-4,5.34,-18.84,-22.74,195.351,0.1506,-0.58,55.814037,37.50047,210.7,NaN,,15.3,,0 / 1,,2894,2021-05-01 16:24:11:925
0.005397,-7.75E-4,9.759545,-1.71E-4,-0.001083,9.80665,0.001152,-0.001703,-3.3E-4,5.34,-18.84,-22.74,195.351,0.1506,-0.58,55.814037,37.50047,210.7,NaN,,15.3,,0 / 1,,2905,2021-05-01 16:24:11:936
0.005397,-7.75E-4,9.759545,7.6E-5,-1.97E-4,9.806652,0.001152,-0.001703,-3.3E-4,6.0,-19.74,-22.98,197.2608,0.1442,-0.5792,55.814037,37.50047,210.7,NaN,,15.3,,0 / 1,,2915,2021-05-01 16:24:11:946
0.00973,0.013901,9.747612,7.6E-5,-1.97E-4,9.806652,0.002374,0.001962,-3.3E-4,6.0,-19.74,-22.98,197.2608,0.1442,-0.5792,55.814037,37.50047,210.7,NaN,,15.3,,0 / 1,,2924,2021-05-01 16:24:11:955
-0.012129,-0.009507,9.790779,2.39E-4,-7.98E-4,9.806652,-6.81E-4,0.001962,8.91E-4,5.94,-19.26,-23.52,197.2608,0.1442,-0.5792,55.814037,37.50047,210.7,NaN,,15.3,,0 / 1,,2934,2021-05-01 16:24:11:965
-0.013967,0.001124,9.778881,2.39E-4,-7.98E-4,9.806652,0.001152,1.3E-4,0.002113,5.94,-19.26,-23.52,197.2608,0.1442,-0.5792,55.814037,37.50047,210.7,NaN,,15.3,,0 / 1,,2944,2021-05-01 16:24:11:975
0.018537,0.011746,9.716389,4.06E-4,-5.64E-4,9.80665,0.001763,-0.003536,-0.002163,5.52,-18.9,-23.4,198.1072,0.1402,-0.5765,55.814037,37.50047,210.7,NaN,,15.3,,0 / 1,,2954,2021-05-01 16:24:11:985
0.018537,0.011746,9.716389,4.06E-4,-5.64E-4,9.80665,-7.0E-5,0.00746,0.003946,5.52,-18.9,-23.4,198.1072,0.1402,-0.5765,55.814037,37.50047,210.7,NaN,,15.3,,0 / 1,,2964,2021-05-01 16:24:11:995
0.001822,0.007159,9.706934,3.13E-4,-7.81E-4,9.806649,-7.0E-5,-0.003536,0.001502,5.52,-19.68,-22.98,198.1072,0.1402,-0.5765,55.814037,37.50047,210.7,NaN,,15.3,,0 / 1,,2974,2021-05-01 16:24:12:005
0.019812,-0.016485,9.756928,3.13E-4,-7.81E-4,9.806649,0.002985,1.3E-4,2.8E-4,5.52,-19.68,-22.98,198.1072,0.1402,-0.5765,55.814037,37.50047,210.7,NaN,,15.3,,0 / 1,,2984,2021-05-01 16:24:12:015
0.019812,-0.016485,9.756928,-6.37E-4,7.72E-4,9.80665,0.001152,-0.001092,0.003946,5.4,-19.8,-23.22,194.6163,0.1364,-0.5734,55.814037,37.50047,210.7,NaN,,15.3,,0 / 1,,2995,2021-05-01 16:24:12:026
0.014275,0.009381,9.757102,-6.37E-4,7.72E-4,9.80665,0.001152,0.003795,2.8E-4,5.4,-19.8,-23.22,194.6163,0.1364,-0.5734,55.814037,37.50047,210.7,NaN,,15.3,,0 / 1,,3004,2021-05-01 16:24:12:035
-0.002364,0.001271,9.788341,-8.6E-4,0.001513,9.80665,0.001152,0.003795,2.8E-4,5.58,-20.04,-23.04,194.6163,0.1364,-0.5734,55.814037,37.50047,210.7,NaN,,15.3,,0 / 1,,3014,2021-05-01 16:24:12:045
-0.003746,-0.00327,9.769176,-8.6E-4,0.001513,9.80665,-0.001291,0.001962,-0.002774,5.58,-20.04,-23.04,194.6163,0.1364,-0.5734,55.814037,37.50047,210.7,NaN,,15.3,,0 / 1,,3024,2021-05-01 16:24:12:055
-0.003746,-0.00327,9.769176,3.53E-4,3.99E-4,9.80665,0.001152,-4.81E-4,0.002113,6.0,-20.34,-22.68,197.2622,0.1437,-0.5805,55.814037,37.50047,210.7,NaN,,15.3,,0 / 1,,3035,2021-05-01 16:24:12:066
-0.007551,-0.003296,9.783589,3.53E-4,3.99E-4,9.80665,5.41E-4,-4.81E-4,-9.41E-4,6.0,-20.34,-22.68,197.2622,0.1437,-0.5805,55.814037,37.50047,210.7,NaN,,15.3,,0 / 1,,3044,2021-05-01 16:24:12:075
-0.00738,0.006793,9.740544,-1.17E-4,8.08E-4,9.806651,-0.002513,7.4E-4,-9.41E-4,6.24,-19.92,-22.92,197.2622,0.1437,-0.5805,55.814037,37.50047,210.7,NaN,,15.3,,0 / 1,,3054,2021-05-01 16:24:12:085
0.01863,0.001175,9.757043,-1.17E-4,8.08E-4,9.806651,0.001152,-0.001092,0.002724,6.24,-19.92,-22.92,197.2622,0.1437,-0.5805,55.814037,37.50047,210.7,NaN,,15.3,,0 / 1,,3065,2021-05-01 16:24:12:096
0.01863,0.001175,9.757043,-2.18E-4,7.97E-4,9.806651,5.41E-4,1.3E-4,2.8E-4,6.06,-19.92,-23.28,197.263,0.148,-0.5825,55.814037,37.50047,210.7,NaN,,15.3,,0 / 1,,3074,2021-05-01 16:24:12:105
-0.004645,0.020026,9.81243,-2.18E-4,7.97E-4,9.806651,5.41E-4,1.3E-4,2.8E-4,6.06,-19.92,-23.28,197.263,0.148,-0.5825,55.814037,37.50047,210.7,NaN,,15.3,,0 / 1,,3084,2021-05-01 16:24:12:115
-9.02E-4,0.01164,9.702209,-8.37E-4,0.001343,9.80665,0.001763,0.005016,8.91E-4,6.0,-19.5,-23.16,197.263,0.148,-0.5825,55.814037,37.50047,210.7,NaN,,15.3,,0 / 1,,3094,2021-05-01 16:24:12:125
0.010894,-0.002333,9.804985,-8.37E-4,0.001343,9.80665,-0.003735,0.002573,8.91E-4,6.0,-19.5,-23.16,197.263,0.148,-0.5825,55.814037,37.50047,210.7,NaN,,15.3,,0 / 1,,3104,2021-05-01 16:24:12:135
0.010894,-0.002333,9.804985,2.53E-4,0.001757,9.806651,0.004206,-0.004757,8.91E-4,6.24,-18.9,-23.58,198.1419,0.1541,-0.5895,55.814037,37.50047,210.7,NaN,,15.3,,0 / 1,,3115,2021-05-01 16:24:12:146
-0.0046,-0.005961,9.762018,2.53E-4,0.001757,9.806651,0.004206,-4.81E-4,8.91E-4,6.24,-18.9,-23.58,198.1419,0.1541,-0.5895,55.814037,37.50047,210.7,NaN,,15.3,,0 / 1,,3124,2021-05-01 16:24:12:155
-0.0046,-0.005961,9.762018,-9.8E-5,0.0014,9.806651,0.002374,0.003184,0.003335,6.0,-19.02,-23.58,198.1419,0.1541,-0.5895,55.814037,37.50047,210.7,NaN,,15.3,,0 / 1,,3134,2021-05-01 16:24:12:165
0.003494,-0.018596,9.728352,-9.8E-5,0.0014,9.806651,-0.002513,0.003795,-3.3E-4,6.0,-19.02,-23.58,198.1419,0.1541,-0.5895,55.814037,37.50047,210.7,NaN,,15.3,,0 / 1,,3145,2021-05-01 16:24:12:176
0.008133,0.001171,9.740405,6.38E-4,1.27E-4,9.806652,-6.81E-4,0.004406,2.8E-4,5.7,-19.32,-22.68,198.117,0.1617,-0.5926,55.814037,37.50047,210.7,NaN,,15.3,,0 / 1,,3154,2021-05-01 16:24:12:185
0.006606,-0.006122,9.819391,6.38E-4,1.27E-4,9.806652,0.002374,0.001351,2.8E-4,5.7,-19.32,-22.68,198.117,0.1617,-0.5926,55.814037,37.50047,210.7,NaN,,15.3,,0 / 1,,3164,2021-05-01 16:24:12:195
0.006606,-0.006122,9.819391,9.9E-4,1.62E-4,9.806651,5.41E-4,7.4E-4,0.001502,6.06,-18.96,-23.1,198.117,0.1617,-0.5926,55.814037,37.50047,210.7,NaN,,15.3,,0 / 1,,3174,2021-05-01 16:24:12:205
0.022001,0.004106,9.769031,9.9E-4,1.62E-4,9.806651,5.41E-4,7.4E-4,0.001502,6.06,-18.96,-23.1,198.117,0.1617,-0.5926,55.814037,37.50047,210.7,NaN,,15.3,,0 / 1,,3184,2021-05-01 16:24:12:215
0.00517,0.001557,9.773948,9.27E-4,3.17E-4,9.806651,0.002374,0.00746,0.003335,5.88,-18.72,-23.22,198.1104,0.1644,-0.5874,55.814037,37.50047,210.7,NaN,,15.3,,0 / 1,,3195,2021-05-01 16:24:12:226
-3.37E-4,9.11E-4,9.750048,9.27E-4,3.17E-4,9.806651,0.001152,1.3E-4,-9.41E-4,5.88,-18.72,-23.22,198.1104,0.1644,-0.5874,55.814037,37.50047,210.7,NaN,,15.3,,0 / 1,,3204,2021-05-01 16:24:12:235
-3.37E-4,9.11E-4,9.750048,0.001093,3.37E-4,9.80665,0.001152,0.001962,0.002113,5.34,-19.32,-23.04,198.1104,0.1644,-0.5874,55.814037,37.50047,210.7,NaN,,15.3,,0 / 1,,3214,2021-05-01 16:24:12:245
0.002894,0.009844,9.778805,0.001093,3.37E-4,9.80665,0.001763,0.002573,-9.41E-4,5.34,-19.32,-23.04,198.1104,0.1644,-0.5874,55.814037,37.50047,210.7,NaN,,15.3,,0 / 1,,3224,2021-05-01 16:24:12:255
-0.008793,-1.46E-4,9.774056,0.001241,1.34E-4,9.80665,-0.001291,-0.001092,-0.002163,5.16,-19.98,-23.04,194.6166,0.1682,-0.5819,55.814037,37.50047,210.7,NaN,,15.3,,0 / 1,,3235,2021-05-01 16:24:12:266
-7.91E-4,0.010023,9.812347,0.001231,7.6E-5,9.80665,0.002374,1.3E-4,-3.3E-4,5.7,-19.86,-22.92,194.6166,0.1682,-0.5819,55.814037,37.50047,210.7,NaN,,15.3,,0 / 1,,3245,2021-05-01 16:24:12:276
-0.014591,-0.003597,9.778878,0.001231,7.6E-5,9.80665,0.001763,0.003184,0.002724,5.7,-19.86,-22.92,194.6166,0.1682,-0.5819,55.814037,37.50047,210.7,NaN,,15.3,,0 / 1,,3254,2021-05-01 16:24:12:285
-0.014591,-0.003597,9.778878,8.84E-4,5.78E-4,9.806651,0.001152,7.4E-4,8.91E-4,6.24,-19.5,-23.16,194.6166,0.1682,-0.5819,55.814037,37.50047,210.7,NaN,,15.3,,0 / 1,,3264,2021-05-01 16:24:12:295
0.015025,0.011421,9.776313,2.21E-4,-8.5E-5,9.806651,0.001152,0.001351,2.8E-4,6.54,-19.38,-22.86,200.7683,0.1728,-0.5778,55.814037,37.50047,210.7,NaN,,15.3,,0 / 1,,3274,2021-05-01 16:24:12:305
0.009911,-0.001995,9.773876,2.21E-4,-8.5E-5,9.806651,0.001152,0.003795,0.002113,6.54,-19.38,-22.86,200.7683,0.1728,-0.5778,55.814037,37.50047,210.7,NaN,,15.3,,0 / 1,,3284,2021-05-01 16:24:12:315
-2.61E-4,-0.008358,9.766737,-5.2E-5,9.9E-5,9.80665,0.001763,-0.002314,-3.3E-4,5.82,-19.26,-22.98,200.7683,0.1728,-0.5778,55.814037,37.50047,210.7,NaN,,15.3,,0 / 1,,3294,2021-05-01 16:24:12:325
-2.61E-4,-0.008358,9.766737,-5.2E-5,9.9E-5,9.80665,-0.001291,0.003184,-3.3E-4,5.82,-19.26,-22.98,200.7683,0.1728,-0.5778,55.814037,37.50047,210.7,NaN,,15.3,,0 / 1,,3305,2021-05-01 16:24:12:336
-0.01012,0.004853,9.810005,0.001234,-6.48E-4,9.806649,5.41E-4,0.005016,-3.3E-4,5.82,-19.44,-23.52,198.1221,0.1732,-0.5783,55.814037,37.50047,210.7,NaN,,15.3,,0 / 1,,3315,2021-05-01 16:24:12:346
-0.01858,0.002637,9.793304,0.001234,-6.48E-4,9.806649,0.001152,1.3E-4,8.91E-4,5.82,-19.44,-23.52,198.1221,0.1732,-0.5783,55.814037,37.50047,210.7,NaN,,15.3,,0 / 1,,3324,2021-05-01 16:24:12:355
-0.01858,0.002637,9.793304,0.001269,-0.001486,9.80665,0.002374,0.001351,8.91E-4,5.7,-19.32,-23.76,198.1221,0.1732,-0.5783,55.814037,37.50047,210.7,NaN,,15.3,,0 / 1,,3334,2021-05-01 16:24:12:365
0.0086,0.00133,9.783484,0.001269,-0.001486,9.80665,5.41E-4,0.003184,-0.002163,5.7,-19.32,-23.76,198.1221,0.1732,-0.5783,55.814037,37.50047,210.7,NaN,,15.3,,0 / 1,,3344,2021-05-01 16:24:12:375
-0.001018,0.001875,9.809909,-3.41E-4,-6.44E-4,9.80665,5.41E-4,7.4E-4,-9.41E-4,6.06,-19.38,-22.86,198.0889,0.1673,-0.5685,55.814037,37.50047,210.7,NaN,,15.3,,0 / 1,,3355,2021-05-01 16:24:12:386
9.89E-4,-0.017905,9.824121,-3.41E-4,-6.44E-4,9.80665,0.001763,0.002573,8.91E-4,6.06,-19.38,-22.86,198.0889,0.1673,-0.5685,55.814037,37.50047,210.7,NaN,,15.3,,0 / 1,,3364,2021-05-01 16:24:12:395
-0.005351,0.019722,9.72862,-3.0E-4,-0.001137,9.80665,-7.0E-5,0.001962,2.8E-4,6.24,-19.86,-22.62,198.0889,0.1673,-0.5685,55.814037,37.50047,210.7,NaN,,15.3,,0 / 1,,3375,2021-05-01 16:24:12:406
-0.005351,0.019722,9.72862,-3.0E-4,-0.001137,9.80665,-7.0E-5,0.001962,2.8E-4,6.24,-19.86,-22.62,198.0889,0.1673,-0.5685,55.814037,37.50047,210.7,NaN,,15.3,,0 / 1,,3384,2021-05-01 16:24:12:415
0.014171,0.015659,9.795472,-3.43E-4,-4.43E-4,9.80665,-7.0E-5,0.001962,0.002113,5.94,-20.04,-22.68,197.244,0.1604,-0.5681,55.814037,37.50047,210.7,NaN,,15.3,,0 / 1,,3394,2021-05-01 16:24:12:425
4.62E-4,-0.011327,9.800219,-3.43E-4,-4.43E-4,9.80665,0.002985,0.001351,-0.001552,5.94,-20.04,-22.68,197.244,0.1604,-0.5681,55.814037,37.50047,210.7,NaN,,15.3,,0 / 1,,3405,2021-05-01 16:24:12:436
0.005795,-0.003025,9.824163,-0.002122,-0.001785,9.806649,5.41E-4,0.001962,-3.3E-4,5.58,-20.04,-22.5,197.244,0.1604,-0.5681,55.814037,37.50047,210.7,NaN,,15.3,,0 / 1,,3414,2021-05-01 16:24:12:445
-0.002054,0.022149,9.764513,-0.002501,-0.00212,9.806649,5.41E-4,0.001351,-3.3E-4,5.64,-19.92,-22.74,197.244,0.1604,-0.5681,55.814037,37.50047,210.7,NaN,,15.3,,0 / 1,,3424,2021-05-01 16:24:12:455
-0.002054,0.022149,9.764513,-0.002501,-0.00212,9.806649,0.001152,0.001351,0.002724,5.64,-19.92,-22.74,197.244,0.1604,-0.5681,55.814037,37.50047,210.7,NaN,,15.3,,0 / 1,,3434,2021-05-01 16:24:12:465
-0.018128,-0.012924,9.747694,-3.36E-4,-4.62E-4,9.806652,-0.001291,7.4E-4,-9.41E-4,5.82,-19.44,-23.04,198.1078,0.1443,-0.5784,55.814037,37.50047,210.7,NaN,,15.3,,0 / 1,,3444,2021-05-01 16:24:12:475
0.004823,-0.002279,9.773906,-7.67E-4,-9.83E-4,9.806652,5.41E-4,7.4E-4,0.001502,5.88,-19.02,-23.34,198.1078,0.1443,-0.5784,55.814037,37.50047,210.7,NaN,,15.3,,0 / 1,,3455,2021-05-01 16:24:12:486
0.016029,0.01674,9.769123,-7.67E-4,-9.83E-4,9.806652,0.001152,1.3E-4,0.003946,5.88,-19.02,-23.34,198.1078,0.1443,-0.5784,55.814037,37.50047,210.7,NaN,,15.3,,0 / 1,,3464,2021-05-01 16:24:12:495
-0.005298,-0.001407,9.742871,-7.74E-4,-0.001667,9.806652,5.41E-4,-4.81E-4,0.003335,5.76,-19.56,-23.34,198.1078,0.1443,-0.5784,55.814037,37.50047,210.7,NaN,,15.3,,0 / 1,,3474,2021-05-01 16:24:12:505
-0.005298,-0.001407,9.742871,-7.74E-4,-0.001667,9.806652,-0.001291,7.4E-4,-9.41E-4,5.76,-19.56,-23.34,198.1078,0.1443,-0.5784,55.814037,37.50047,210.7,NaN,,15.3,,0 / 1,,3484,2021-05-01 16:24:12:515
0.007504,0.007009,9.740411,-6.4E-5,-9.13E-4,9.806649,-6.81E-4,0.002573,0.003335,6.18,-19.26,-23.28,198.113,0.1336,-0.5797,55.814037,37.50047,210.7,NaN,,15.3,,0 / 1,,3494,2021-05-01 16:24:12:525
0.00551,0.006979,9.769156,-6.4E-5,-9.13E-4,9.806649,-0.001902,-4.81E-4,0.001502,6.18,-19.26,-23.28,198.113,0.1336,-0.5797,55.814037,37.50047,210.7,NaN,,15.3,,0 / 1,,3504,2021-05-01 16:24:12:535
-0.002763,-0.002911,9.769176,1.05E-4,-0.00146,9.806649,5.41E-4,0.003184,0.002113,6.06,-19.38,-22.8,198.113,0.1336,-0.5797,55.814037,37.50047,210.7,NaN,,15.3,,0 / 1,,3514,2021-05-01 16:24:12:545
0.013953,0.016766,9.788288,1.05E-4,-0.00146,9.806649,5.41E-4,-0.001092,-3.3E-4,6.06,-19.38,-22.8,198.113,0.1336,-0.5797,55.814037,37.50047,210.7,NaN,,15.3,,0 / 1,,3524,2021-05-01 16:24:12:555
0.013953,0.016766,9.788288,-2.92E-4,-2.63E-4,9.80665,5.41E-4,-0.001092,-3.3E-4,5.46,-19.5,-22.98,195.3548,0.1257,-0.5765,55.814037,37.50047,210.7,NaN,,15.3,,0 / 1,,3534,2021-05-01 16:24:12:565
0.019112,0.032065,9.793082,-2.92E-4,-2.63E-4,9.80665,-6.81E-4,-4.81E-4,-9.41E-4,5.46,-19.5,-22.98,195.3548,0.1257,-0.5765,55.814037,37.50047,210.7,NaN,,15.3,,0 / 1,,3545,2021-05-01 16:24:12:576
0.002842,-0.0081,9.7667,3.75E-4,3.86E-4,9.80665,-0.001291,0.003184,2.8E-4,5.7,-19.08,-23.04,195.3548,0.1257,-0.5765,55.814037,37.50047,210.7,NaN,,15.3,,0 / 1,,3554,2021-05-01 16:24:12:585
0.002842,-0.0081,9.7667,3.75E-4,3.86E-4,9.80665,0.001152,1.3E-4,-9.41E-4,5.7,-19.08,-23.04,195.3548,0.1257,-0.5765,55.814037,37.50047,210.7,NaN,,15.3,,0 / 1,,3565,2021-05-01 16:24:12:596
0.005591,0.015458,9.757226,1.5E-5,0.001018,9.806651,0.001763,-4.81E-4,-0.001552,6.66,-19.2,-23.34,200.7829,0.1284,-0.5749,55.814037,37.50047,210.7,NaN,,15.3,,0 / 1,,3574,2021-05-01 16:24:12:605
-0.018031,-0.01905,9.730895,1.5E-5,0.001018,9.806651,0.003596,7.4E-4,-3.3E-4,6.66,-19.2,-23.34,200.7829,0.1284,-0.5749,55.814037,37.50047,210.7,NaN,,15.3,,0 / 1,,3584,2021-05-01 16:24:12:615
0.005794,0.028065,9.807578,7.34E-4,0.001787,9.806651,0.001152,0.003184,-9.41E-4,6.3,-19.44,-23.58,200.7829,0.1284,-0.5749,55.814037,37.50047,210.7,NaN,,15.3,,0 / 1,,3594,2021-05-01 16:24:12:625
0.005794,0.028065,9.807578,7.34E-4,0.001787,9.806651,-6.81E-4,0.003184,0.002113,6.3,-19.44,-23.58,200.7829,0.1284,-0.5749,55.814037,37.50047,210.7,NaN,,15.3,,0 / 1,,3604,2021-05-01 16:24:12:635
0.004084,0.011196,9.845807,7.18E-4,5.81E-4,9.806652,-6.81E-4,0.003795,-0.002163,5.64,-19.98,-23.22,197.2574,0.1397,-0.5746,55.814037,37.50047,210.7,NaN,,15.3,,0 / 1,,3615,2021-05-01 16:24:12:646
0.012721,0.00866,9.788251,2.27E-4,3.72E-4,9.806651,-6.81E-4,0.003795,-0.002163,5.82,-19.98,-23.22,197.2574,0.1397,-0.5746,55.814037,37.50047,210.7,NaN,,15.3,,0 / 1,,3624,2021-05-01 16:24:12:655
0.012721,0.00866,9.788251,2.27E-4,3.72E-4,9.806651,0.001152,0.005016,0.002724,5.82,-19.98,-23.22,197.2574,0.1397,-0.5746,55.814037,37.50047,210.7,NaN,,15.3,,0 / 1,,3634,2021-05-01 16:24:12:665
0.001854,-0.00308,9.817018,0.001972,0.001301,9.806651,-0.001902,0.008071,2.8E-4,5.52,-19.92,-22.56,197.2574,0.1397,-0.5746,55.814037,37.50047,210.7,NaN,,15.3,,0 / 1,,3644,2021-05-01 16:24:12:675
-0.016649,0.025158,9.846065,0.001972,0.001301,9.806651,-0.001291,0.006849,2.8E-4,5.52,-19.92,-22.56,197.2574,0.1397,-0.5746,55.814037,37.50047,210.7,NaN,,15.3,,0 / 1,,3654,2021-05-01 16:24:12:685
-0.016649,0.025158,9.846065,5.09E-4,3.86E-4,9.80665,-0.001291,0.00746,8.91E-4,5.28,-19.56,-23.04,194.6044,0.1504,-0.5659,55.814037,37.50047,210.7,NaN,,15.3,,0 / 1,,3665,2021-05-01 16:24:12:696
-0.01792,0.01273,9.798108,8.0E-4,8.9E-4,9.80665,-0.001902,0.003184,-9.41E-4,5.22,-19.14,-23.22,194.6044,0.1504,-0.5659,55.814037,37.50047,210.7,NaN,,15.3,,0 / 1,,3674,2021-05-01 16:24:12:705
-0.009315,0.0153,9.848327,8.0E-4,8.9E-4,9.80665,-0.001902,0.003184,-9.41E-4,5.22,-19.14,-23.22,194.6044,0.1504,-0.5659,55.814037,37.50047,210.7,NaN,,15.3,,0 / 1,,3684,2021-05-01 16:24:12:715
-0.027111,-0.024605,9.850678,-0.00106,0.001846,9.80665,0.003596,-0.002925,0.002724,4.92,-18.9,-22.38,194.6044,0.1504,-0.5659,55.814037,37.50047,210.7,NaN,,15.3,,0 / 1,,3694,2021-05-01 16:24:12:725
-0.027111,-0.024605,9.850678,-0.00106,0.001846,9.80665,-6.81E-4,0.001351,-9.41E-4,4.92,-18.9,-22.38,194.6044,0.1504,-0.5659,55.814037,37.50047,210.7,NaN,,15.3,,0 / 1,,3705,2021-05-01 16:24:12:736
-0.021288,0.01127,9.747848,-8.06E-4,0.001296,9.80665,-0.001902,-0.002314,2.8E-4,4.98,-19.08,-23.16,195.3424,0.1593,-0.5746,55.814037,37.50047,210.7,NaN,,15.3,,0 / 1,,3715,2021-05-01 16:24:12:746
-0.009717,-0.008164,9.785975,-9.8E-4,0.00153,9.80665,0.001763,0.002573,-9.41E-4,5.16,-19.44,-22.8,195.3424,0.1593,-0.5746,55.814037,37.50047,210.7,NaN,,15.3,,0 / 1,,3724,2021-05-01 16:24:12:755
-0.001036,-0.017683,9.678099,-9.8E-4,0.00153,9.80665,0.001763,0.006238,-0.002163,5.16,-19.44,-22.8,195.3424,0.1593,-0.5746,55.814037,37.50047,210.7,NaN,,15.3,,0 / 1,,3735,2021-05-01 16:24:12:766
-0.001036,-0.017683,9.678099,-0.001014,0.001557,9.806651,-0.001902,0.003795,0.003335,5.34,-19.56,-22.8,195.3424,0.1593,-0.5746,55.814037,37.50047,210.7,NaN,,15.3,,0 / 1,,3745,2021-05-01 16:24:12:776
0.006499,-0.002626,9.766704,-0.001014,0.001557,9.806651,0.004206,-0.005979,0.002113,5.34,-19.56,-22.8,195.3424,0.1593,-0.5746,55.814037,37.50047,210.7,NaN,,15.3,,0 / 1,,3754,2021-05-01 16:24:12:785
0.006323,8.89E-4,9.745193,-0.001968,7.87E-4,9.806649,0.004206,-0.005979,0.002113,5.76,-19.02,-23.04,198.1046,0.1665,-0.5827,55.814037,37.50047,210.7,NaN,,15.3,,0 / 1,,3764,2021-05-01 16:24:12:795
-0.010832,-0.001411,9.860261,-0.001968,7.87E-4,9.806649,-0.001902,0.006849,8.91E-4,5.76,-19.02,-23.04,198.1046,0.1665,-0.5827,55.814037,37.50047,210.7,NaN,,15.3,,0 / 1,,3775,2021-05-01 16:24:12:806
-0.010832,-0.001411,9.860261,-6.73E-4,6.3E-4,9.80665,5.41E-4,-0.001703,0.002113,5.34,-19.5,-22.26,198.1046,0.1665,-0.5827,55.814037,37.50047,210.7,NaN,,15.3,,0 / 1,,3784,2021-05-01 16:24:12:815
-0.002243,-0.008803,9.711689,-6.73E-4,6.3E-4,9.80665,-7.0E-5,-0.004757,-9.41E-4,5.34,-19.5,-22.26,198.1046,0.1665,-0.5827,55.814037,37.50047,210.7,NaN,,15.3,,0 / 2,,3794,2021-05-01 16:24:12:825
0.01433,-0.011565,9.816892,4.18E-4,5.0E-4,9.806651,0.001763,-0.005368,2.8E-4,5.04,-19.38,-22.26,195.3276,0.1688,-0.5876,55.814037,37.50047,210.7,NaN,,15.3,,0 / 2,,3805,2021-05-01 16:24:12:836
-0.020004,-0.012261,9.874666,7.5E-4,3.56E-4,9.806651,-7.0E-5,-0.005368,2.8E-4,5.7,-19.14,-22.62,195.3276,0.1688,-0.5876,55.814037,37.50047,210.7,NaN,,15.3,,0 / 2,,3815,2021-05-01 16:24:12:846
-0.003339,-0.014302,9.860137,7.5E-4,3.56E-4,9.806651,0.002374,-0.001092,2.8E-4,5.7,-19.14,-22.62,195.3276,0.1688,-0.5876,55.814037,37.50047,210.7,NaN,,15.3,,0 / 2,,3824,2021-05-01 16:24:12:855
-0.003339,-0.014302,9.860137,0.001006,8.46E-4,9.806651,0.003596,-0.001092,0.003335,6.0,-18.78,-23.58,195.3276,0.1688,-0.5876,55.814037,37.50047,210.7,NaN,,15.3,,0 / 2,,3834,2021-05-01 16:24:12:865
-0.015504,0.01656,9.788586,0.001006,8.46E-4,9.806651,0.001763,0.003795,0.002113,6.0,-18.78,-23.58,195.3276,0.1688,-0.5876,55.814037,37.50047,210.7,NaN,,15.3,,0 / 2,,3844,2021-05-01 16:24:12:875
-0.02645,-0.010404,9.843588,8.47E-4,7.6E-5,9.80665,0.001763,0.005627,2.8E-4,5.82,-18.9,-23.1,198.1021,0.1751,-0.5832,55.814037,37.50047,210.7,NaN,,15.3,,0 / 2,,3855,2021-05-01 16:24:12:886
0.021604,0.017081,9.728403,8.47E-4,7.6E-5,9.80665,-0.001291,0.002573,-9.41E-4,5.82,-18.9,-23.1,198.1021,0.1751,-0.5832,55.814037,37.50047,210.7,NaN,,15.3,,0 / 2,,3865,2021-05-01 16:24:12:896
0.021604,0.017081,9.728403,8.35E-4,5.21E-4,9.80665,0.002374,0.005016,-0.001552,6.0,-19.62,-23.28,198.1021,0.1751,-0.5832,55.814037,37.50047,210.7,NaN,,15.3,,0 / 2,,3874,2021-05-01 16:24:12:905
0.002903,-0.019913,9.816935,8.35E-4,5.21E-4,9.80665,0.002374,0.005016,-0.001552,6.0,-19.62,-23.28,198.1021,0.1751,-0.5832,55.814037,37.50047,210.7,NaN,,15.3,,0 / 2,,3884,2021-05-01 16:24:12:915
0.001952,-0.005192,9.805057,5.33E-4,-7.46E-4,9.80665,0.001763,7.4E-4,0.002113,5.64,-19.92,-23.82,197.2735,0.1795,-0.5795,55.814037,37.50047,210.7,NaN,,15.3,,0 / 2,,3894,2021-05-01 16:24:12:925
0.01134,0.027204,9.74052,5.33E-4,-7.46E-4,9.80665,5.41E-4,0.003795,-3.3E-4,5.64,-19.92,-23.82,197.2735,0.1795,-0.5795,55.814037,37.50047,210.7,NaN,,15.3,,0 / 2,,3905,2021-05-01 16:24:12:936
-0.002983,-0.01845,9.728399,5.12E-4,-9.23E-4,9.80665,-0.001902,-0.001092,-3.3E-4,5.1,-19.62,-23.52,197.2735,0.1795,-0.5795,55.814037,37.50047,210.7,NaN,,15.3,,0 / 2,,3915,2021-05-01 16:24:12:946
-0.002983,-0.01845,9.728399,5.12E-4,-9.23E-4,9.80665,-6.81E-4,-4.81E-4,8.91E-4,5.1,-19.62,-23.52,197.2735,0.1795,-0.5795,55.814037,37.50047,210.7,NaN,,15.3,,0 / 2,,3924,2021-05-01 16:24:12:955
0.009349,-0.021251,9.807287,-2.59E-4,-7.09E-4,9.80665,-0.003124,-0.001703,-0.003385,5.16,-19.08,-22.98,195.338,0.1752,-0.5751,55.814037,37.50047,210.7,NaN,,15.3,,0 / 2,,3934,2021-05-01 16:24:12:965
0.007601,-0.008252,9.773854,-2.59E-4,-7.09E-4,9.80665,0.003596,7.4E-4,0.001502,5.16,-19.08,-22.98,195.338,0.1752,-0.5751,55.814037,37.50047,210.7,NaN,,15.3,,0 / 2,,3944,2021-05-01 16:24:12:975
-0.017679,0.00865,9.7622,-2.08E-4,-0.001677,9.80665,-7.0E-5,0.001962,2.8E-4,5.22,-18.66,-23.16,195.338,0.1752,-0.5751,55.814037,37.50047,210.7,NaN,,15.3,,0 / 2,,3954,2021-05-01 16:24:12:985
-0.017679,0.00865,9.7622,-2.08E-4,-0.001677,9.80665,-7.0E-5,0.001962,2.8E-4,5.22,-18.66,-23.16,195.338,0.1752,-0.5751,55.814037,37.50047,210.7,NaN,,15.3,,0 / 2,,3964,2021-05-01 16:24:12:995
0.014367,-0.020061,9.780911,-3.96E-4,-0.001115,9.80665,0.001763,7.4E-4,2.8E-4,5.82,-19.14,-23.04,198.0951,0.1654,-0.5737,55.814037,37.50047,210.7,NaN,,15.3,,0 / 2,,3975,2021-05-01 16:24:13:006
0.016517,0.005206,9.776243,-3.96E-4,-0.001115,9.80665,-6.81E-4,0.001351,-9.41E-4,5.82,-19.14,-23.04,198.0951,0.1654,-0.5737,55.814037,37.50047,210.7,NaN,,15.3,,0 / 2,,3984,2021-05-01 16:24:13:015
0.019874,-0.005792,9.718684,-2.91E-4,-0.002494,9.806651,0.001152,-0.002925,-3.3E-4,6.36,-19.38,-22.68,198.0951,0.1654,-0.5737,55.814037,37.50047,210.7,NaN,,15.3,,0 / 2,,3994,2021-05-01 16:24:13:025
0.019874,-0.005792,9.718684,-2.91E-4,-0.002494,9.806651,0.003596,7.4E-4,0.001502,6.36,-19.38,-22.68,198.0951,0.1654,-0.5737,55.814037,37.50047,210.7,NaN,,15.3,,0 / 2,,4004,2021-05-01 16:24:13:035
-0.006964,0.010351,9.778871,3.59E-4,-3.49E-4,9.80665,0.002985,7.4E-4,0.002113,6.06,-19.2,-22.86,198.0971,0.1511,-0.5708,55.814037,37.50047,210.7,NaN,,15.3,,0 / 2,,4015,2021-05-01 16:24:13:046
-0.001929,-0.003858,9.790705,3.59E-4,-3.49E-4,9.80665,0.001152,0.001351,-0.002163,6.06,-19.2,-22.86,198.0971,0.1511,-0.5708,55.814037,37.50047,210.7,NaN,,15.3,,0 / 2,,4025,2021-05-01 16:24:13:056
-0.001929,-0.003858,9.790705,7.34E-4,-0.001371,9.80665,0.001152,0.003184,-9.41E-4,5.64,-18.84,-23.1,198.0971,0.1511,-0.5708,55.814037,37.50047,210.7,NaN,,15.3,,0 / 2,,4034,2021-05-01 16:24:13:065
0.015942,-0.006264,9.761792,1.52E-4,-8.1E-4,9.806651,0.001152,0.003184,-9.41E-4,5.52,-18.48,-22.86,199.0237,0.1448,-0.5642,55.814037,37.50047,210.7,NaN,,15.3,,0 / 2,,4044,2021-05-01 16:24:13:075
-0.012304,0.001037,9.726157,1.52E-4,-8.1E-4,9.806651,-0.001291,-4.81E-4,0.001502,5.52,-18.48,-22.86,199.0237,0.1448,-0.5642,55.814037,37.50047,210.7,NaN,,15.3,,0 / 2,,4056,2021-05-01 16:24:13:087
-0.012304,0.001037,9.726157,6.68E-4,-0.001777,9.80665,-0.001291,-4.81E-4,0.001502,5.16,-18.54,-23.34,199.0237,0.1448,-0.5642,55.814037,37.50047,210.7,NaN,,15.3,,0 / 2,,4065,2021-05-01 16:24:13:096
-0.005063,-0.009223,9.788293,6.68E-4,-0.001777,9.80665,0.002985,1.3E-4,0.002113,5.16,-18.54,-23.34,199.0237,0.1448,-0.5642,55.814037,37.50047,210.7,NaN,,15.3,,0 / 2,,4074,2021-05-01 16:24:13:105
1.64E-4,-0.004312,9.757134,-3.1E-5,-5.37E-4,9.80665,0.002985,0.002573,2.8E-4,5.64,-19.2,-23.52,198.1118,0.1362,-0.5571,55.814037,37.50047,210.7,NaN,,15.3,,0 / 2,,4085,2021-05-01 16:24:13:116
-0.010467,-0.005862,9.752428,1.23E-4,-8.98E-4,9.80665,0.002985,7.4E-4,0.001502,5.34,-19.2,-23.94,198.1118,0.1362,-0.5571,55.814037,37.50047,210.7,NaN,,15.3,,0 / 2,,4095,2021-05-01 16:24:13:126
-0.010467,-0.005862,9.752428,1.23E-4,-8.98E-4,9.80665,-0.001291,0.001962,-0.002163,5.34,-19.2,-23.94,198.1118,0.1362,-0.5571,55.814037,37.50047,210.7,NaN,,15.3,,0 / 2,,4105,2021-05-01 16:24:13:136
-0.011484,0.022211,9.740613,2.71E-4,-0.001116,9.80665,5.41E-4,-0.001703,0.001502,5.7,-19.38,-23.82,198.1118,0.1362,-0.5571,55.814037,37.50047,210.7,NaN,,15.3,,0 / 2,,4114,2021-05-01 16:24:13:145
9.7E-4,-0.002075,9.764323,2.71E-4,-0.001116,9.80665,-6.81E-4,-4.81E-4,0.001502,5.7,-19.38,-23.82,198.1118,0.1362,-0.5571,55.814037,37.50047,210.7,NaN,,15.3,,0 / 2,,4124,2021-05-01 16:24:13:155
-0.005098,0.003371,9.797915,1.12E-4,-5.31E-4,9.806649,-6.81E-4,0.002573,8.91E-4,6.0,-18.78,-23.88,198.1099,0.1305,-0.5536,55.814037,37.50047,210.7,NaN,,15.3,,0 / 2,,4134,2021-05-01 16:24:13:165
-0.009293,0.014916,9.757306,1.12E-4,-5.31E-4,9.806649,5.41E-4,0.001962,0.001502,6.0,-18.78,-23.88,198.1099,0.1305,-0.5536,55.814037,37.50047,210.7,NaN,,15.3,,0 / 2,,4145,2021-05-01 16:24:13:176
-0.009293,0.014916,9.757306,7.58E-4,-0.001679,9.806649,-7.0E-5,-4.81E-4,8.91E-4,5.58,-18.72,-23.22,198.1099,0.1305,-0.5536,55.814037,37.50047,210.7,NaN,,15.3,,0 / 2,,4155,2021-05-01 16:24:13:186
0.007443,0.0044,9.759503,7.58E-4,-0.001679,9.806649,0.001763,-0.001092,8.91E-4,5.58,-18.72,-23.22,198.1099,0.1305,-0.5536,55.814037,37.50047,210.7,NaN,,15.3,,0 / 2,,4164,2021-05-01 16:24:13:195
0.003203,0.002195,9.805005,9.64E-4,-4.87E-4,9.80665,-0.001291,0.001962,8.91E-4,5.22,-19.2,-23.1,195.322,0.1226,-0.5463,55.814037,37.50047,210.7,NaN,,15.3,,0 / 2,,4175,2021-05-01 16:24:13:206
0.00857,0.005822,9.745116,9.64E-4,-4.87E-4,9.80665,0.001763,7.4E-4,-9.41E-4,5.22,-19.2,-23.1,195.322,0.1226,-0.5463,55.814037,37.50047,210.7,NaN,,15.3,,0 / 2,,4185,2021-05-01 16:24:13:216
0.00857,0.005822,9.745116,9.92E-4,-5.51E-4,9.80665,-6.81E-4,7.4E-4,8.91E-4,5.46,-19.38,-24.0,195.322,0.1226,-0.5463,55.814037,37.50047,210.7,NaN,,15.3,,0 / 2,,4194,2021-05-01 16:24:13:225
0.009945,3.96E-4,9.78339,9.92E-4,-5.51E-4,9.80665,-6.81E-4,7.4E-4,8.91E-4,5.46,-19.38,-24.0,195.322,0.1226,-0.5463,55.814037,37.50047,210.7,NaN,,15.3,,0 / 2,,4204,2021-05-01 16:24:13:235
0.002282,0.002671,9.797823,6.74E-4,4.4E-4,9.806648,5.41E-4,-0.001092,8.91E-4,5.58,-19.2,-23.64,198.0978,0.121,-0.5399,55.814037,37.50047,210.7,NaN,,15.3,,0 / 2,,4215,2021-05-01 16:24:13:246
-0.017371,0.004045,9.802782,6.74E-4,4.4E-4,9.806648,-7.0E-5,0.001351,-3.3E-4,5.58,-19.2,-23.64,198.0978,0.121,-0.5399,55.814037,37.50047,210.7,NaN,,15.3,,0 / 2,,4224,2021-05-01 16:24:13:255
-0.004858,-0.002456,9.754757,8.54E-4,7.59E-4,9.806648,0.001763,-4.81E-4,-9.41E-4,5.76,-18.24,-23.34,198.0978,0.121,-0.5399,55.814037,37.50047,210.7,NaN,,15.3,,0 / 2,,4234,2021-05-01 16:24:13:265
-0.004858,-0.002456,9.754757,8.54E-4,7.59E-4,9.806648,-7.0E-5,0.005016,8.91E-4,5.76,-18.24,-23.34,198.0978,0.121,-0.5399,55.814037,37.50047,210.7,NaN,,15.3,,0 / 2,,4244,2021-05-01 16:24:13:275
-0.02476,0.014155,9.740639,4.58E-4,4.65E-4,9.80665,0.001763,7.4E-4,8.91E-4,5.4,-18.42,-23.04,196.1149,0.1268,-0.5365,55.814037,37.50047,210.7,NaN,,15.3,,0 / 2,,4255,2021-05-01 16:24:13:286
-0.038974,-0.016248,9.77892,4.58E-4,4.65E-4,9.80665,-6.81E-4,-4.81E-4,-3.3E-4,5.4,-18.42,-23.04,196.1149,0.1268,-0.5365,55.814037,37.50047,210.7,NaN,,15.3,,0 / 2,,4265,2021-05-01 16:24:13:296
-0.014475,0.009139,9.750103,9.6E-5,0.001504,9.806651,-6.81E-4,0.001351,8.91E-4,5.1,-19.26,-22.68,196.1149,0.1268,-0.5365,55.814037,37.50047,210.7,NaN,,15.3,,0 / 2,,4274,2021-05-01 16:24:13:305
-0.014475,0.009139,9.750103,9.6E-5,0.001504,9.806651,0.001152,-0.001703,0.001502,5.1,-19.26,-22.68,196.1149,0.1268,-0.5365,55.814037,37.50047,210.7,NaN,,15.3,,0 / 2,,4285,2021-05-01 16:24:13:316
-0.007226,0.01524,9.785994,-3.54E-4,9.5E-4,9.806649,0.002374,0.001962,0.003335,5.46,-18.72,-23.16,195.3092,0.1354,-0.5384,55.814037,37.50047,210.7,NaN,,15.3,,0 / 2,,4294,2021-05-01 16:24:13:325
-0.007226,0.01524,9.785994,-3.54E-4,9.5E-4,9.806649,0.002374,0.001962,0.003335,5.46,-18.72,-23.16,195.3092,0.1354,-0.5384,55.814037,37.50047,210.7,NaN,,15.3,,0 / 2,,4304,2021-05-01 16:24:13:335
-0.017332,-0.004394,9.80993,-0.001,0.002137,9.80665,5.41E-4,0.001962,0.003335,6.12,-18.54,-23.16,195.3092,0.1354,-0.5384,55.814037,37.50047,210.7,NaN,,15.3,,0 / 2,,4315,2021-05-01 16:24:13:346
0.016415,0.021269,9.749907,-0.001,0.002137,9.80665,0.001152,0.001351,0.001502,6.12,-18.54,-23.16,195.3092,0.1354,-0.5384,55.814037,37.50047,210.7,NaN,,15.3,,0 / 2,,4324,2021-05-01 16:24:13:355
-0.003801,-0.004872,9.805038,-1.74E-4,9.33E-4,9.80665,5.41E-4,-4.81E-4,0.001502,5.94,-19.38,-23.46,198.0734,0.1459,-0.5474,55.814037,37.50047,210.7,NaN,,15.3,,0 / 2,,4334,2021-05-01 16:24:13:365
6.8E-5,0.001626,9.728422,-4.27E-4,0.001461,9.806649,-7.0E-5,7.4E-4,0.002113,5.64,-19.38,-23.76,198.0734,0.1459,-0.5474,55.814037,37.50047,210.7,NaN,,15.3,,0 / 2,,4344,2021-05-01 16:24:13:375
6.8E-5,0.001626,9.728422,-4.27E-4,0.001461,9.806649,0.002374,7.4E-4,-0.001552,5.64,-19.38,-23.76,198.0734,0.1459,-0.5474,55.814037,37.50047,210.7,NaN,,15.3,,0 / 2,,4355,2021-05-01 16:24:13:386
-0.003996,0.010335,9.793152,-7.45E-4,0.002469,9.80665,0.001763,7.4E-4,0.002113,5.46,-19.26,-23.1,198.0734,0.1459,-0.5474,55.814037,37.50047,210.7,NaN,,15.3,,0 / 2,,4365,2021-05-01 16:24:13:396
-0.013735,0.00342,9.800377,-7.45E-4,0.002469,9.80665,0.001763,7.4E-4,0.002113,5.46,-19.26,-23.1,198.0734,0.1459,-0.5474,55.814037,37.50047,210.7,NaN,,15.3,,0 / 2,,4374,2021-05-01 16:24:13:405
4.5E-4,-0.005927,9.828962,-0.001686,9.88E-4,9.80665,-7.0E-5,-0.004757,-9.41E-4,5.4,-18.72,-22.38,195.2968,0.1582,-0.556,55.814037,37.50047,210.7,NaN,,15.3,,0 / 2,,4384,2021-05-01 16:24:13:415
4.5E-4,-0.005927,9.828962,-0.001686,9.88E-4,9.80665,-7.0E-5,1.3E-4,0.003335,5.76,-19.02,-22.38,195.2968,0.1582,-0.556,55.814037,37.50047,210.7,NaN,,15.3,,0 / 2,,4395,2021-05-01 16:24:13:426
-0.016636,-0.003641,9.795601,-0.002464,0.002321,9.80665,0.001152,0.002573,-3.3E-4,5.76,-19.02,-22.38,195.2968,0.1582,-0.556,55.814037,37.50047,210.7,NaN,,15.3,,0 / 2,,4404,2021-05-01 16:24:13:435
-0.022019,-0.001915,9.707065,-0.002884,0.002724,9.80665,0.002985,1.3E-4,-9.41E-4,5.82,-19.32,-22.56,195.2968,0.1582,-0.556,55.814037,37.50047,210.7,NaN,,15.3,,0 / 2,,4415,2021-05-01 16:24:13:446
-0.015247,0.013595,9.711876,-0.002884,0.002724,9.80665,0.003596,-0.002314,0.003946,5.82,-19.32,-22.56,195.2968,0.1582,-0.556,55.814037,37.50047,210.7,NaN,,15.3,,0 / 2,,4425,2021-05-01 16:24:13:456
-0.015247,0.013595,9.711876,-7.69E-4,-2.5E-4,9.806649,0.002374,7.4E-4,8.91E-4,5.46,-19.08,-22.74,195.3414,0.1692,-0.5764,55.814037,37.50047,210.7,NaN,,15.3,,0 / 2,,4434,2021-05-01 16:24:13:465
-0.017495,-2.29E-4,9.752571,-7.69E-4,-2.5E-4,9.806649,-6.81E-4,-0.001703,0.002113,5.46,-19.08,-22.74,195.3414,0.1692,-0.5764,55.814037,37.50047,210.7,NaN,,15.3,,0 / 2,,4444,2021-05-01 16:24:13:475
-0.01955,0.007556,9.826859,-0.001094,6.36E-4,9.806649,-6.81E-4,-0.001703,0.002113,5.52,-19.26,-22.74,195.3414,0.1692,-0.5764,55.814037,37.50047,210.7,NaN,,15.3,,0 / 2,,4454,2021-05-01 16:24:13:485
0.019523,-0.027726,9.740118,-0.001094,6.36E-4,9.806649,0.002374,7.4E-4,0.001502,5.52,-19.26,-22.74,195.3414,0.1692,-0.5764,55.814037,37.50047,210.7,NaN,,15.3,,0 / 2,,4464,2021-05-01 16:24:13:495
0.019523,-0.027726,9.740118,-0.00115,3.49E-4,9.806649,-7.0E-5,0.009292,0.002113,5.4,-19.08,-22.92,195.3488,0.171,-0.5836,55.814037,37.50047,210.7,NaN,,15.3,,0 / 2,,4474,2021-05-01 16:24:13:505
-0.017499,0.001723,9.817247,-0.00115,3.49E-4,9.806649,0.001763,-0.008423,-3.3E-4,5.4,-19.08,-22.92,195.3488,0.171,-0.5836,55.814037,37.50047,210.7,NaN,,15.3,,0 / 2,,4484,2021-05-01 16:24:13:515
-0.002681,0.002726,9.783598,-0.002593,8.33E-4,9.80665,-7.0E-5,-0.004757,8.91E-4,5.4,-18.9,-23.22,195.3488,0.171,-0.5836,55.814037,37.50047,210.7,NaN,,15.3,,0 / 2,,4495,2021-05-01 16:24:13:526
-0.002681,0.002726,9.783598,-0.002593,8.33E-4,9.80665,5.41E-4,-0.003536,-9.41E-4,5.4,-18.9,-23.22,195.3488,0.171,-0.5836,55.814037,37.50047,210.7,NaN,,15.3,,0 / 2,,4505,2021-05-01 16:24:13:536
-0.014465,-0.021285,9.762021,-0.001402,7.97E-4,9.806649,0.001763,0.003184,0.004556,5.4,-19.32,-23.88,195.3933,0.1717,-0.5995,55.814037,37.50047,210.7,NaN,,15.3,,0 / 2,,4515,2021-05-01 16:24:13:546
0.001458,0.009037,9.745314,-0.001402,7.97E-4,9.806649,0.001152,-0.001703,-3.3E-4,5.4,-19.32,-23.88,195.3933,0.1717,-0.5995,55.814037,37.50047,210.7,NaN,,15.3,,0 / 2,,4524,2021-05-01 16:24:13:555
0.036361,-0.017992,9.756808,-0.00122,7.02E-4,9.80665,0.002374,-4.81E-4,8.91E-4,4.86,-19.14,-23.7,195.3933,0.1717,-0.5995,55.814037,37.50047,210.7,NaN,,15.3,,0 / 2,,4534,2021-05-01 16:24:13:565
0.036361,-0.017992,9.756808,-0.00122,7.02E-4,9.80665,0.001763,-0.004757,2.8E-4,4.86,-19.14,-23.7,195.3933,0.1717,-0.5995,55.814037,37.50047,210.7,NaN,,15.3,,0 / 2,,4544,2021-05-01 16:24:13:575
0.009615,-0.011144,9.800202,-5.54E-4,5.32E-4,9.80665,0.001763,-0.004757,2.8E-4,5.1,-19.32,-23.52,195.3973,0.1739,-0.6034,55.814037,37.50047,210.7,NaN,,15.3,,0 / 2,,4554,2021-05-01 16:24:13:585
0.002022,0.005802,9.814737,-5.54E-4,5.32E-4,9.80665,-0.001291,0.003795,2.8E-4,5.1,-19.32,-23.52,195.3973,0.1739,-0.6034,55.814037,37.50047,210.7,NaN,,15.3,,0 / 2,,4565,2021-05-01 16:24:13:596
0.006614,-0.00277,9.769152,1.31E-4,1.55E-4,9.806651,0.001763,1.3E-4,8.91E-4,5.88,-19.2,-23.7,195.3973,0.1739,-0.6034,55.814037,37.50047,210.7,NaN,,15.3,,0 / 2,,4575,2021-05-01 16:24:13:606
0.006614,-0.00277,9.769152,1.31E-4,1.55E-4,9.806651,-0.001291,-0.002925,8.91E-4,5.88,-19.2,-23.7,195.3973,0.1739,-0.6034,55.814037,37.50047,210.7,NaN,,15.3,,0 / 2,,4585,2021-05-01 16:24:13:616
-0.005964,-0.021679,9.776343,-2.71E-4,4.8E-5,9.80665,-7.0E-5,0.002573,-3.3E-4,6.18,-18.78,-23.1,198.1236,0.1749,-0.6029,55.814037,37.50047,210.7,NaN,,15.3,,0 / 2,,4595,2021-05-01 16:24:13:626
-0.005964,-0.021679,9.776343,-2.71E-4,4.8E-5,9.80665,0.001763,-4.81E-4,-0.001552,6.18,-18.78,-23.1,198.1236,0.1749,-0.6029,55.814037,37.50047,210.7,NaN,,15.3,,0 / 2,,4604,2021-05-01 16:24:13:635
-0.001147,-0.00333,9.778795,2.02E-4,-4.11E-4,9.806651,0.002374,-4.81E-4,-0.001552,5.58,-18.96,-23.52,198.1236,0.1749,-0.6029,55.814037,37.50047,210.7,NaN,,15.3,,0 / 2,,4614,2021-05-01 16:24:13:645
-0.003528,0.00503,9.771686,2.02E-4,-4.11E-4,9.806651,0.001763,-0.001092,-0.001552,5.58,-18.96,-23.52,198.1236,0.1749,-0.6029,55.814037,37.50047,210.7,NaN,,15.3,,0 / 2,,4625,2021-05-01 16:24:13:656
-0.003528,0.00503,9.771686,3.44E-4,-0.001606,9.80665,0.001763,-4.81E-4,0.001502,5.1,-19.26,-23.34,195.3678,0.173,-0.6011,55.814037,37.50047,210.7,NaN,,15.3,,0 / 2,,4634,2021-05-01 16:24:13:665
0.020747,0.003296,9.812149,3.66E-4,-0.002209,9.806651,0.001763,0.001351,-3.3E-4,5.4,-19.32,-22.62,195.3678,0.173,-0.6011,55.814037,37.50047,210.7,NaN,,15.3,,0 / 2,,4645,2021-05-01 16:24:13:676
0.017606,-0.005571,9.747479,3.66E-4,-0.002209,9.806651,0.001763,0.001351,-3.3E-4,5.4,-19.32,-22.62,195.3678,0.173,-0.6011,55.814037,37.50047,210.7,NaN,,15.3,,0 / 2,,4655,2021-05-01 16:24:13:686
0.017606,-0.005571,9.747479,0.001115,-0.002975,9.806651,-6.81E-4,1.3E-4,-0.001552,5.82,-18.96,-23.1,195.3678,0.173,-0.6011,55.814037,37.50047,210.7,NaN,,15.3,,0 / 2,,4664,2021-05-01 16:24:13:695
0.020272,-0.006423,9.78576,0.001115,-0.002975,9.806651,0.002985,7.4E-4,8.91E-4,5.82,-18.96,-23.1,195.3678,0.173,-0.6011,55.814037,37.50047,210.7,NaN,,15.3,,0 / 2,,4674,2021-05-01 16:24:13:705
-0.004486,-0.006773,9.785958,5.86E-4,-2.45E-4,9.806649,-7.0E-5,-0.001092,8.91E-4,5.52,-19.02,-23.1,198.1157,0.158,-0.5902,55.814037,37.50047,210.7,NaN,,15.3,,0 / 2,,4684,2021-05-01 16:24:13:715
0.002913,-0.014162,9.761905,9.26E-4,-5.9E-4,9.80665,-6.81E-4,-4.81E-4,0.002113,5.34,-18.66,-22.98,198.1157,0.158,-0.5902,55.814037,37.50047,210.7,NaN,,15.3,,0 / 2,,4695,2021-05-01 16:24:13:726
-0.015992,-0.002967,9.771716,9.26E-4,-5.9E-4,9.80665,-0.001291,-4.81E-4,0.003335,5.34,-18.66,-22.98,198.1157,0.158,-0.5902,55.814037,37.50047,210.7,NaN,,15.3,,0 / 2,,4704,2021-05-01 16:24:13:735
-0.039957,0.007287,9.807906,0.001065,-0.001008,9.80665,5.41E-4,-0.001703,2.8E-4,5.46,-18.78,-22.74,198.1157,0.158,-0.5902,55.814037,37.50047,210.7,NaN,,15.3,,0 / 2,,4714,2021-05-01 16:24:13:745
-0.039957,0.007287,9.807906,0.001065,-0.001008,9.80665,-6.81E-4,1.3E-4,-9.41E-4,5.46,-18.78,-22.74,198.1157,0.158,-0.5902,55.814037,37.50047,210.7,NaN,,15.3,,0 / 2,,4724,2021-05-01 16:24:13:755
-0.003743,-0.001422,9.821884,-3.88E-4,-6.72E-4,9.806651,-0.001291,0.001351,8.91E-4,5.82,-18.6,-23.04,198.1086,0.1543,-0.5824,55.814037,37.50047,210.7,NaN,,15.3,,0 / 2,,4735,2021-05-01 16:24:13:766
0.005934,0.005531,9.807471,-4.11E-4,-9.29E-4,9.806651,-0.001291,0.001351,8.91E-4,5.64,-18.78,-22.74,198.1086,0.1543,-0.5824,55.814037,37.50047,210.7,NaN,,15.3,,0 / 2,,4745,2021-05-01 16:24:13:776
0.005934,0.005531,9.807471,-4.11E-4,-9.29E-4,9.806651,5.41E-4,7.4E-4,-0.002163,5.64,-18.78,-22.74,198.1086,0.1543,-0.5824,55.814037,37.50047,210.7,NaN,,15.3,,0 / 2,,4755,2021-05-01 16:24:13:786
-0.005992,-0.00548,9.735682,-3.5E-5,-0.001203,9.806651,-7.0E-5,-4.81E-4,-0.001552,5.46,-18.72,-22.98,198.1086,0.1543,-0.5824,55.814037,37.50047,210.7,NaN,,15.3,,0 / 2,,4764,2021-05-01 16:24:13:795
-0.006272,-5.13E-4,9.793179,-3.5E-5,-0.001203,9.806651,0.001763,0.003184,0.002113,5.46,-18.72,-22.98,198.1086,0.1543,-0.5824,55.813946,37.50027,188.9734,NaN,,100.0,,0 / 6,,4775,2021-05-01 16:24:13:806
0.001717,0.018324,9.762079,6.06E-4,-4.92E-4,9.806651,0.001152,-4.81E-4,-3.3E-4,5.64,-18.54,-22.86,198.1088,0.1476,-0.5804,55.813946,37.50027,188.9734,NaN,,100.0,,0 / 6,,4784,2021-05-01 16:24:13:815
0.001717,0.018324,9.762079,6.06E-4,-4.92E-4,9.806651,5.41E-4,-4.81E-4,0.001502,5.64,-18.54,-22.86,198.1088,0.1476,-0.5804,55.813946,37.50027,188.9734,NaN,,100.0,,0 / 6,,4794,2021-05-01 16:24:13:825
-0.013807,0.026023,9.723948,8.32E-4,-0.001052,9.806651,-0.001291,1.3E-4,-0.001552,5.28,-18.54,-22.5,198.1088,0.1476,-0.5804,55.813946,37.50027,188.9734,NaN,,100.0,,0 / 6,,4804,2021-05-01 16:24:13:835
-0.001792,-7.33E-4,9.781159,8.32E-4,-0.001052,9.806651,-7.0E-5,-0.001092,0.002113,5.28,-18.54,-22.5,198.1088,0.1476,-0.5804,55.813946,37.50027,188.9734,NaN,,100.0,,0 / 6,,4814,2021-05-01 16:24:13:845
0.001039,0.011838,9.75246,-6.8E-4,-4.2E-5,9.806651,0.001152,-0.001703,2.8E-4,5.76,-18.36,-23.28,199.0353,0.1433,-0.5739,55.813946,37.50027,188.9734,NaN,,100.0,,0 / 6,,4824,2021-05-01 16:24:13:855
0.001039,0.011838,9.75246,-7.98E-4,4.35E-4,9.806651,0.001763,0.001962,8.91E-4,5.76,-18.18,-23.58,199.0353,0.1433,-0.5739,55.813946,37.50027,188.9734,NaN,,100.0,,0 / 6,,4834,2021-05-01 16:24:13:865
0.003807,-0.01699,9.757062,-7.98E-4,4.35E-4,9.806651,0.001152,-4.81E-4,-0.002163,5.76,-18.18,-23.58,199.0353,0.1433,-0.5739,55.813946,37.50027,188.9734,NaN,,100.0,,0 / 6,,4844,2021-05-01 16:24:13:875
0.008841,0.003986,9.788263,-0.00154,1.62E-4,9.806651,5.41E-4,-0.001092,2.8E-4,5.82,-18.84,-23.7,199.0353,0.1433,-0.5739,55.813946,37.50027,188.9734,NaN,,100.0,,0 / 6,,4854,2021-05-01 16:24:13:885
0.009007,0.003878,9.807417,-0.00154,1.62E-4,9.806651,5.41E-4,0.002573,2.8E-4,5.82,-18.84,-23.7,199.0353,0.1433,-0.5739,55.813946,37.50027,188.9734,NaN,,100.0,,0 / 6,,4864,2021-05-01 16:24:13:895
0.009007,0.003878,9.807417,6.39E-4,4.7E-5,9.806649,-0.001291,1.3E-4,0.002113,5.82,-19.44,-22.62,198.1135,0.1412,-0.5827,55.813946,37.50027,188.9734,NaN,,100.0,,0 / 6,,4875,2021-05-01 16:24:13:906
8.94E-4,0.007165,9.752447,6.39E-4,4.7E-5,9.806649,5.41E-4,-4.81E-4,0.002724,5.82,-19.44,-22.62,198.1135,0.1412,-0.5827,55.813946,37.50027,188.9734,NaN,,100.0,,0 / 6,,4884,2021-05-01 16:24:13:915
0.011039,0.013823,9.790704,0.001157,6.7E-4,9.806649,0.002985,0.002573,0.001502,6.06,-19.14,-22.38,198.1135,0.1412,-0.5827,55.813946,37.50027,188.9734,NaN,,100.0,,0 / 6,,4895,2021-05-01 16:24:13:926
0.005722,-0.027411,9.847989,0.001157,6.7E-4,9.806649,0.001763,-0.003536,-3.3E-4,6.06,-19.14,-22.38,198.1135,0.1412,-0.5827,55.813946,37.50027,188.9734,NaN,,100.0,,0 / 6,,4904,2021-05-01 16:24:13:935
-0.004064,0.002718,9.747673,-4.3E-5,2.33E-4,9.806651,5.41E-4,1.3E-4,2.8E-4,5.88,-18.78,-23.4,198.1058,0.147,-0.5775,55.813946,37.50027,188.9734,NaN,,100.0,,0 / 6,,4914,2021-05-01 16:24:13:945
-0.004064,0.002718,9.747673,-4.3E-5,2.33E-4,9.806651,5.41E-4,-0.001703,0.002724,5.88,-18.78,-23.4,198.1058,0.147,-0.5775,55.813946,37.50027,188.9734,NaN,,100.0,,0 / 6,,4924,2021-05-01 16:24:13:955
0.006696,-0.003358,9.76191,6.13E-4,3.54E-4,9.806652,0.001763,0.001351,-0.002774,5.58,-18.84,-23.58,198.1058,0.147,-0.5775,55.813946,37.50027,188.9734,NaN,,100.0,,0 / 6,,4935,2021-05-01 16:24:13:966
0.013286,0.024735,9.754826,6.13E-4,3.54E-4,9.806652,5.41E-4,-0.004147,0.001502,5.58,-18.84,-23.58,198.1058,0.147,-0.5775,55.813946,37.50027,188.9734,NaN,,100.0,,0 / 6,,4945,2021-05-01 16:24:13:976
0.013286,0.024735,9.754826,0.001653,2.76E-4,9.80665,5.41E-4,-0.004147,0.001502,5.4,-19.32,-22.92,195.3453,0.1501,-0.5747,55.813946,37.50027,188.9734,NaN,,100.0,,0 / 6,,4954,2021-05-01 16:24:13:985
0.007515,0.018535,9.781168,0.001653,2.76E-4,9.80665,-0.002513,0.003184,0.001502,5.4,-19.32,-22.92,195.3453,0.1501,-0.5747,55.813946,37.50027,188.9734,NaN,,100.0,,0 / 6,,4964,2021-05-01 16:24:13:995
0.007515,-3.8E-5,9.63496,0.001621,5.21E-4,9.806651,5.41E-4,0.009292,0.001502,4.92,-18.78,-23.04,195.3453,0.1501,-0.5747,55.813946,37.50027,188.9734,NaN,,100.0,,0 / 6,,4974,2021-05-01 16:24:14:005
0.013312,-3.8E-5,9.63496,0.001621,5.21E-4,9.806651,-0.003735,0.009292,2.8E-4,4.92,-18.78,-23.04,195.3453,0.1501,-0.5747,55.813946,37.50027,188.9734,NaN,,100.0,,0 / 6,,4985,2021-05-01 16:24:14:016
0.004358,-0.003015,9.807423,0.001161,3.13E-4,9.80665,-6.81E-4,0.006849,2.8E-4,4.92,-18.54,-22.68,195.3343,0.1556,-0.5664,55.813946,37.50027,188.9734,NaN,,100.0,,0 / 6,,4994,2021-05-01 16:24:14:025
-0.013358,0.02086,9.764593,0.001161,3.13E-4,9.80665,0.002374,-0.004147,0.002113,4.92,-18.54,-22.68,195.3343,0.1556,-0.5664,55.813946,37.50027,188.9734,NaN,,100.0,,0 / 6,,5004,2021-05-01 16:24:14:035
0.020414,-0.015446,9.670723,5.9E-4,6.64E-4,9.806649,0.004206,-0.004757,0.002724,5.04,-18.6,-22.8,195.3343,0.1556,-0.5664,55.813946,37.50027,188.9734,NaN,,100.0,,0 / 6,,5014,2021-05-01 16:24:14:045
0.020414,-0.015446,9.670723,5.9E-4,6.64E-4,9.806649,0.004206,-0.004757,0.002724,5.04,-18.6,-22.8,195.3343,0.1556,-0.5664,55.813946,37.50027,188.9734,NaN,,100.0,,0 / 6,,5025,2021-05-01 16:24:14:056
-0.011619,0.015195,9.843563,-0.00178,4.07E-4,9.806652,-0.002513,0.006238,-0.003385,5.4,-18.96,-23.4,195.3303,0.1602,-0.5641,55.813946,37.50027,188.9734,NaN,,100.0,,0 / 6,,5034,2021-05-01 16:24:14:065
-0.00601,0.020379,9.807625,-0.00178,4.07E-4,9.806652,0.002985,-0.004147,8.91E-4,5.4,-18.96,-23.4,195.3303,0.1602,-0.5641,55.813946,37.50027,188.9734,NaN,,100.0,,0 / 6,,5044,2021-05-01 16:24:14:075
0.016535,0.01438,9.745142,-0.003161,0.001518,9.806651,-0.001902,0.002573,0.001502,5.88,-19.62,-23.28,195.3303,0.1602,-0.5641,55.813946,37.50027,188.9734,NaN,,100.0,,0 / 6,,5055,2021-05-01 16:24:14:086
-0.010073,-0.003319,9.802747,-0.003161,0.001518,9.806651,-7.0E-5,7.4E-4,0.002113,5.88,-19.62,-23.28,195.3303,0.1602,-0.5641,55.813946,37.50027,188.9734,NaN,,100.0,,0 / 6,,5065,2021-05-01 16:24:14:096
0.01983,-0.022994,9.804799,1.16E-4,4.98E-4,9.806652,-7.0E-5,0.001962,-0.002774,5.58,-19.62,-23.4,197.2596,0.1639,-0.5843,55.813946,37.50027,188.9734,NaN,,100.0,,0 / 6,,5075,2021-05-01 16:24:14:106
0.01983,-0.022994,9.804799,1.16E-4,4.98E-4,9.806652,5.41E-4,-4.81E-4,-9.41E-4,5.58,-19.62,-23.4,197.2596,0.1639,-0.5843,55.813946,37.50027,188.9734,NaN,,100.0,,0 / 6,,5084,2021-05-01 16:24:14:115
0.020417,0.011995,9.781051,-1.2E-5,7.3E-4,9.806653,0.001763,7.4E-4,-9.41E-4,5.52,-19.62,-23.1,197.2596,0.1639,-0.5843,55.813946,37.50027,188.9734,NaN,,100.0,,0 / 6,,5094,2021-05-01 16:24:14:125
-0.012767,0.002268,9.774107,-1.2E-5,7.3E-4,9.806653,-7.0E-5,0.001962,-0.001552,5.52,-19.62,-23.1,197.2596,0.1639,-0.5843,55.813946,37.50027,188.9734,NaN,,100.0,,0 / 6,,5105,2021-05-01 16:24:14:136
-0.012767,0.002268,9.774107,-2.52E-4,0.00103,9.806649,0.001763,1.3E-4,2.8E-4,5.88,-19.44,-22.5,198.082,0.1679,-0.5856,55.813946,37.50027,188.9734,NaN,,100.0,,0 / 6,,5115,2021-05-01 16:24:14:146
0.022041,4.69E-4,9.766606,-2.52E-4,0.00103,9.806649,0.001763,1.3E-4,2.8E-4,5.88,-19.44,-22.5,198.082,0.1679,-0.5856,55.813946,37.50027,188.9734,NaN,,100.0,,0 / 6,,5124,2021-05-01 16:24:14:155
-0.029844,-0.002594,9.719157,9.4E-5,0.001369,9.806649,0.001763,1.3E-4,-3.3E-4,6.0,-19.08,-22.62,198.082,0.1679,-0.5856,55.813946,37.50027,188.9734,NaN,,100.0,,0 / 6,,5134,2021-05-01 16:24:14:165
-0.003944,-0.001034,9.738093,9.4E-5,0.001369,9.806649,0.001763,0.001962,0.004556,6.0,-19.08,-22.62,198.082,0.1679,-0.5856,55.813946,37.50027,188.9734,NaN,,100.0,,0 / 6,,5145,2021-05-01 16:24:14:176
-0.012893,-0.014669,9.757253,1.31E-4,-2.93E-4,9.80665,-0.001291,1.3E-4,-3.3E-4,5.64,-19.14,-24.06,198.1317,0.1757,-0.5875,55.813946,37.50027,188.9734,NaN,,100.0,,0 / 6,,5155,2021-05-01 16:24:14:186
-0.012893,-0.014669,9.757253,1.31E-4,-2.93E-4,9.80665,-7.0E-5,-4.81E-4,-9.41E-4,5.64,-19.14,-24.06,198.1317,0.1757,-0.5875,55.813946,37.50027,188.9734,NaN,,100.0,,0 / 6,,5164,2021-05-01 16:24:14:195
0.002628,-0.014851,9.800214,1.44E-4,-1.55E-4,9.80665,-7.0E-5,1.3E-4,-0.001552,5.76,-19.74,-24.3,198.1317,0.1757,-0.5875,55.813946,37.50027,188.9734,NaN,,100.0,,0 / 6,,5174,2021-05-01 16:24:14:205
0.013379,0.004488,9.742772,1.44E-4,-1.55E-4,9.80665,-6.81E-4,0.001351,-0.002163,5.76,-19.74,-24.3,198.1317,0.1757,-0.5875,55.813946,37.50027,188.9734,NaN,,100.0,,0 / 6,,5184,2021-05-01 16:24:14:215
0.006456,-0.018295,9.788188,1.38E-4,-5.34E-4,9.806651,-6.81E-4,7.4E-4,-9.41E-4,6.3,-19.68,-23.58,197.2825,0.1751,-0.5865,55.813946,37.50027,188.9734,NaN,,100.0,,0 / 6,,5194,2021-05-01 16:24:14:225
0.006456,-0.018295,9.788188,1.38E-4,-5.34E-4,9.806651,0.002374,0.002573,0.003946,6.3,-19.68,-23.58,197.2825,0.1751,-0.5865,55.813946,37.50027,188.9734,NaN,,100.0,,0 / 6,,5205,2021-05-01 16:24:14:236
0.017374,-0.014039,9.747413,7.57E-4,-0.00152,9.80665,5.41E-4,-4.81E-4,8.91E-4,5.76,-19.5,-22.98,197.2825,0.1751,-0.5865,55.813946,37.50027,188.9734,NaN,,100.0,,0 / 6,,5215,2021-05-01 16:24:14:246
-0.021599,0.005592,9.752664,7.57E-4,-0.00152,9.80665,5.41E-4,-4.81E-4,8.91E-4,5.76,-19.5,-22.98,197.2825,0.1751,-0.5865,55.813946,37.50027,188.9734,NaN,,100.0,,0 / 6,,5224,2021-05-01 16:24:14:255
-0.010477,-0.011785,9.72372,8.37E-4,-5.23E-4,9.80665,0.001763,1.3E-4,-9.41E-4,4.98,-19.26,-22.92,195.3453,0.168,-0.5796,55.813946,37.50027,188.9734,NaN,,100.0,,0 / 6,,5234,2021-05-01 16:24:14:265
-0.010477,-0.011785,9.72372,8.37E-4,-5.23E-4,9.80665,-7.0E-5,0.002573,8.91E-4,4.98,-19.26,-22.92,195.3453,0.168,-0.5796,55.813946,37.50027,188.9734,NaN,,100.0,,0 / 6,,5245,2021-05-01 16:24:14:276
-0.010294,-0.014595,9.81469,0.001097,-0.001234,9.80665,5.41E-4,1.3E-4,8.91E-4,5.28,-18.9,-22.98,195.3453,0.168,-0.5796,55.813946,37.50027,188.9734,NaN,,100.0,,0 / 6,,5254,2021-05-01 16:24:14:285
0.007554,0.008044,9.740427,0.001097,-0.001234,9.80665,0.001152,0.001351,-0.002774,5.28,-18.9,-22.98,195.3453,0.168,-0.5796,55.813946,37.50027,188.9734,NaN,,100.0,,0 / 6,,5264,2021-05-01 16:24:14:295
0.007554,0.008044,9.740427,-6.5E-4,-0.001697,9.80665,-7.0E-5,0.006849,0.002724,5.34,-19.62,-22.5,194.5823,0.1627,-0.5715,55.813946,37.50027,188.9734,NaN,,100.0,,0 / 6,,5275,2021-05-01 16:24:14:306
0.002919,-0.001991,9.694903,-6.5E-4,-0.001697,9.80665,-0.001291,-0.001092,-9.41E-4,5.34,-19.62,-22.5,194.5823,0.1627,-0.5715,55.813946,37.50027,188.9734,NaN,,100.0,,0 / 6,,5284,2021-05-01 16:24:14:315
0.00124,0.018089,9.745306,-3.66E-4,-0.002109,9.80665,-0.001291,-4.81E-4,-9.41E-4,4.92,-19.74,-22.44,194.5823,0.1627,-0.5715,55.813946,37.50027,188.9734,NaN,,100.0,,0 / 6,,5294,2021-05-01 16:24:14:325
0.021192,-0.012001,9.80004,-3.66E-4,-0.002109,9.80665,0.001763,-0.004757,-3.3E-4,4.92,-19.74,-22.44,194.5823,0.1627,-0.5715,55.813946,37.50027,188.9734,NaN,,100.0,,0 / 6,,5305,2021-05-01 16:24:14:336
0.021192,-0.012001,9.80004,6.21E-4,-5.16E-4,9.80665,-0.001902,0.006238,2.8E-4,5.52,-18.84,-23.1,198.0971,0.1502,-0.5705,55.813946,37.50027,188.9734,NaN,,100.0,,0 / 6,,5314,2021-05-01 16:24:14:345
-8.7E-5,-0.006927,9.826587,6.21E-4,-5.16E-4,9.80665,0.003596,-0.005979,0.002113,5.52,-18.84,-23.1,198.0971,0.1502,-0.5705,55.813946,37.50027,188.9734,NaN,,100.0,,0 / 6,,5325,2021-05-01 16:24:14:356
-0.010441,-0.031285,9.838512,0.001035,-8.01E-4,9.80665,0.003596,-0.005979,0.002113,6.24,-19.08,-22.74,198.0971,0.1502,-0.5705,55.813946,37.50027,188.9734,NaN,,100.0,,0 / 6,,5334,2021-05-01 16:24:14:365
-0.015003,-0.004407,9.76687,0.001035,-8.01E-4,9.80665,0.002374,0.002573,-3.3E-4,6.24,-19.08,-22.74,198.0971,0.1502,-0.5705,55.813946,37.50027,188.9734,NaN,,100.0,,0 / 6,,5344,2021-05-01 16:24:14:375
-0.015003,-0.004407,9.76687,-0.001343,-0.001104,9.80665,-0.004957,0.009903,8.91E-4,6.18,-18.78,-22.38,198.0657,0.1477,-0.5633,55.813946,37.50027,188.9734,NaN,,100.0,,0 / 6,,5354,2021-05-01 16:24:14:385
-0.002641,-0.007901,9.735603,-1.79E-4,-4.81E-4,9.80665,-0.001902,-0.004757,2.8E-4,5.76,-18.78,-22.62,198.0657,0.1477,-0.5633,55.813946,37.50027,188.9734,NaN,,100.0,,0 / 6,,5365,2021-05-01 16:24:14:396
-0.002641,-0.007901,9.735603,-1.79E-4,-4.81E-4,9.80665,0.001152,-0.004757,-9.41E-4,5.76,-18.78,-22.62,198.0657,0.1477,-0.5633,55.813946,37.50027,188.9734,NaN,,100.0,,0 / 6,,5374,2021-05-01 16:24:14:405
-0.002995,0.001898,9.879324,-0.001507,-2.15E-4,9.806649,5.41E-4,0.001351,-3.3E-4,5.52,-19.02,-23.4,198.0657,0.1477,-0.5633,55.813946,37.50027,188.9734,NaN,,100.0,,0 / 6,,5384,2021-05-01 16:24:14:415
-0.017912,0.001655,9.905788,-0.001507,-2.15E-4,9.806649,0.002374,-0.004147,0.001502,5.52,-19.02,-23.4,198.0657,0.1477,-0.5633,55.813946,37.50027,188.9734,NaN,,100.0,,0 / 6,,5395,2021-05-01 16:24:14:426
0.001228,-9.52E-4,9.75238,7.44E-4,-6.68E-4,9.806649,-0.003124,0.008071,-9.41E-4,5.58,-19.32,-23.34,198.1002,0.1437,-0.5713,55.813946,37.50027,188.9734,NaN,,100.0,,0 / 6,,5404,2021-05-01 16:24:14:435
0.011304,-0.001796,9.778625,0.001014,-0.00146,9.806649,-7.0E-5,0.008071,-9.41E-4,5.52,-19.44,-23.1,198.1002,0.1437,-0.5713,55.813946,37.50027,188.9734,NaN,,100.0,,0 / 6,,5414,2021-05-01 16:24:14:445
0.011304,-0.001796,9.778625,0.001014,-0.00146,9.806649,-7.0E-5,0.008071,-9.41E-4,5.52,-19.44,-23.1,198.1002,0.1437,-0.5713,55.813946,37.50027,188.9734,NaN,,100.0,,0 / 6,,5424,2021-05-01 16:24:14:455
0.010659,0.010952,9.800251,8.13E-4,-0.002441,9.806649,0.003596,0.003184,0.001502,4.98,-18.84,-22.44,198.1002,0.1437,-0.5713,55.813946,37.50027,188.9734,NaN,,100.0,,0 / 6,,5435,2021-05-01 16:24:14:466
0.002924,0.003468,9.776333,8.13E-4,-0.002441,9.806649,0.001763,1.3E-4,0.002113,4.98,-18.84,-22.44,198.1002,0.1437,-0.5713,55.813946,37.50027,188.9734,NaN,,100.0,,0 / 6,,5444,2021-05-01 16:24:14:475
0.002924,0.003468,9.776333,-0.001219,-1.0E-4,9.80665,-6.81E-4,-0.001092,-9.41E-4,4.86,-18.54,-22.8,195.3371,0.1317,-0.5623,55.813946,37.50027,188.9734,NaN,,100.0,,0 / 6,,5454,2021-05-01 16:24:14:485
0.005848,-0.014928,9.759436,-0.002016,2.16E-4,9.80665,-0.001291,0.002573,2.8E-4,4.68,-19.02,-22.98,195.3371,0.1317,-0.5623,55.813946,37.50027,188.9734,NaN,,100.0,,0 / 6,,5465,2021-05-01 16:24:14:496
0.005848,-0.014928,9.759436,-0.002016,2.16E-4,9.80665,0.002374,-0.001703,-3.3E-4,4.68,-19.02,-22.98,195.3371,0.1317,-0.5623,55.813946,37.50027,188.9734,NaN,,100.0,,0 / 6,,5474,2021-05-01 16:24:14:505
0.003536,0.013027,9.754802,-0.001829,-2.59E-4,9.806649,0.002374,-0.002314,-0.001552,5.04,-19.56,-23.16,195.3371,0.1317,-0.5623,55.813946,37.50027,188.9734,NaN,,100.0,,0 / 6,,5484,2021-05-01 16:24:14:515
-0.011153,0.015017,9.807634,4.83E-4,1.31E-4,9.80665,-6.81E-4,0.001962,0.002724,5.16,-19.62,-23.4,194.6176,0.1274,-0.5722,55.813946,37.50027,188.9734,NaN,,100.0,,0 / 6,,5495,2021-05-01 16:24:14:526
0.022083,0.001478,9.773746,4.83E-4,1.31E-4,9.80665,-7.0E-5,-4.81E-4,2.8E-4,5.16,-19.62,-23.4,194.6176,0.1274,-0.5722,55.813946,37.50027,188.9734,NaN,,100.0,,0 / 6,,5504,2021-05-01 16:24:14:535
0.010295,0.014526,9.740394,8.9E-5,4.84E-4,9.806649,-7.0E-5,-0.002925,0.001502,5.4,-19.62,-23.22,194.6176,0.1274,-0.5722,55.813946,37.50027,188.9734,NaN,,100.0,,0 / 6,,5514,2021-05-01 16:24:14:545
0.010295,0.014526,9.740394,8.9E-5,4.84E-4,9.806649,-7.0E-5,-0.002925,0.001502,5.4,-19.62,-23.22,194.6176,0.1274,-0.5722,55.813946,37.50027,188.9734,NaN,,100.0,,0 / 6,,5524,2021-05-01 16:24:14:555
0.007422,0.032634,9.723743,6.4E-4,-3.16E-4,9.806648,-6.81E-4,0.001962,0.002724,5.22,-19.56,-22.92,194.617,0.1302,-0.5724,55.813946,37.50027,188.9734,NaN,,100.0,,0 / 6,,5535,2021-05-01 16:24:14:566
-6.6E-4,-0.010445,9.785872,6.4E-4,-3.16E-4,9.806648,-6.81E-4,0.001962,-0.002774,5.22,-19.56,-22.92,194.617,0.1302,-0.5724,55.813946,37.50027,188.9734,NaN,,100.0,,0 / 6,,5544,2021-05-01 16:24:14:575
0.009594,-8.21E-4,9.81695,9.45E-4,-3.92E-4,9.806649,0.001152,0.003795,-0.002163,5.28,-20.16,-22.5,194.617,0.1302,-0.5724,55.813946,37.50027,188.9734,NaN,,100.0,,0 / 6,,5554,2021-05-01 16:24:14:585
-8.77E-4,-0.010332,9.76193,9.53E-4,-4.55E-4,9.806649,0.001152,1.3E-4,-3.3E-4,5.16,-20.16,-22.68,194.617,0.1302,-0.5724,55.813946,37.50027,188.9734,NaN,,100.0,,0 / 6,,5564,2021-05-01 16:24:14:595
-8.77E-4,-0.010332,9.76193,9.53E-4,-4.55E-4,9.806649,0.001152,-0.002314,-0.002163,5.16,-20.16,-22.68,194.617,0.1302,-0.5724,55.813946,37.50027,188.9734,NaN,,100.0,,0 / 6,,5575,2021-05-01 16:24:14:606
-0.015528,0.019739,9.755015,2.9E-5,3.4E-5,9.806651,0.001763,-0.002314,-3.3E-4,5.7,-19.38,-23.1,198.1001,0.1291,-0.5664,55.813946,37.50027,188.9734,NaN,,100.0,,0 / 6,,5584,2021-05-01 16:24:14:615
0.002415,0.00368,9.805058,2.9E-5,3.4E-5,9.806651,0.003596,7.4E-4,0.003335,5.7,-19.38,-23.1,198.1001,0.1291,-0.5664,55.813946,37.50027,188.9734,NaN,,100.0,,0 / 6,,5594,2021-05-01 16:24:14:625
0.005052,0.028075,9.776429,-4.34E-4,6.94E-4,9.806651,0.003596,7.4E-4,0.003335,6.12,-19.26,-22.8,198.1001,0.1291,-0.5664,55.813946,37.50027,188.9734,NaN,,100.0,,0 / 6,,5604,2021-05-01 16:24:14:635
0.005052,0.028075,9.776429,-3.25E-4,0.001133,9.80665,-6.81E-4,0.005627,-0.002774,5.7,-19.38,-22.26,198.1001,0.1291,-0.5664,55.813946,37.50027,188.9734,NaN,,100.0,,0 / 6,,5614,2021-05-01 16:24:14:645
-0.025861,0.007741,9.865185,-3.25E-4,0.001133,9.80665,0.002374,-0.004147,8.91E-4,5.7,-19.38,-22.26,198.1001,0.1291,-0.5664,55.813946,37.50027,188.9734,NaN,,100.0,,0 / 6,,5624,2021-05-01 16:24:14:655
0.006995,0.018826,9.826646,-1.83E-4,5.31E-4,9.806651,-0.001291,0.004406,2.8E-4,5.28,-19.62,-22.26,194.5884,0.1348,-0.5702,55.813946,37.50027,188.9734,NaN,,100.0,,0 / 6,,5634,2021-05-01 16:24:14:665
0.006911,-0.015544,9.725917,-1.83E-4,5.31E-4,9.806651,5.41E-4,-0.001092,-9.41E-4,5.28,-19.62,-22.26,194.5884,0.1348,-0.5702,55.813946,37.50027,188.9734,NaN,,100.0,,0 / 6,,5644,2021-05-01 16:24:14:675
-0.002445,0.004122,9.762012,-8.59E-4,9.74E-4,9.80665,-0.003735,7.4E-4,2.8E-4,4.74,-20.22,-22.68,194.5884,0.1348,-0.5702,55.813946,37.50027,188.9734,NaN,,100.0,,0 / 6,,5654,2021-05-01 16:24:14:685
-0.002445,0.004122,9.762012,-6.42E-4,0.001292,9.806651,-0.001902,-0.001703,-3.3E-4,5.22,-19.92,-23.28,194.5884,0.1348,-0.5702,55.813946,37.50027,188.9734,NaN,,100.0,,0 / 6,,5665,2021-05-01 16:24:14:696
-0.005949,0.002717,9.697387,-6.42E-4,0.001292,9.806651,-0.001902,-0.001703,-3.3E-4,5.22,-19.92,-23.28,194.5884,0.1348,-0.5702,55.813946,37.50027,188.9734,NaN,,100.0,,0 / 6,,5674,2021-05-01 16:24:14:705
0.009434,-0.024781,9.658811,-2.8E-4,9.15E-4,9.806648,5.41E-4,0.006238,0.001502,5.22,-19.44,-22.68,195.3493,0.1411,-0.5758,55.813946,37.50027,188.9734,NaN,,100.0,,0 / 6,,5684,2021-05-01 16:24:14:715
0.011177,0.011567,9.821797,-2.8E-4,9.15E-4,9.806648,-7.0E-5,-0.009033,2.8E-4,5.22,-19.44,-22.68,195.3493,0.1411,-0.5758,55.813946,37.50027,188.9734,NaN,,100.0,,0 / 6,,5694,2021-05-01 16:24:14:725
0.011177,0.011567,9.821797,-7.11E-4,0.001059,9.806648,0.003596,-0.005979,8.91E-4,5.58,-19.8,-22.2,195.3493,0.1411,-0.5758,55.813946,37.50027,188.9734,NaN,,100.0,,0 / 6,,5705,2021-05-01 16:24:14:736
-0.006112,0.021303,9.812425,-8.43E-4,0.001405,9.806648,0.002985,0.001351,0.002113,5.58,-19.74,-22.62,195.3493,0.1411,-0.5758,55.813946,37.50027,188.9734,NaN,,100.0,,0 / 6,,5714,2021-05-01 16:24:14:745
-0.014542,-0.001273,9.836331,-8.43E-4,0.001405,9.806648,-7.0E-5,-0.001703,-3.3E-4,5.58,-19.74,-22.62,195.3493,0.1411,-0.5758,55.813946,37.50027,188.9734,NaN,,100.0,,0 / 6,,5724,2021-05-01 16:24:14:755
-0.006279,0.015646,9.783688,3.26E-4,7.11E-4,9.806651,-7.0E-5,7.4E-4,-0.002163,5.52,-19.92,-23.34,197.2633,0.1478,-0.5827,55.813946,37.50027,188.9734,NaN,,100.0,,0 / 6,,5735,2021-05-01 16:24:14:766
-0.006279,0.015646,9.783688,3.26E-4,7.11E-4,9.806651,0.001763,7.4E-4,0.003335,5.52,-19.92,-23.34,197.2633,0.1478,-0.5827,55.813946,37.50027,188.9734,NaN,,100.0,,0 / 6,,5744,2021-05-01 16:24:14:775
-0.018995,0.009788,9.70236,0.001116,0.001432,9.806651,0.002374,-0.001703,2.8E-4,5.28,-19.38,-22.86,197.2633,0.1478,-0.5827,55.813946,37.50027,188.9734,NaN,,100.0,,0 / 6,,5754,2021-05-01 16:24:14:785
-0.016452,0.00892,9.731065,9.81E-4,0.001544,9.806651,0.002985,1.3E-4,0.002724,5.4,-19.32,-22.44,197.2633,0.1478,-0.5827,55.813946,37.50027,188.9734,NaN,,100.0,,0 / 6,,5764,2021-05-01 16:24:14:795
-0.00254,-0.005658,9.814665,9.81E-4,0.001544,9.806651,-7.0E-5,-0.001092,0.001502,5.4,-19.32,-22.44,197.2633,0.1478,-0.5827,55.813946,37.50027,188.9734,NaN,,100.0,,0 / 6,,5774,2021-05-01 16:24:14:805
-0.018126,0.004382,9.750211,-3.0E-5,-1.53E-4,9.80665,-0.002513,0.003184,-3.3E-4,5.4,-19.5,-22.02,195.3225,0.1581,-0.5799,55.813934,37.500305,185.56,NaN,8.0E-4,1.5,276.6139,5 / 7,,5785,2021-05-01 16:24:14:816
-0.018126,0.004382,9.750211,-3.0E-5,-1.53E-4,9.80665,0.003596,7.4E-4,0.001502,5.4,-19.5,-22.02,195.3225,0.1581,-0.5799,55.813934,37.500305,185.56,NaN,8.0E-4,1.5,276.6139,5 / 7,,5794,2021-05-01 16:24:14:825
-0.011501,0.002663,9.71662,2.16E-4,6.97E-4,9.80665,-6.81E-4,-4.81E-4,2.8E-4,5.04,-19.92,-23.22,195.3225,0.1581,-0.5799,55.813934,37.500305,185.56,NaN,8.0E-4,1.5,276.6139,5 / 7,,5804,2021-05-01 16:24:14:835
0.002418,0.006147,9.769191,2.19E-4,0.0,9.80665,-0.001902,-0.002925,-3.3E-4,5.1,-19.86,-23.04,194.6159,0.1623,-0.5798,55.813934,37.500305,185.56,NaN,8.0E-4,1.5,276.6139,5 / 7,,5814,2021-05-01 16:24:14:845
0.002418,0.006147,9.769191,2.19E-4,0.0,9.80665,-0.001902,-0.002925,-3.3E-4,5.1,-19.86,-23.04,194.6159,0.1623,-0.5798,55.813934,37.500305,185.56,NaN,8.0E-4,1.5,276.6139,5 / 7,,5825,2021-05-01 16:24:14:856
0.008051,-0.001068,9.788258,2.98E-4,4.25E-4,9.80665,0.002985,0.001351,0.002724,5.46,-20.76,-23.64,194.6159,0.1623,-0.5798,55.813934,37.500305,185.56,NaN,8.0E-4,1.5,276.6139,5 / 7,,5834,2021-05-01 16:24:14:865
0.012262,0.0079,9.730801,2.98E-4,4.25E-4,9.80665,5.41E-4,0.006238,0.002113,5.46,-20.76,-23.64,194.6159,0.1623,-0.5798,55.813934,37.500305,185.56,NaN,8.0E-4,1.5,276.6139,5 / 7,,5844,2021-05-01 16:24:14:875
0.001598,0.015131,9.730937,7.88E-4,-3.82E-4,9.806653,0.001152,0.001962,-0.003385,5.04,-20.46,-23.58,194.639,0.1652,-0.5787,55.813934,37.500305,185.56,NaN,8.0E-4,1.5,276.6139,5 / 7,,5855,2021-05-01 16:24:14:886
-0.005878,-0.015214,9.773943,7.88E-4,-3.82E-4,9.806653,0.001763,-0.002925,8.91E-4,5.04,-20.46,-23.58,194.639,0.1652,-0.5787,55.813934,37.500305,185.56,NaN,8.0E-4,1.5,276.6139,5 / 7,,5864,2021-05-01 16:24:14:895
-0.005878,-0.015214,9.773943,3.71E-4,3.91E-4,9.806652,0.001763,7.4E-4,0.001502,4.92,-19.98,-22.86,194.639,0.1652,-0.5787,55.813934,37.500305,185.56,NaN,8.0E-4,1.5,276.6139,5 / 7,,5874,2021-05-01 16:24:14:905
-0.016064,0.012199,9.771787,3.71E-4,3.91E-4,9.806652,-7.0E-5,7.4E-4,0.003335,4.92,-19.98,-22.86,194.639,0.1652,-0.5787,55.813934,37.500305,185.56,NaN,8.0E-4,1.5,276.6139,5 / 7,,5884,2021-05-01 16:24:14:915
0.011452,0.024362,9.75963,-3.71E-4,-7.0E-5,9.806652,0.001152,0.001351,8.91E-4,5.4,-20.22,-23.04,194.6116,0.1679,-0.5772,55.813934,37.500305,185.56,NaN,8.0E-4,1.5,276.6139,5 / 7,,5894,2021-05-01 16:24:14:925
-0.002065,0.010572,9.757283,-3.71E-4,-7.0E-5,9.806652,5.41E-4,0.002573,0.003335,5.4,-20.22,-23.04,194.6116,0.1679,-0.5772,55.813934,37.500305,185.56,NaN,8.0E-4,1.5,276.6139,5 / 7,,5904,2021-05-01 16:24:14:935
-0.001133,-0.014421,9.759535,2.02E-4,5.61E-4,9.806652,-6.81E-4,0.001962,8.91E-4,5.1,-20.64,-23.04,194.6116,0.1679,-0.5772,55.813934,37.500305,185.56,NaN,8.0E-4,1.5,276.6139,5 / 7,,5915,2021-05-01 16:24:14:946
-0.001133,-0.014421,9.759535,2.02E-4,5.61E-4,9.806652,-7.0E-5,1.3E-4,-0.002163,5.1,-20.64,-23.04,194.6116,0.1679,-0.5772,55.813934,37.500305,185.56,NaN,8.0E-4,1.5,276.6139,5 / 7,,5924,2021-05-01 16:24:14:955
-0.00489,-0.001128,9.778795,1.24E-4,9.55E-4,9.806649,0.001763,-0.004147,8.91E-4,5.46,-20.88,-23.22,193.9445,0.1714,-0.5769,55.813934,37.500305,185.56,NaN,8.0E-4,1.5,276.6139,5 / 7,,5934,2021-05-01 16:24:14:965
-0.028048,0.003869,9.807764,1.24E-4,9.55E-4,9.806649,0.004206,-0.005979,0.003335,5.46,-20.88,-23.22,193.9445,0.1714,-0.5769,55.813934,37.500305,185.56,NaN,8.0E-4,1.5,276.6139,5 / 7,,5945,2021-05-01 16:24:14:976
-0.010657,-0.005368,9.80277,7.48E-4,0.001109,9.806649,0.006039,0.003184,8.91E-4,5.7,-20.28,-23.04,193.9445,0.1714,-0.5769,55.813934,37.500305,185.56,NaN,8.0E-4,1.5,276.6139,5 / 7,,5955,2021-05-01 16:24:14:986
-5.36E-4,0.009691,9.704587,7.48E-4,0.001109,9.806649,5.41E-4,0.00746,-0.001552,5.7,-20.28,-23.04,193.9445,0.1714,-0.5769,55.813934,37.500305,185.56,NaN,8.0E-4,1.5,276.6139,5 / 7,,5964,2021-05-01 16:24:14:995
-5.36E-4,0.009691,9.704587,-2.12E-4,4.73E-4,9.806651,5.41E-4,0.00746,-0.001552,5.64,-20.34,-22.62,197.2444,0.1787,-0.5742,55.813934,37.500305,185.56,NaN,8.0E-4,1.5,276.6139,5 / 7,,5976,2021-05-01 16:24:15:007
0.00176,-0.020165,9.843271,-2.12E-4,4.73E-4,9.806651,5.41E-4,0.006849,0.001502,5.64,-20.34,-22.62,197.2444,0.1787,-0.5742,55.813934,37.500305,185.56,NaN,8.0E-4,1.5,276.6139,5 / 7,,5985,2021-05-01 16:24:15:016
0.004158,-4.78E-4,9.728436,-3.02E-4,6.95E-4,9.806651,0.002374,-0.001092,8.91E-4,5.94,-20.7,-22.98,197.2444,0.1787,-0.5742,55.813934,37.500305,185.56,NaN,8.0E-4,1.5,276.6139,5 / 7,,5994,2021-05-01 16:24:15:025
-0.011001,-7.79E-4,9.72617,-3.02E-4,6.95E-4,9.806651,-6.81E-4,0.003795,8.91E-4,5.94,-20.7,-22.98,197.2444,0.1787,-0.5742,55.813934,37.500305,185.56,NaN,8.0E-4,1.5,276.6139,5 / 7,,6004,2021-05-01 16:24:15:035
-0.013076,0.013917,9.774172,-1.88E-4,-5.0E-4,9.806651,5.41E-4,1.3E-4,0.002724,5.52,-20.88,-22.86,196.4732,0.1821,-0.5771,55.813934,37.500305,185.56,NaN,8.0E-4,1.5,276.6139,5 / 7,,6014,2021-05-01 16:24:15:045
-0.013076,0.013917,9.774172,-1.88E-4,-5.0E-4,9.806651,0.004206,0.003184,0.003335,5.52,-20.88,-22.86,196.4732,0.1821,-0.5771,55.813934,37.500305,185.56,NaN,8.0E-4,1.5,276.6139,5 / 7,,6025,2021-05-01 16:24:15:056
-0.01423,-0.005596,9.738151,-8.24E-4,-8.43E-4,9.80665,-6.81E-4,-0.001092,-3.3E-4,4.68,-20.88,-22.8,196.4732,0.1821,-0.5771,55.813934,37.500305,185.56,NaN,8.0E-4,1.5,276.6139,5 / 7,,6035,2021-05-01 16:24:15:066
0.015742,0.027962,9.74527,-8.24E-4,-8.43E-4,9.80665,-7.0E-5,0.001962,-0.001552,4.68,-20.88,-22.8,196.4732,0.1821,-0.5771,55.813934,37.500305,185.56,NaN,8.0E-4,1.5,276.6139,5 / 7,,6044,2021-05-01 16:24:15:075
0.011848,-0.027893,9.737808,-0.002057,-0.001438,9.806651,-7.0E-5,0.001962,-0.001552,4.92,-20.64,-22.74,193.9543,0.1706,-0.5862,55.813934,37.500305,185.56,NaN,8.0E-4,1.5,276.6139,5 / 7,,6054,2021-05-01 16:24:15:085
0.011848,-0.027893,9.737808,-0.002057,-0.001438,9.806651,5.41E-4,-0.007812,0.001502,4.92,-20.64,-22.74,193.9543,0.1706,-0.5862,55.813934,37.500305,185.56,NaN,8.0E-4,1.5,276.6139,5 / 7,,6065,2021-05-01 16:24:15:096
0.033762,0.001238,9.725791,-0.001604,-6.57E-4,9.806648,-0.001902,0.004406,0.002724,5.1,-20.46,-22.86,193.9543,0.1706,-0.5862,55.813934,37.500305,185.56,NaN,8.0E-4,1.5,276.6139,5 / 7,,6075,2021-05-01 16:24:15:106
0.00745,8.22E-4,9.579972,-0.001604,-6.57E-4,9.806648,0.004206,7.4E-4,-9.41E-4,5.1,-20.46,-22.86,193.9543,0.1706,-0.5862,55.813934,37.500305,185.56,NaN,8.0E-4,1.5,276.6139,5 / 7,,6084,2021-05-01 16:24:15:115
-0.01975,0.019955,9.920346,-3.05E-4,-8.44E-4,9.806651,-0.001902,0.013569,-0.002163,4.98,-20.52,-23.52,193.9889,0.1647,-0.5944,55.813934,37.500305,185.56,NaN,8.0E-4,1.5,276.6139,5 / 7,,6094,2021-05-01 16:24:15:125
-0.01975,0.019955,9.920346,-3.05E-4,-8.44E-4,9.806651,-6.81E-4,0.002573,0.002724,4.98,-20.52,-23.52,193.9889,0.1647,-0.5944,55.813934,37.500305,185.56,NaN,8.0E-4,1.5,276.6139,5 / 7,,6104,2021-05-01 16:24:15:135
-0.017987,-0.032293,9.917659,-0.001519,-0.001769,9.806651,5.41E-4,7.4E-4,8.91E-4,4.68,-20.7,-23.58,193.9889,0.1647,-0.5944,55.813934,37.500305,185.56,NaN,8.0E-4,1.5,276.6139,5 / 7,,6115,2021-05-01 16:24:15:146
0.016865,-0.025808,9.795252,-0.001519,-0.001769,9.806651,0.002985,0.009292,-0.001552,4.68,-20.7,-23.58,193.9889,0.1647,-0.5944,55.813934,37.500305,185.56,NaN,8.0E-4,1.5,276.6139,5 / 7,,6124,2021-05-01 16:24:15:155
0.015475,0.028153,9.922452,-6.15E-4,-0.001265,9.80665,0.001763,0.006238,2.8E-4,4.8,-20.88,-23.4,193.9736,0.1525,-0.6005,55.813934,37.500305,185.56,NaN,8.0E-4,1.5,276.6139,5 / 7,,6134,2021-05-01 16:24:15:165
