ACCELEROMETER X (m/s²),ACCELEROMETER Y (m/s²),ACCELEROMETER Z (m/s²),GRAVITY X (m/s²),GRAVITY Y (m/s²),GRAVITY Z (m/s²),GYROSCOPE X (rad/s),GYROSCOPE Y (rad/s),GYROSCOPE Z (rad/s),MAGNETIC FIELD X (μT),MAGNETIC FIELD Y (μT),MAGNETIC FIELD Z (μT),ORIENTATION Z (azimuth °),ORIENTATION X (pitch °),ORIENTATION Y (roll °),LOCATION Latitude : ,LOCATION Longitude : ,LOCATION Altitude ( m),LOCATION Altitude-google ( m),LOCATION Speed ( m/s),LOCATION Accuracy ( m),LOCATION ORIENTATION (°),Satellites in range,GPS NMEA,Time since start in ms ,YYYY-MO-DD HH-MI-SS_SSS
0.009897,0.003826,9.759532,-1.3E-4,-1.31E-4,9.806651,5.41E-4,-0.002314,0.001502,6.48,-23.7,-24.72,196.7764,0.1445,-0.5833,55.813934,37.50007,187.1065,NaN,0.0,12.0,,16 / 17,,9,2021-05-01 16:24:30:547
-0.014556,-0.003901,9.795629,5.44E-4,-4.86E-4,9.806651,0.001152,7.4E-4,-0.001552,5.88,-23.1,-24.18,195.1514,0.1435,-0.5838,55.813934,37.50007,187.1065,NaN,0.0,12.0,,16 / 17,,19,2021-05-01 16:24:30:557
-0.003105,-0.017091,9.7787,5.44E-4,-4.86E-4,9.806651,0.001152,7.4E-4,-0.001552,5.88,-23.1,-24.18,195.1514,0.1435,-0.5838,55.813934,37.50007,187.1065,NaN,0.0,12.0,,16 / 17,,29,2021-05-01 16:24:30:567
0.00631,0.007583,9.802682,9.11E-4,-9.59E-4,9.806651,5.41E-4,1.3E-4,8.91E-4,5.94,-23.4,-24.06,195.1514,0.1435,-0.5838,55.813934,37.50007,187.1065,NaN,0.0,12.0,,16 / 17,,39,2021-05-01 16:24:30:577
0.00631,0.007583,9.802682,9.11E-4,-9.59E-4,9.806651,5.41E-4,7.4E-4,2.8E-4,5.94,-23.4,-24.06,195.1514,0.1435,-0.5838,55.813934,37.50007,187.1065,NaN,0.0,12.0,,16 / 17,,49,2021-05-01 16:24:30:587
-5.03E-4,0.012051,9.747696,6.5E-4,-8.65E-4,9.806651,5.41E-4,-0.001092,-3.3E-4,6.24,-23.7,-23.94,195.1514,0.1435,-0.5838,55.813934,37.50007,187.1065,NaN,0.0,12.0,,16 / 17,,60,2021-05-01 16:24:30:598
-0.004746,-0.014178,9.783518,6.5E-4,-8.65E-4,9.806651,-7.0E-5,-0.001092,0.003946,6.24,-23.7,-23.94,195.1514,0.1435,-0.5838,55.813934,37.50007,187.1065,NaN,0.0,12.0,,16 / 17,,70,2021-05-01 16:24:30:608
0.002842,0.006739,9.785939,-1.4E-5,2.4E-5,9.80665,0.001152,1.3E-4,0.001502,7.02,-22.68,-24.42,197.4364,0.1396,-0.5788,55.813934,37.50007,187.1065,NaN,0.0,12.0,,16 / 17,,79,2021-05-01 16:24:30:617
0.002171,-0.003064,9.776316,2.9E-5,-4.7E-5,9.806649,5.41E-4,1.3E-4,-9.41E-4,6.6,-22.44,-24.0,197.4364,0.1396,-0.5788,55.813934,37.50007,187.1065,NaN,0.0,12.0,,16 / 17,,89,2021-05-01 16:24:30:627
0.01455,0.013186,9.752348,2.9E-5,-4.7E-5,9.806649,-0.001902,1.3E-4,-9.41E-4,6.48,-22.92,-23.94,197.4364,0.1396,-0.5788,55.813934,37.50007,187.1065,NaN,0.0,12.0,,16 / 17,,100,2021-05-01 16:24:30:638
0.01455,0.013186,9.752348,-3.8E-5,1.0E-5,9.80665,-0.001902,-0.001092,-9.41E-4,6.48,-22.92,-23.94,197.4364,0.1396,-0.5788,55.813934,37.50007,187.1065,NaN,0.0,12.0,,16 / 17,,109,2021-05-01 16:24:30:647
0.002367,-0.010673,9.783456,-3.8E-5,1.0E-5,9.80665,0.001763,-4.81E-4,0.002724,6.48,-22.92,-23.94,197.4364,0.1396,-0.5788,55.813934,37.50007,187.1065,NaN,0.0,12.0,,16 / 17,,119,2021-05-01 16:24:30:657
-0.005061,-0.010861,9.781128,5.6E-5,6.8E-5,9.806649,-0.001902,-4.81E-4,-3.3E-4,6.66,-23.58,-24.54,196.7737,0.1396,-0.579,55.813934,37.50007,187.1065,NaN,0.0,12.0,,16 / 17,,129,2021-05-01 16:24:30:667
0.003407,0.009105,9.776368,5.6E-5,6.8E-5,9.806649,-6.81E-4,-4.81E-4,2.8E-4,6.66,-23.58,-24.54,196.7737,0.1396,-0.579,55.813934,37.50007,187.1065,NaN,0.0,12.0,,16 / 17,,139,2021-05-01 16:24:30:677
0.003407,0.009105,9.776368,1.98E-4,0.001224,9.806649,0.001152,-0.001092,0.001502,6.36,-23.64,-24.18,196.7737,0.1396,-0.579,55.813934,37.50007,187.1065,NaN,0.0,12.0,,16 / 17,,150,2021-05-01 16:24:30:688
-0.006819,0.009789,9.735759,1.98E-4,0.001224,9.806649,0.001152,-0.001092,0.001502,6.36,-23.64,-24.18,196.7737,0.1396,-0.579,55.813934,37.50007,187.1065,NaN,0.0,12.0,,16 / 17,,159,2021-05-01 16:24:30:697
0.001733,0.00335,9.776357,-1.2E-4,6.05E-4,9.80665,-0.001291,-0.002925,8.91E-4,6.18,-23.16,-24.36,195.1469,0.1468,-0.58,55.813934,37.50007,187.1065,NaN,0.0,12.0,,16 / 17,,169,2021-05-01 16:24:30:707
0.001733,0.00335,9.776357,-1.2E-4,6.05E-4,9.80665,-0.001291,-0.002925,8.91E-4,6.18,-23.16,-24.36,195.1469,0.1468,-0.58,55.813934,37.50007,187.1065,NaN,0.0,12.0,,16 / 17,,179,2021-05-01 16:24:30:717
0.005555,-1.14E-4,9.75715,1.93E-4,5.65E-4,9.806649,-6.81E-4,1.3E-4,0.002113,6.78,-22.74,-24.66,195.1469,0.1468,-0.58,55.81394,37.500076,186.7814,NaN,0.0,12.0,,16 / 17,,189,2021-05-01 16:24:30:727
-0.002993,-0.005318,9.785933,1.93E-4,5.65E-4,9.806649,0.002985,1.3E-4,-9.41E-4,6.78,-22.74,-24.66,195.1469,0.1468,-0.58,55.81394,37.500076,186.7814,NaN,0.0,12.0,,16 / 17,,199,2021-05-01 16:24:30:737
-0.002993,-0.005318,9.785933,1.77E-4,-1.02E-4,9.80665,-6.81E-4,-0.001092,2.8E-4,6.78,-23.1,-24.6,197.4551,0.1503,-0.5798,55.81394,37.500076,186.7814,NaN,0.0,12.0,,16 / 17,,209,2021-05-01 16:24:30:747
-0.005541,0.012579,9.752534,2.57E-4,-3.62E-4,9.80665,5.41E-4,-0.001703,-9.41E-4,6.42,-23.4,-24.3,197.4551,0.1503,-0.5798,55.81394,37.500076,186.7814,NaN,0.0,12.0,,16 / 17,,220,2021-05-01 16:24:30:758
0.005459,-9.71E-4,9.771516,2.57E-4,-3.62E-4,9.80665,-7.0E-5,-0.002925,8.91E-4,6.42,-23.4,-24.3,197.4551,0.1503,-0.5798,55.81394,37.500076,186.7814,NaN,0.0,12.0,,16 / 17,,229,2021-05-01 16:24:30:767
0.011463,0.002161,9.771481,2.57E-4,-3.62E-4,9.80665,5.41E-4,7.4E-4,-3.3E-4,6.42,-23.4,-24.3,197.4551,0.1503,-0.5798,55.81394,37.500076,186.7814,NaN,0.0,12.0,,16 / 17,,239,2021-05-01 16:24:30:777
0.011463,0.002161,9.771481,-2.46E-4,0.001042,9.80665,5.41E-4,7.4E-4,-3.3E-4,6.72,-23.88,-24.06,196.7495,0.1487,-0.5777,55.81394,37.500076,186.7814,NaN,0.0,12.0,,16 / 17,,249,2021-05-01 16:24:30:787
-0.004659,0.00736,9.795588,-1.95E-4,0.001092,9.806649,-7.0E-5,0.001351,8.91E-4,6.78,-23.82,-23.94,196.7495,0.1487,-0.5777,55.81394,37.500076,186.7814,NaN,0.0,12.0,,16 / 17,,260,2021-05-01 16:24:30:798
-2.66E-4,0.006096,9.773994,-1.95E-4,0.001092,9.806649,0.002374,0.001962,-9.41E-4,6.78,-23.82,-23.94,196.7495,0.1487,-0.5777,55.81394,37.500076,186.7814,NaN,0.0,12.0,,16 / 17,,269,2021-05-01 16:24:30:807
0.008331,-0.00646,9.761877,-1.95E-4,0.001092,9.806649,-7.0E-5,0.001962,0.002113,6.06,-23.58,-24.24,194.5433,0.1545,-0.5806,55.81394,37.500076,186.7814,NaN,0.0,12.0,,16 / 17,,279,2021-05-01 16:24:30:817
0.007759,-0.011934,9.778624,6.43E-4,8.79E-4,9.806649,-6.81E-4,7.4E-4,-0.001552,6.06,-23.58,-24.24,194.5433,0.1545,-0.5806,55.81394,37.500076,186.7814,NaN,0.0,12.0,,16 / 17,,289,2021-05-01 16:24:30:827
0.007759,-0.011934,9.778624,6.43E-4,8.79E-4,9.806649,0.001152,1.3E-4,-0.002163,6.06,-23.58,-24.24,194.5433,0.1545,-0.5806,55.81394,37.500076,186.7814,NaN,0.0,12.0,,16 / 17,,300,2021-05-01 16:24:30:838
-0.008955,0.009736,9.771704,1.03E-4,0.001081,9.80665,5.41E-4,-0.001703,0.002113,5.88,-23.7,-24.78,194.5433,0.1545,-0.5806,55.81394,37.500076,186.7814,NaN,0.0,12.0,,16 / 17,,310,2021-05-01 16:24:30:848
0.005354,-0.001363,9.759544,1.03E-4,0.001081,9.80665,5.41E-4,7.4E-4,8.91E-4,5.88,-23.7,-24.78,194.5433,0.1545,-0.5806,55.81394,37.500076,186.7814,NaN,0.0,12.0,,16 / 17,,319,2021-05-01 16:24:30:857
0.014469,-0.014987,9.780945,-1.52E-4,-2.68E-4,9.806651,-7.0E-5,-0.001703,0.003946,6.24,-23.04,-24.6,195.1665,0.1607,-0.5816,55.81394,37.500076,186.7814,NaN,0.0,12.0,,16 / 17,,330,2021-05-01 16:24:30:868
0.01015,0.006057,9.771518,-2.75E-4,-2.83E-4,9.806651,0.003596,1.3E-4,0.001502,6.24,-23.04,-24.6,195.1665,0.1607,-0.5816,55.81394,37.500076,186.7814,NaN,0.0,12.0,,16 / 17,,339,2021-05-01 16:24:30:877
0.01015,0.006057,9.771518,-2.75E-4,-2.83E-4,9.806651,0.003596,0.001351,2.8E-4,6.66,-23.1,-23.82,195.1665,0.1607,-0.5816,55.81394,37.500076,186.7814,NaN,0.0,12.0,,16 / 17,,349,2021-05-01 16:24:30:887
0.004859,-0.014946,9.809765,-9.9E-5,-1.99E-4,9.80665,5.41E-4,1.3E-4,0.002113,6.66,-23.1,-23.82,195.1665,0.1607,-0.5816,55.81394,37.500076,186.7814,NaN,0.0,12.0,,16 / 17,,359,2021-05-01 16:24:30:897
0.009272,-0.005697,9.747519,-9.9E-5,-1.99E-4,9.80665,-6.81E-4,-4.81E-4,0.001502,6.48,-23.94,-23.58,194.5433,0.1595,-0.5819,55.81394,37.500076,186.7814,NaN,0.0,12.0,,16 / 17,,369,2021-05-01 16:24:30:907
0.00608,0.009923,9.764391,8.63E-4,-8.1E-5,9.80665,5.41E-4,-4.81E-4,8.91E-4,6.24,-23.7,-23.76,194.5433,0.1595,-0.5819,55.81394,37.500076,186.7814,NaN,0.0,12.0,,16 / 17,,380,2021-05-01 16:24:30:918
-0.0066,0.008231,9.776468,8.63E-4,-8.1E-5,9.80665,0.002374,-0.002925,-9.41E-4,6.24,-23.94,-24.0,194.5433,0.1595,-0.5819,55.81394,37.500076,186.7814,NaN,0.0,12.0,,16 / 17,,390,2021-05-01 16:24:30:928
-0.0066,0.008231,9.776468,0.001149,-7.92E-4,9.806649,0.002374,-0.002925,-9.41E-4,6.24,-23.94,-24.0,194.5433,0.1595,-0.5819,55.81394,37.500076,186.7814,NaN,0.0,12.0,,16 / 17,,399,2021-05-01 16:24:30:937
0.002538,-0.00402,9.771532,-1.08E-4,-2.14E-4,9.806649,0.003596,0.003795,0.002113,6.6,-23.52,-24.6,196.7643,0.1567,-0.5742,55.81394,37.500076,186.7814,NaN,0.0,12.0,,16 / 17,,410,2021-05-01 16:24:30:948
0.005746,-0.004597,9.759515,-1.08E-4,-2.14E-4,9.806649,-0.001291,-4.81E-4,-0.001552,6.6,-23.52,-24.6,196.7643,0.1567,-0.5742,55.81394,37.500076,186.7814,NaN,0.0,12.0,,16 / 17,,420,2021-05-01 16:24:30:958
-0.005225,0.008703,9.762079,-2.79E-4,-2.57E-4,9.806649,-7.0E-5,0.001962,8.91E-4,6.3,-23.04,-24.54,196.7643,0.1567,-0.5742,55.81394,37.500076,186.7814,NaN,0.0,12.0,,16 / 17,,430,2021-05-01 16:24:30:968
0.012466,8.6E-4,9.766669,-2.79E-4,-2.57E-4,9.806649,-7.0E-5,0.001962,8.91E-4,6.3,-23.04,-24.54,196.7643,0.1567,-0.5742,55.81394,37.500076,186.7814,NaN,0.0,12.0,,16 / 17,,439,2021-05-01 16:24:30:977
0.012466,8.6E-4,9.766669,-2.79E-4,-2.57E-4,9.806649,5.41E-4,-0.001703,0.001502,6.36,-22.56,-24.54,196.7643,0.1567,-0.5742,55.81394,37.500076,186.7814,NaN,0.0,12.0,,16 / 17,,449,2021-05-01 16:24:30:987
5.4E-5,-0.007599,9.769128,7.37E-4,-8.0E-4,9.806651,-7.0E-5,0.003184,0.001502,6.54,-22.56,-24.18,197.4286,0.1548,-0.5754,55.81394,37.500076,186.7814,NaN,0.0,12.0,,16 / 17,,460,2021-05-01 16:24:30:998
5.4E-5,-0.007599,9.769128,7.37E-4,-8.0E-4,9.806651,-7.0E-5,0.003184,0.001502,6.54,-22.56,-24.18,197.4286,0.1548,-0.5754,55.81394,37.500076,186.7814,NaN,0.0,12.0,,16 / 17,,469,2021-05-01 16:24:31:007
-0.003755,-0.003907,9.773971,5.46E-4,-0.001096,9.806651,-6.81E-4,7.4E-4,-3.3E-4,6.48,-23.46,-24.42,197.4286,0.1548,-0.5754,55.81394,37.500076,186.7814,NaN,0.0,12.0,,16 / 17,,479,2021-05-01 16:24:31:017
0.00236,-0.008329,9.771497,3.51E-4,-0.00115,9.806651,5.41E-4,0.001351,-3.3E-4,6.84,-23.34,-24.42,197.4286,0.1548,-0.5754,55.81394,37.500076,186.7814,NaN,0.0,12.0,,16 / 17,,489,2021-05-01 16:24:31:027
0.004427,-0.001423,9.76194,3.51E-4,-0.00115,9.806651,0.001152,-4.81E-4,-3.3E-4,6.84,-23.34,-24.42,197.4286,0.1548,-0.5754,55.81394,37.500076,186.7814,NaN,0.0,12.0,,16 / 17,,499,2021-05-01 16:24:31:037
-0.00704,-0.011857,9.766763,1.39E-4,-9.4E-5,9.806651,-7.0E-5,-4.81E-4,-9.41E-4,6.84,-23.16,-24.54,197.4473,0.149,-0.5714,55.81394,37.500076,186.7814,NaN,0.0,12.0,,16 / 17,,509,2021-05-01 16:24:31:047
-0.00704,-0.011857,9.766763,5.3E-5,-5.36E-4,9.806652,5.41E-4,-4.81E-4,0.002724,6.9,-22.8,-24.6,197.4473,0.149,-0.5714,55.81394,37.500076,186.7814,NaN,0.0,12.0,,16 / 17,,520,2021-05-01 16:24:31:058
0.004375,-0.007954,9.781052,5.3E-5,-5.36E-4,9.806652,5.41E-4,-4.81E-4,0.002724,6.9,-22.8,-24.6,197.4473,0.149,-0.5714,55.81394,37.500076,186.7814,NaN,0.0,12.0,,16 / 17,,529,2021-05-01 16:24:31:067
-0.0077,-0.006688,9.788346,5.3E-5,-5.36E-4,9.806652,0.001152,0.001962,0.002113,6.9,-22.8,-24.6,197.4473,0.149,-0.5714,55.81394,37.500076,186.7814,NaN,0.0,12.0,,16 / 17,,539,2021-05-01 16:24:31:077
-0.0077,-0.006688,9.788346,2.4E-5,-2.84E-4,9.806648,5.41E-4,-0.002314,-3.3E-4,6.48,-22.98,-24.54,195.1589,0.1461,-0.5702,55.81394,37.500076,186.7814,NaN,0.0,12.0,,16 / 17,,549,2021-05-01 16:24:31:087
-0.003162,0.009743,9.7836,2.4E-5,-2.84E-4,9.806648,5.41E-4,1.3E-4,8.91E-4,5.94,-22.92,-24.66,195.1589,0.1461,-0.5702,55.81394,37.500076,186.7814,NaN,0.0,12.0,,16 / 17,,560,2021-05-01 16:24:31:098
0.012972,0.005385,9.778645,-1.78E-4,-4.02E-4,9.806649,5.41E-4,7.4E-4,-3.3E-4,5.94,-22.92,-24.66,195.1589,0.1461,-0.5702,55.81394,37.500076,186.7814,NaN,0.0,12.0,,16 / 17,,570,2021-05-01 16:24:31:108
0.004808,0.002629,9.781098,-1.78E-4,-4.02E-4,9.806649,-0.001291,-4.81E-4,8.91E-4,6.6,-23.16,-24.54,197.4481,0.1435,-0.5705,55.81394,37.500076,186.7814,NaN,0.0,12.0,,16 / 17,,580,2021-05-01 16:24:31:118
0.00426,6.21E-4,9.766727,7.27E-4,1.71E-4,9.80665,-6.81E-4,1.3E-4,2.8E-4,6.6,-23.16,-24.54,197.4481,0.1435,-0.5705,55.81394,37.500076,186.7814,NaN,0.0,12.0,,16 / 17,,590,2021-05-01 16:24:31:128
0.00426,6.21E-4,9.766727,7.27E-4,1.71E-4,9.80665,-6.81E-4,-4.81E-4,2.8E-4,6.6,-23.16,-24.54,197.4481,0.1435,-0.5705,55.81394,37.500076,186.7814,NaN,0.0,12.0,,16 / 17,,599,2021-05-01 16:24:31:137
0.00172,0.008987,9.752429,6.41E-4,8.18E-4,9.80665,-6.81E-4,1.3E-4,0.001502,6.96,-23.4,-24.3,197.4481,0.1435,-0.5705,55.81394,37.500076,186.7814,NaN,0.0,12.0,,16 / 17,,609,2021-05-01 16:24:31:147
-0.024707,-0.012963,9.805219,6.41E-4,8.18E-4,9.80665,-0.001902,-4.81E-4,8.91E-4,6.96,-23.4,-24.3,197.4481,0.1435,-0.5705,55.81394,37.500076,186.7814,NaN,0.0,12.0,,16 / 17,,620,2021-05-01 16:24:31:158
-0.024707,-0.012963,9.805219,1.91E-4,5.63E-4,9.80665,0.001152,1.3E-4,-3.3E-4,6.48,-23.34,-24.18,195.135,0.1492,-0.5684,55.81394,37.500076,186.7814,NaN,0.0,12.0,,16 / 17,,629,2021-05-01 16:24:31:167
0.002776,0.015058,9.769207,1.91E-4,5.63E-4,9.80665,5.41E-4,-4.81E-4,-9.41E-4,6.48,-23.34,-24.18,195.135,0.1492,-0.5684,55.81394,37.500076,186.7814,NaN,0.0,12.0,,16 / 17,,639,2021-05-01 16:24:31:177
0.010815,-0.002069,9.795386,4.4E-5,0.001031,9.80665,5.41E-4,-4.81E-4,-9.41E-4,6.18,-23.22,-24.24,195.135,0.1492,-0.5684,55.81394,37.500076,186.7814,NaN,0.0,12.0,,16 / 17,,649,2021-05-01 16:24:31:187
-1.36E-4,0.00338,9.793118,3.0E-4,0.001721,9.806649,-0.001291,-4.81E-4,-0.001552,6.0,-23.16,-24.18,195.135,0.1492,-0.5684,55.81394,37.500076,186.7814,NaN,0.0,12.0,,16 / 17,,659,2021-05-01 16:24:31:197
-0.002661,0.004127,9.7692,3.0E-4,0.001721,9.806649,-0.001902,7.4E-4,8.91E-4,6.0,-23.16,-24.18,195.135,0.1492,-0.5684,55.81394,37.500076,186.7814,NaN,0.0,12.0,,16 / 17,,669,2021-05-01 16:24:31:207
-0.012576,0.012433,9.776521,8.4E-5,0.001642,9.80665,0.001152,-0.001092,-3.3E-4,6.42,-23.1,-24.3,195.1333,0.1594,-0.5693,55.81394,37.500076,186.7814,NaN,0.0,12.0,,16 / 17,,680,2021-05-01 16:24:31:218
-0.012576,0.012433,9.776521,8.4E-5,0.001642,9.80665,-7.0E-5,0.001351,0.002724,6.42,-23.1,-24.3,195.1333,0.1594,-0.5693,55.81394,37.500076,186.7814,NaN,0.0,12.0,,16 / 17,,689,2021-05-01 16:24:31:227
-0.011249,-2.72E-4,9.757287,-4.9E-5,0.00279,9.806651,0.001152,7.4E-4,8.91E-4,7.14,-23.58,-24.36,195.1333,0.1594,-0.5693,55.81394,37.500076,186.7814,NaN,0.0,12.0,,16 / 17,,700,2021-05-01 16:24:31:238
6.81E-4,-0.020901,9.77144,-3.34E-4,0.003167,9.806651,0.001763,-0.001092,8.91E-4,7.2,-23.82,-24.06,195.1333,0.1594,-0.5693,55.81394,37.500076,186.7814,NaN,0.0,12.0,,16 / 17,,709,2021-05-01 16:24:31:247
0.011056,-0.001426,9.785817,-3.34E-4,0.003167,9.806651,-6.81E-4,1.3E-4,-9.41E-4,7.2,-23.82,-24.06,195.1333,0.1594,-0.5693,55.81394,37.500076,186.7814,NaN,0.0,12.0,,16 / 17,,719,2021-05-01 16:24:31:257
0.011056,-0.001426,9.785817,-0.001028,6.64E-4,9.80665,-6.81E-4,1.3E-4,-9.41E-4,6.18,-22.92,-24.12,195.1352,0.1767,-0.5761,55.81394,37.500076,186.7814,NaN,0.0,12.0,,16 / 17,,729,2021-05-01 16:24:31:267
0.001837,0.005392,9.800323,-0.001028,6.64E-4,9.80665,-7.0E-5,-0.001092,-0.001552,6.18,-22.92,-24.12,195.1352,0.1767,-0.5761,55.81394,37.500076,186.7814,NaN,0.0,12.0,,16 / 17,,740,2021-05-01 16:24:31:278
-0.010334,-0.001085,9.752506,-0.001179,9.13E-4,9.80665,0.001763,7.4E-4,0.003335,6.06,-22.98,-24.3,195.1352,0.1767,-0.5761,55.81394,37.500076,186.7814,NaN,0.0,12.0,,16 / 17,,749,2021-05-01 16:24:31:287
0.010558,0.020495,9.769202,-0.001155,7.3E-4,9.806649,5.41E-4,0.003795,-9.41E-4,6.12,-23.16,-24.54,195.1352,0.1767,-0.5761,55.81394,37.500076,186.7814,NaN,0.0,12.0,,16 / 17,,759,2021-05-01 16:24:31:297
-0.002085,-0.008368,9.781126,1.12E-4,-1.42E-4,9.806651,0.002374,7.4E-4,2.8E-4,6.48,-22.92,-25.08,195.1636,0.1791,-0.5837,55.81394,37.500076,186.7814,NaN,0.0,12.0,,16 / 17,,771,2021-05-01 16:24:31:309
-0.002085,-0.008368,9.781126,1.12E-4,-1.42E-4,9.806651,-0.001902,-0.002314,-9.41E-4,6.48,-22.92,-25.08,195.1636,0.1791,-0.5837,55.81394,37.500076,186.7814,NaN,0.0,12.0,,16 / 17,,780,2021-05-01 16:24:31:318
-0.012124,-0.013482,9.774018,1.12E-4,-1.42E-4,9.806651,0.002374,-0.001092,0.004556,6.48,-22.92,-25.08,195.1636,0.1791,-0.5837,55.81394,37.500076,186.7814,NaN,0.0,12.0,,16 / 17,,789,2021-05-01 16:24:31:327
-7.86E-4,0.010794,9.754898,-3.54E-4,-3.72E-4,9.806651,0.001152,0.001351,-0.002774,6.42,-23.16,-24.36,195.1636,0.1791,-0.5837,55.81394,37.500076,186.7814,NaN,0.0,12.0,,16 / 17,,800,2021-05-01 16:24:31:338
-0.006509,-0.002663,9.793185,-7.22E-4,-0.001119,9.806651,-7.0E-5,0.001351,0.002724,5.94,-23.22,-24.06,195.1636,0.1791,-0.5837,55.81394,37.500076,186.7814,NaN,0.0,12.0,,16 / 17,,809,2021-05-01 16:24:31:347
0.00969,-0.01797,9.785771,-7.12E-4,-0.001143,9.80665,0.002985,0.001962,-9.41E-4,5.64,-23.64,-24.54,194.5653,0.1717,-0.586,55.81394,37.500076,186.7814,NaN,0.0,12.0,,16 / 17,,820,2021-05-01 16:24:31:358
0.00969,-0.01797,9.785771,-7.12E-4,-0.001143,9.80665,0.001763,-4.81E-4,0.001502,5.64,-23.64,-24.54,194.5653,0.1717,-0.586,55.81394,37.500076,186.7814,NaN,0.0,12.0,,16 / 17,,830,2021-05-01 16:24:31:368
-0.008308,-8.73E-4,9.769268,-7.12E-4,-0.001143,9.80665,-0.003124,-0.001092,2.8E-4,5.64,-23.64,-24.54,194.5653,0.1717,-0.586,55.81394,37.500076,186.7814,NaN,0.0,12.0,,16 / 17,,839,2021-05-01 16:24:31:377
-0.008308,-8.73E-4,9.769268,-7.29E-4,-0.002196,9.80665,-6.81E-4,-4.81E-4,-3.3E-4,6.12,-23.28,-24.48,194.5653,0.1717,-0.586,55.81394,37.500076,186.7814,NaN,0.0,12.0,,16 / 17,,849,2021-05-01 16:24:31:387
0.002096,-0.008531,9.771525,-8.53E-4,-0.003071,9.806651,-7.0E-5,-0.002314,0.001502,6.54,-22.74,-24.42,194.5653,0.1717,-0.586,55.81394,37.500076,186.7814,NaN,0.0,12.0,,16 / 17,,859,2021-05-01 16:24:31:397
-8.2E-4,-3.23E-4,9.762019,-8.53E-4,-0.003071,9.806651,0.002374,7.4E-4,0.003335,6.54,-22.74,-24.42,194.5653,0.1717,-0.586,55.81394,37.500076,186.7814,NaN,0.0,12.0,,16 / 17,,869,2021-05-01 16:24:31:407
-8.2E-4,-3.23E-4,9.762019,-2.58E-4,-0.001408,9.80665,0.002374,7.4E-4,0.003335,6.12,-22.56,-24.36,195.1514,0.1531,-0.5864,55.81394,37.500076,186.7814,NaN,0.0,12.0,,16 / 17,,879,2021-05-01 16:24:31:417
7.32E-4,-0.004963,9.78831,-1.43E-4,-0.002549,9.80665,0.001763,-0.002314,0.002113,4.98,-22.8,-24.36,195.1514,0.1531,-0.5864,55.81394,37.500076,186.7814,NaN,0.0,12.0,,16 / 17,,890,2021-05-01 16:24:31:428
7.54E-4,-0.004976,9.790704,-1.43E-4,-0.002549,9.80665,0.001763,-0.002314,0.002113,4.98,-22.8,-24.36,195.1514,0.1531,-0.5864,55.81394,37.500076,186.7814,NaN,0.0,12.0,,16 / 17,,899,2021-05-01 16:24:31:437
-0.0242,0.014289,9.752725,-3.34E-4,-0.00311,9.80665,-7.0E-5,1.3E-4,-9.41E-4,4.98,-23.28,-24.18,195.1514,0.1531,-0.5864,55.81394,37.500076,186.7814,NaN,0.0,12.0,,16 / 17,,909,2021-05-01 16:24:31:447
0.006666,0.008353,9.773958,-4.5E-5,-4.31E-4,9.806651,-6.81E-4,-0.002314,0.001502,5.7,-23.1,-23.94,195.1533,0.135,-0.5835,55.81394,37.500076,186.7814,NaN,0.0,12.0,,16 / 17,,920,2021-05-01 16:24:31:458
0.006666,0.008353,9.773958,-4.5E-5,-4.31E-4,9.806651,-0.001291,1.3E-4,0.003335,5.7,-23.1,-23.94,195.1533,0.135,-0.5835,55.81394,37.500076,186.7814,NaN,0.0,12.0,,16 / 17,,929,2021-05-01 16:24:31:467
-0.007444,-0.014403,9.773961,6.62E-4,-0.001509,9.806651,-7.0E-5,1.3E-4,0.003335,6.12,-22.98,-24.48,195.1533,0.135,-0.5835,55.81394,37.500076,186.7814,NaN,0.0,12.0,,16 / 17,,940,2021-05-01 16:24:31:478
0.007262,-0.005988,9.776261,6.62E-4,-0.001509,9.806651,-6.81E-4,1.3E-4,2.8E-4,6.12,-22.98,-24.48,195.1533,0.135,-0.5835,55.81394,37.500076,186.7814,NaN,0.0,12.0,,16 / 17,,950,2021-05-01 16:24:31:488
-0.0072,0.009211,9.762089,-9.2E-5,-1.62E-4,9.80665,0.001152,-4.81E-4,-3.3E-4,6.18,-22.8,-24.6,195.1714,0.1275,-0.5774,55.81394,37.500076,186.7814,NaN,0.0,12.0,,16 / 17,,959,2021-05-01 16:24:31:497
-0.007417,-6.47E-4,9.759648,-9.2E-5,-1.62E-4,9.80665,-7.0E-5,1.3E-4,-3.3E-4,6.18,-22.8,-24.6,195.1714,0.1275,-0.5774,55.81394,37.500076,186.7814,NaN,0.0,12.0,,16 / 17,,969,2021-05-01 16:24:31:507
-0.007417,-6.47E-4,9.759648,-3.4E-5,-2.73E-4,9.80665,-7.0E-5,1.3E-4,-3.3E-4,5.64,-22.74,-24.78,195.1714,0.1275,-0.5774,55.81394,37.500076,186.7814,NaN,0.0,12.0,,16 / 17,,979,2021-05-01 16:24:31:517
-0.003269,-0.004291,9.776354,3.55E-4,-2.28E-4,9.80665,0.003596,1.3E-4,-3.3E-4,5.7,-23.16,-24.06,195.1714,0.1275,-0.5774,55.81394,37.500076,186.7814,NaN,0.0,12.0,,16 / 17,,990,2021-05-01 16:24:31:528
0.009754,0.017029,9.757182,3.55E-4,-2.28E-4,9.80665,0.003596,1.3E-4,-3.3E-4,5.7,-23.16,-24.06,195.1714,0.1275,-0.5774,55.81394,37.500076,186.7814,NaN,0.0,12.0,,16 / 17,,999,2021-05-01 16:24:31:537
0.008461,-0.01674,9.778584,-7.4E-5,-3.46E-4,9.80665,5.41E-4,-0.001092,-9.41E-4,5.46,-22.74,-23.46,192.7849,0.1268,-0.5751,55.81394,37.500076,186.7814,NaN,0.0,12.0,,16 / 17,,1009,2021-05-01 16:24:31:547
0.008461,-0.01674,9.778584,-7.4E-5,-3.46E-4,9.80665,0.001152,7.4E-4,0.001502,5.46,-22.74,-23.46,192.7849,0.1268,-0.5751,55.81394,37.500076,186.7814,NaN,0.0,12.0,,16 / 17,,1019,2021-05-01 16:24:31:557
-0.011819,0.00262,9.766884,4.9E-5,-6.7E-5,9.80665,0.002374,7.4E-4,0.002724,5.88,-22.68,-22.98,192.7849,0.1268,-0.5751,55.81394,37.500076,186.7814,NaN,0.0,12.0,,16 / 17,,1029,2021-05-01 16:24:31:567
-0.002728,-0.011735,9.77392,4.9E-5,-6.7E-5,9.80665,-0.001291,0.001962,-0.002163,5.88,-22.68,-22.98,192.7849,0.1268,-0.5751,55.81394,37.500076,186.7814,NaN,0.0,12.0,,16 / 17,,1039,2021-05-01 16:24:31:577
0.00473,0.008608,9.778729,1.4E-5,-5.4E-4,9.806648,-0.001291,7.4E-4,0.002724,6.18,-22.62,-24.12,195.1471,0.1264,-0.5747,55.81394,37.500076,186.7814,NaN,0.0,12.0,,16 / 17,,1050,2021-05-01 16:24:31:588
0.00473,0.008608,9.778729,-2.1E-5,-7.15E-4,9.806648,-6.81E-4,-4.81E-4,8.91E-4,6.3,-22.62,-24.6,195.1471,0.1264,-0.5747,55.81394,37.500076,186.7814,NaN,0.0,12.0,,16 / 17,,1059,2021-05-01 16:24:31:597
0.003622,0.023851,9.752475,-2.1E-5,-7.15E-4,9.806648,-0.001902,1.3E-4,-0.002163,6.3,-22.62,-24.6,195.1471,0.1264,-0.5747,55.81394,37.500076,186.7814,NaN,0.0,12.0,,16 / 17,,1069,2021-05-01 16:24:31:607
-0.011704,0.003151,9.77167,2.09E-4,-2.59E-4,9.806648,-0.001902,1.3E-4,-0.002163,5.76,-22.62,-24.36,195.1471,0.1264,-0.5747,55.81394,37.500076,186.7814,NaN,0.0,12.0,,16 / 17,,1079,2021-05-01 16:24:31:617
-0.001053,-0.012112,9.761923,2.09E-4,-2.59E-4,9.806648,-6.81E-4,7.4E-4,8.91E-4,5.76,-22.62,-24.36,195.1471,0.1264,-0.5747,55.81394,37.500076,186.7814,NaN,0.0,12.0,,16 / 17,,1089,2021-05-01 16:24:31:627
0.002165,-4.83E-4,9.795471,9.68E-4,2.19E-4,9.806651,-7.0E-5,0.002573,0.002113,5.52,-22.38,-24.66,195.8216,0.1253,-0.5732,55.81394,37.500076,186.7814,NaN,0.0,12.0,,16 / 17,,1100,2021-05-01 16:24:31:638
0.002165,-4.83E-4,9.795471,0.001127,3.06E-4,9.806651,0.002374,-4.81E-4,0.002113,5.34,-22.68,-24.6,195.8216,0.1253,-0.5732,55.81394,37.500076,186.7814,NaN,0.0,12.0,,16 / 17,,1109,2021-05-01 16:24:31:647
-4.41E-4,3.32E-4,9.761976,0.001127,3.06E-4,9.806651,-6.81E-4,-0.002925,8.91E-4,5.34,-22.68,-24.6,195.8216,0.1253,-0.5732,55.81394,37.500076,186.7814,NaN,0.0,12.0,,16 / 17,,1120,2021-05-01 16:24:31:658
0.001043,0.014875,9.747667,0.001045,1.05E-4,9.806651,-7.0E-5,-0.002925,2.8E-4,5.76,-23.16,-24.3,195.8216,0.1253,-0.5732,55.81394,37.500076,186.7814,NaN,0.0,12.0,,16 / 17,,1129,2021-05-01 16:24:31:667
0.002818,-0.005557,9.757131,0.001045,1.05E-4,9.806651,-6.81E-4,-4.81E-4,8.91E-4,5.76,-23.16,-24.3,195.8216,0.1253,-0.5732,55.81394,37.500076,186.7814,NaN,0.0,12.0,,16 / 17,,1140,2021-05-01 16:24:31:678
0.002818,-0.005557,9.757131,2.53E-4,4.7E-4,9.80665,0.002374,0.001962,2.8E-4,5.94,-23.04,-24.24,195.1397,0.1276,-0.5674,55.81394,37.500076,186.7814,NaN,0.0,12.0,,16 / 17,,1150,2021-05-01 16:24:31:688
0.011994,-0.005977,9.788164,2.53E-4,4.7E-4,9.80665,-7.0E-5,0.001351,-3.3E-4,5.58,-22.86,-24.06,195.1397,0.1276,-0.5674,55.81394,37.500076,186.7814,NaN,0.0,12.0,,16 / 17,,1160,2021-05-01 16:24:31:698
-0.012453,-0.004302,9.778814,5.59E-4,9.09E-4,9.806651,-7.0E-5,0.001351,-3.3E-4,5.58,-22.86,-24.06,195.1397,0.1276,-0.5674,55.81394,37.500076,186.7814,NaN,0.0,12.0,,16 / 17,,1169,2021-05-01 16:24:31:707
-5.27E-4,-0.014953,9.771473,5.59E-4,9.09E-4,9.806651,0.002374,0.001962,8.91E-4,5.7,-22.8,-24.3,195.1397,0.1276,-0.5674,55.81394,37.500076,186.7814,NaN,0.0,12.0,,16 / 17,,1180,2021-05-01 16:24:31:718
-5.27E-4,-0.014953,9.771473,0.00125,0.001372,9.806651,5.41E-4,0.001962,0.002724,5.7,-22.8,-24.3,195.1397,0.1276,-0.5674,55.81394,37.500076,186.7814,NaN,0.0,12.0,,16 / 17,,1190,2021-05-01 16:24:31:728
-0.009115,0.017113,9.781281,0.00125,0.001372,9.806651,0.002374,0.003795,-0.001552,5.76,-22.74,-24.6,195.1536,0.1372,-0.5625,55.81394,37.500076,186.7814,NaN,0.0,12.0,,16 / 17,,1199,2021-05-01 16:24:31:737
0.005214,0.009044,9.783504,-3.24E-4,4.84E-4,9.80665,-0.001902,-0.001092,8.91E-4,6.06,-22.5,-24.72,195.1536,0.1372,-0.5625,55.813946,37.50008,187.8989,NaN,0.0,12.0,,16 / 17,,1209,2021-05-01 16:24:31:747
0.005214,0.009044,9.783504,-3.24E-4,4.84E-4,9.80665,0.002374,7.4E-4,2.8E-4,6.06,-22.5,-24.72,195.1536,0.1372,-0.5625,55.813946,37.50008,187.8989,NaN,0.0,12.0,,16 / 17,,1220,2021-05-01 16:24:31:758
0.003941,0.004434,9.781099,-6.59E-4,8.1E-4,9.80665,5.41E-4,7.4E-4,0.003335,5.58,-22.38,-24.36,195.1536,0.1372,-0.5625,55.813946,37.50008,187.8989,NaN,0.0,12.0,,16 / 17,,1229,2021-05-01 16:24:31:767
0.017743,7.14E-4,9.773775,-7.4E-5,-8.7E-5,9.806649,-6.81E-4,0.001351,2.8E-4,5.28,-22.44,-23.82,193.3565,0.1408,-0.5674,55.813946,37.50008,187.8989,NaN,0.0,12.0,,16 / 17,,1239,2021-05-01 16:24:31:777
0.002563,-0.003086,9.752351,-7.4E-5,-8.7E-5,9.806649,5.41E-4,1.3E-4,-3.3E-4,5.28,-22.44,-23.82,193.3565,0.1408,-0.5674,55.813946,37.50008,187.8989,NaN,0.0,12.0,,16 / 17,,1249,2021-05-01 16:24:31:787
-0.008837,-0.010259,9.766788,-7.4E-5,-8.7E-5,9.806649,-7.0E-5,-4.81E-4,2.8E-4,5.28,-22.44,-23.82,193.3565,0.1408,-0.5674,55.813946,37.50008,187.8989,NaN,0.0,12.0,,16 / 17,,1259,2021-05-01 16:24:31:797
0.002248,-0.005539,9.778681,9.1E-5,-5.3E-5,9.806649,-7.0E-5,0.003184,8.91E-4,5.94,-22.2,-23.82,193.3565,0.1408,-0.5674,55.813946,37.50008,187.8989,NaN,0.0,12.0,,16 / 17,,1269,2021-05-01 16:24:31:807
0.002248,-0.005539,9.778681,9.1E-5,-5.3E-5,9.806649,-7.0E-5,0.003184,8.91E-4,5.94,-22.2,-23.82,193.3565,0.1408,-0.5674,55.813946,37.50008,187.8989,NaN,0.0,12.0,,16 / 17,,1279,2021-05-01 16:24:31:817
0.004337,0.003777,9.761946,-1.76E-4,-8.4E-5,9.80665,5.41E-4,-0.001092,-0.001552,5.7,-22.68,-24.24,195.1357,0.1406,-0.5669,55.813946,37.50008,187.8989,NaN,0.0,12.0,,16 / 17,,1290,2021-05-01 16:24:31:828
-0.014568,0.026301,9.74307,-1.76E-4,-8.4E-5,9.80665,5.41E-4,-0.001092,-0.001552,5.7,-22.68,-24.24,195.1357,0.1406,-0.5669,55.813946,37.50008,187.8989,NaN,0.0,12.0,,16 / 17,,1299,2021-05-01 16:24:31:837
0.004359,0.003766,9.76434,-0.001167,-8.49E-4,9.80665,0.001763,1.3E-4,8.91E-4,5.1,-23.64,-23.82,195.1357,0.1406,-0.5669,55.813946,37.50008,187.8989,NaN,0.0,12.0,,16 / 17,,1309,2021-05-01 16:24:31:847
-0.018689,0.009981,9.771758,-0.001167,-8.49E-4,9.80665,-7.0E-5,-0.001703,-0.003996,5.1,-23.64,-23.82,195.1357,0.1406,-0.5669,55.813946,37.50008,187.8989,NaN,0.0,12.0,,16 / 17,,1319,2021-05-01 16:24:31:857
-0.018689,0.009981,9.771758,-7.86E-4,-9.69E-4,9.806651,-0.001902,1.3E-4,-3.3E-4,5.4,-22.98,-24.06,192.8029,0.134,-0.5721,55.813946,37.50008,187.8989,NaN,0.0,12.0,,16 / 17,,1330,2021-05-01 16:24:31:868
0.00275,0.002888,9.795482,-0.001488,-0.001275,9.806651,-7.0E-5,-4.81E-4,0.002113,5.58,-22.56,-24.42,192.8029,0.134,-0.5721,55.813946,37.50008,187.8989,NaN,0.0,12.0,,16 / 17,,1340,2021-05-01 16:24:31:878
0.005917,-0.002627,9.74754,-0.001488,-0.001275,9.806651,-6.81E-4,0.001962,8.91E-4,5.58,-22.56,-24.42,192.8029,0.134,-0.5721,55.813946,37.50008,187.8989,NaN,0.0,12.0,,16 / 17,,1350,2021-05-01 16:24:31:888
-0.013489,-6.22E-4,9.726177,-0.001488,-0.001275,9.806651,0.002374,1.3E-4,-0.001552,6.0,-23.22,-24.12,195.1516,0.1248,-0.579,55.813946,37.50008,187.8989,NaN,0.0,12.0,,16 / 17,,1360,2021-05-01 16:24:31:898
-0.013489,-6.22E-4,9.726177,-0.001231,-5.7E-5,9.806649,0.002374,1.3E-4,-0.001552,6.0,-23.22,-24.12,195.1516,0.1248,-0.579,55.813946,37.50008,187.8989,NaN,0.0,12.0,,16 / 17,,1369,2021-05-01 16:24:31:907
-0.005176,0.016629,9.738162,-0.001231,-5.7E-5,9.806649,0.001763,1.3E-4,-9.41E-4,6.0,-23.22,-24.12,195.1516,0.1248,-0.579,55.813946,37.50008,187.8989,NaN,0.0,12.0,,16 / 17,,1380,2021-05-01 16:24:31:918
0.010705,0.009768,9.7739,-0.001684,2.75E-4,9.806649,0.002985,0.001962,8.91E-4,5.82,-23.1,-23.64,195.1516,0.1248,-0.579,55.813946,37.50008,187.8989,NaN,0.0,12.0,,16 / 17,,1389,2021-05-01 16:24:31:927
0.006133,0.001025,9.800239,-0.001684,2.75E-4,9.806649,-0.001291,1.3E-4,-0.001552,5.82,-23.1,-23.64,195.1516,0.1248,-0.579,55.813946,37.50008,187.8989,NaN,0.0,12.0,,16 / 17,,1400,2021-05-01 16:24:31:938
0.002235,0.022079,9.752496,-5.78E-4,4.89E-4,9.80665,0.002374,0.003184,-0.002163,5.28,-23.1,-23.76,192.8217,0.1238,-0.5889,55.813946,37.50008,187.8989,NaN,0.0,12.0,,16 / 17,,1410,2021-05-01 16:24:31:948
0.002235,0.022079,9.752496,-5.78E-4,4.89E-4,9.80665,-0.001291,-4.81E-4,-0.001552,5.28,-23.1,-23.76,192.8217,0.1238,-0.5889,55.813946,37.50008,187.8989,NaN,0.0,12.0,,16 / 17,,1420,2021-05-01 16:24:31:958
0.02639,-0.012927,9.771267,7.9E-5,0.002669,9.806651,-0.001291,-0.001703,-3.3E-4,5.46,-22.38,-24.48,192.8217,0.1238,-0.5889,55.813946,37.50008,187.8989,NaN,0.0,12.0,,16 / 17,,1430,2021-05-01 16:24:31:968
-0.006919,0.001993,9.783622,7.9E-5,0.002669,9.806651,0.001152,7.4E-4,0.001502,5.46,-22.38,-24.48,192.8217,0.1238,-0.5889,55.813946,37.50008,187.8989,NaN,0.0,12.0,,16 / 17,,1440,2021-05-01 16:24:31:978
0.006983,-0.001658,9.733202,7.98E-4,0.001317,9.806651,-0.001902,0.002573,-9.41E-4,5.64,-22.08,-24.96,195.8372,0.1391,-0.5919,55.813946,37.50008,187.8989,NaN,0.0,12.0,,16 / 17,,1450,2021-05-01 16:24:31:988
0.006983,-0.001658,9.733202,7.98E-4,0.001317,9.806651,5.41E-4,-0.001703,0.001502,5.64,-22.08,-24.96,195.8372,0.1391,-0.5919,55.813946,37.50008,187.8989,NaN,0.0,12.0,,16 / 17,,1459,2021-05-01 16:24:31:997
0.018235,0.020008,9.745183,8.52E-4,0.001188,9.806651,-7.0E-5,7.4E-4,0.001502,5.28,-22.44,-24.54,195.8372,0.1391,-0.5919,55.813946,37.50008,187.8989,NaN,0.0,12.0,,16 / 17,,1469,2021-05-01 16:24:32:007
-0.00266,-0.011511,9.790708,8.52E-4,0.001188,9.806651,-7.0E-5,7.4E-4,-0.001552,5.28,-22.8,-23.64,192.8166,0.1471,-0.589,55.813946,37.50008,187.8989,NaN,0.0,12.0,,16 / 17,,1479,2021-05-01 16:24:32:017
0.007009,-0.012642,9.788218,0.00109,8.81E-4,9.806651,0.001763,0.001962,0.001502,5.28,-22.8,-23.64,192.8166,0.1471,-0.589,55.813946,37.50008,187.8989,NaN,0.0,12.0,,16 / 17,,1490,2021-05-01 16:24:32:028
0.007009,-0.012642,9.788218,0.00109,8.81E-4,9.806651,0.001763,0.001962,0.001502,5.28,-22.8,-23.64,192.8166,0.1471,-0.589,55.813946,37.50008,187.8989,NaN,0.0,12.0,,16 / 17,,1499,2021-05-01 16:24:32:037
0.005951,-0.004947,9.754745,0.001735,0.001199,9.806651,5.41E-4,1.3E-4,2.8E-4,5.28,-22.68,-23.94,192.8166,0.1471,-0.589,55.813946,37.50008,187.8989,NaN,0.0,12.0,,16 / 17,,1509,2021-05-01 16:24:32:047
0.004216,-0.002115,9.761958,0.001735,0.001199,9.806651,-0.001902,-0.002925,0.001502,5.28,-22.68,-23.94,192.8166,0.1471,-0.589,55.813946,37.50008,187.8989,NaN,0.0,12.0,,16 / 17,,1520,2021-05-01 16:24:32:058
-5.91E-4,0.014597,9.769258,-1.6E-4,-2.5E-4,9.80665,5.41E-4,0.001962,0.002113,5.1,-21.96,-23.64,193.3663,0.1562,-0.5807,55.813946,37.50008,187.8989,NaN,0.0,12.0,,16 / 17,,1529,2021-05-01 16:24:32:067
-5.91E-4,0.014597,9.769258,0.001191,3.42E-4,9.80665,5.41E-4,-4.81E-4,-3.3E-4,5.34,-21.72,-23.64,193.3663,0.1562,-0.5807,55.813946,37.50008,187.8989,NaN,0.0,12.0,,16 / 17,,1539,2021-05-01 16:24:32:077
8.53E-4,0.011894,9.733315,0.001191,3.42E-4,9.80665,5.41E-4,-4.81E-4,-3.3E-4,5.34,-21.72,-23.64,193.3663,0.1562,-0.5807,55.813946,37.50008,187.8989,NaN,0.0,12.0,,16 / 17,,1549,2021-05-01 16:24:32:087
-0.005063,-0.004014,9.764419,0.001191,3.42E-4,9.80665,5.41E-4,0.002573,0.001502,5.34,-21.72,-23.64,193.3663,0.1562,-0.5807,55.813946,37.50008,187.8989,NaN,0.0,12.0,,16 / 17,,1560,2021-05-01 16:24:32:098
-0.005063,-0.004014,9.764419,2.3E-5,1.6E-5,9.80665,-6.81E-4,-0.001703,-0.002163,4.86,-21.24,-24.18,193.9688,0.1598,-0.5744,55.813946,37.50008,187.8989,NaN,0.0,12.0,,16 / 17,,1570,2021-05-01 16:24:32:108
-0.009568,0.001391,9.78842,2.3E-5,1.6E-5,9.80665,-7.0E-5,-0.002314,0.001502,4.86,-21.24,-24.18,193.9688,0.1598,-0.5744,55.813946,37.50008,187.8989,NaN,0.0,12.0,,16 / 17,,1579,2021-05-01 16:24:32:117
-0.003446,-0.012378,9.757166,4.49E-4,7.38E-4,9.80665,-6.81E-4,-4.81E-4,8.91E-4,4.86,-20.88,-24.18,193.9688,0.1598,-0.5744,55.813946,37.50008,187.8989,NaN,0.0,12.0,,16 / 17,,1590,2021-05-01 16:24:32:128
-0.007342,-0.008997,9.776373,4.49E-4,7.38E-4,9.80665,-0.001291,-4.81E-4,0.002113,4.86,-20.88,-24.18,193.9688,0.1598,-0.5744,55.813946,37.50008,187.8989,NaN,0.0,12.0,,16 / 17,,1599,2021-05-01 16:24:32:137
0.006022,-0.003177,9.759521,1.25E-4,-3.2E-4,9.806651,-6.81E-4,-0.001092,2.8E-4,5.22,-21.66,-24.06,193.3563,0.1646,-0.5729,55.813946,37.50008,187.8989,NaN,0.0,12.0,,16 / 17,,1610,2021-05-01 16:24:32:148
0.006022,-0.003177,9.759521,1.25E-4,-3.2E-4,9.806651,-6.81E-4,-0.001092,-3.3E-4,5.22,-21.66,-24.06,193.3563,0.1646,-0.5729,55.813946,37.50008,187.8989,NaN,0.0,12.0,,16 / 17,,1620,2021-05-01 16:24:32:158
-0.007379,0.002458,9.762067,-6.06E-4,-8.95E-4,9.806651,0.001152,-0.001092,0.002724,5.52,-22.08,-23.82,193.3563,0.1646,-0.5729,55.813946,37.50008,187.8989,NaN,0.0,12.0,,16 / 17,,1629,2021-05-01 16:24:32:167
-0.004671,0.004332,9.742896,-6.06E-4,-8.95E-4,9.806651,-6.81E-4,1.3E-4,-0.001552,5.52,-22.08,-23.82,193.3563,0.1646,-0.5729,55.813946,37.50008,187.8989,NaN,0.0,12.0,,16 / 17,,1639,2021-05-01 16:24:32:177
-0.004671,0.004332,9.742896,-2.82E-4,-1.8E-4,9.80665,0.001763,-0.001703,0.002113,5.58,-21.42,-24.06,196.5012,0.1587,-0.5751,55.813946,37.50008,187.8989,NaN,0.0,12.0,,16 / 17,,1649,2021-05-01 16:24:32:187
-0.011322,-0.012367,9.764415,-2.82E-4,-1.8E-4,9.80665,5.41E-4,-0.001703,0.002113,5.58,-21.42,-24.06,196.5012,0.1587,-0.5751,55.813946,37.50008,187.8989,NaN,0.0,12.0,,16 / 17,,1659,2021-05-01 16:24:32:197
0.00619,-0.00518,9.802609,-0.00138,-0.001142,9.80665,-7.0E-5,-0.001703,8.91E-4,5.28,-21.0,-23.82,196.5012,0.1587,-0.5751,55.813946,37.50008,187.8989,NaN,0.0,12.0,,16 / 17,,1669,2021-05-01 16:24:32:207
0.007147,0.007071,9.785908,-0.00138,-0.001142,9.80665,-6.81E-4,1.3E-4,-3.3E-4,5.28,-21.0,-23.82,196.5012,0.1587,-0.5751,55.813946,37.50008,187.8989,NaN,0.0,12.0,,16 / 17,,1679,2021-05-01 16:24:32:217
0.006344,0.01181,9.750025,-0.001652,-0.001282,9.80665,-7.0E-5,-4.81E-4,-3.3E-4,5.46,-20.94,-24.3,193.9801,0.1488,-0.5822,55.813946,37.50008,187.8989,NaN,0.0,12.0,,16 / 17,,1689,2021-05-01 16:24:32:227
0.006344,0.01181,9.750025,-8.7E-5,-0.00128,9.806651,5.41E-4,-4.81E-4,-0.002163,5.52,-21.06,-24.0,193.9801,0.1488,-0.5822,55.813946,37.50008,187.8989,NaN,0.0,12.0,,16 / 17,,1700,2021-05-01 16:24:32:238
-0.004366,-0.002885,9.783572,-8.7E-5,-0.00128,9.806651,5.41E-4,-4.81E-4,-0.002163,5.52,-21.06,-24.0,193.9801,0.1488,-0.5822,55.813946,37.50008,187.8989,NaN,0.0,12.0,,16 / 17,,1710,2021-05-01 16:24:32:248
7.05E-4,-0.001635,9.76677,-8.7E-5,-0.00128,9.806651,5.41E-4,-4.81E-4,8.91E-4,5.52,-21.06,-24.0,193.9801,0.1488,-0.5822,55.813946,37.50008,187.8989,NaN,0.0,12.0,,16 / 17,,1719,2021-05-01 16:24:32:257
-0.010389,0.014795,9.752579,2.39E-4,-5.61E-4,9.806648,0.003596,7.4E-4,0.002113,5.04,-20.64,-23.58,193.9807,0.1414,-0.5809,55.813946,37.50008,187.8989,NaN,0.0,12.0,,16 / 17,,1729,2021-05-01 16:24:32:267
0.002514,-0.003251,9.764345,2.39E-4,-5.61E-4,9.806648,-6.81E-4,0.001962,-0.001552,5.04,-20.64,-23.58,193.9807,0.1414,-0.5809,55.813946,37.50008,187.8989,NaN,0.0,12.0,,16 / 17,,1740,2021-05-01 16:24:32:278
0.002514,-0.003251,9.764345,4.95E-4,-0.001261,9.806648,-0.001291,-0.002314,-0.001552,4.68,-20.7,-23.88,193.9807,0.1414,-0.5809,55.813946,37.50008,187.8989,NaN,0.0,12.0,,16 / 17,,1749,2021-05-01 16:24:32:287
0.001654,-0.01792,9.795408,4.95E-4,-0.001261,9.806648,-0.001291,-0.003536,0.001502,4.68,-20.7,-23.88,193.9807,0.1414,-0.5809,55.813946,37.50008,187.8989,NaN,0.0,12.0,,16 / 17,,1759,2021-05-01 16:24:32:297
-0.005201,0.009735,9.738131,3.6E-5,-2.45E-4,9.806652,-0.001902,-4.81E-4,2.8E-4,5.04,-21.06,-23.64,193.9775,0.1349,-0.5763,55.813946,37.50008,187.8989,NaN,0.0,12.0,,16 / 17,,1770,2021-05-01 16:24:32:308
-0.005201,0.009735,9.738131,-3.77E-4,8.0E-6,9.806652,5.41E-4,1.3E-4,0.002113,5.34,-20.64,-23.76,193.9775,0.1349,-0.5763,55.813946,37.50008,187.8989,NaN,0.0,12.0,,16 / 17,,1779,2021-05-01 16:24:32:317
9.33E-4,0.013056,9.774006,-3.77E-4,8.0E-6,9.806652,-0.002513,-4.81E-4,-3.3E-4,5.34,-20.64,-23.76,193.9775,0.1349,-0.5763,55.813946,37.50008,187.8989,NaN,0.0,12.0,,16 / 17,,1790,2021-05-01 16:24:32:328
0.020161,-0.009013,9.778513,-1.64E-4,-3.0E-5,9.806652,-0.002513,-4.81E-4,-3.3E-4,5.52,-21.12,-24.06,193.9775,0.1349,-0.5763,55.813946,37.50008,187.8989,NaN,0.0,12.0,,16 / 17,,1799,2021-05-01 16:24:32:337
-0.005088,0.007572,9.759671,3.2E-5,-3.08E-4,9.806649,-7.0E-5,-0.002314,2.8E-4,5.58,-21.06,-23.52,196.5109,0.1345,-0.5772,55.813946,37.50008,187.8989,NaN,0.0,12.0,,16 / 17,,1810,2021-05-01 16:24:32:348
-0.005088,0.007572,9.759671,3.2E-5,-3.08E-4,9.806649,-7.0E-5,-4.81E-4,8.91E-4,5.58,-21.06,-23.52,196.5109,0.1345,-0.5772,55.813946,37.50008,187.8989,NaN,0.0,12.0,,16 / 17,,1820,2021-05-01 16:24:32:358
-0.012211,0.009748,9.733407,-1.87E-4,-3.0E-4,9.80665,0.001152,0.001351,0.001502,5.58,-20.88,-23.88,196.5109,0.1345,-0.5772,55.813946,37.50008,187.8989,NaN,0.0,12.0,,16 / 17,,1829,2021-05-01 16:24:32:367
-0.008253,-0.004041,9.785978,-1.87E-4,-3.0E-4,9.80665,5.41E-4,-0.001703,-9.41E-4,5.58,-20.88,-23.88,196.5109,0.1345,-0.5772,55.813946,37.50008,187.8989,NaN,0.0,12.0,,16 / 17,,1839,2021-05-01 16:24:32:377
-0.008253,-0.004041,9.785978,2.18E-4,-2.2E-4,9.806649,5.41E-4,1.3E-4,-0.002774,5.16,-20.4,-24.6,194.6728,0.1326,-0.5778,55.813946,37.50008,187.8989,NaN,0.0,12.0,,16 / 17,,1850,2021-05-01 16:24:32:388
-0.001038,0.014062,9.757269,2.18E-4,-2.2E-4,9.806649,5.41E-4,1.3E-4,-0.002774,5.16,-20.4,-24.6,194.6728,0.1326,-0.5778,55.813946,37.50008,187.8989,NaN,0.0,12.0,,16 / 17,,1859,2021-05-01 16:24:32:397
0.018119,0.001588,9.771399,-9.0E-5,8.96E-4,9.80665,-0.001291,1.3E-4,-3.3E-4,4.74,-20.58,-24.18,194.6728,0.1326,-0.5778,55.813946,37.50008,187.8989,NaN,0.0,12.0,,16 / 17,,1870,2021-05-01 16:24:32:408
0.003098,-0.009381,9.793035,1.02E-4,0.001279,9.80665,0.001152,0.001351,0.003946,4.62,-21.06,-23.64,194.6728,0.1326,-0.5778,55.813946,37.50008,187.8989,NaN,0.0,12.0,,16 / 17,,1879,2021-05-01 16:24:32:417
-0.003697,0.012215,9.786016,1.02E-4,0.001279,9.80665,0.001152,-4.81E-4,-9.41E-4,4.62,-21.06,-23.64,194.6728,0.1326,-0.5778,55.813946,37.50008,187.8989,NaN,0.0,12.0,,16 / 17,,1889,2021-05-01 16:24:32:427
-0.003697,0.012215,9.786016,6.01E-4,6.92E-4,9.806649,0.001152,-0.002314,-0.001552,4.98,-21.18,-24.0,193.9791,0.1399,-0.5791,55.813946,37.50008,187.8989,NaN,0.0,12.0,,16 / 17,,1900,2021-05-01 16:24:32:438
-0.002473,0.00814,9.754865,6.01E-4,6.92E-4,9.806649,0.002374,-4.81E-4,2.8E-4,4.98,-21.18,-24.0,193.9791,0.1399,-0.5791,55.813946,37.50008,187.8989,NaN,0.0,12.0,,16 / 17,,1909,2021-05-01 16:24:32:447
-0.007019,0.019111,9.766931,0.001652,0.001681,9.806649,-0.001902,-4.81E-4,-9.41E-4,5.04,-21.18,-24.3,193.9791,0.1399,-0.5791,55.813946,37.50008,187.8989,NaN,0.0,12.0,,16 / 17,,1920,2021-05-01 16:24:32:458
-0.010869,0.002744,9.788437,0.002164,0.001989,9.80665,-7.0E-5,1.3E-4,-3.3E-4,4.5,-20.94,-23.94,193.9791,0.1399,-0.5791,55.813946,37.50008,187.8989,NaN,0.0,12.0,,16 / 17,,1929,2021-05-01 16:24:32:467
0.005283,-0.001247,9.776298,0.002164,0.001989,9.80665,0.001152,-4.81E-4,-0.001552,5.1,-20.34,-23.94,194.632,0.1543,-0.5696,55.813946,37.50008,187.8989,NaN,0.0,12.0,,16 / 17,,1940,2021-05-01 16:24:32:478
0.005283,-0.001247,9.776298,7.54E-4,9.34E-4,9.806649,-6.81E-4,1.3E-4,2.8E-4,5.1,-20.34,-23.94,194.632,0.1543,-0.5696,55.813946,37.50008,187.8989,NaN,0.0,12.0,,16 / 17,,1950,2021-05-01 16:24:32:488
-0.010377,0.002778,9.757294,7.09E-4,0.001324,9.806649,-0.001291,0.001962,-0.002163,5.64,-19.74,-23.58,194.632,0.1543,-0.5696,55.813946,37.50008,187.8989,NaN,0.0,12.0,,16 / 17,,1960,2021-05-01 16:24:32:498
0.002505,-0.005594,9.778685,7.09E-4,0.001324,9.806649,-6.81E-4,-0.001703,2.8E-4,5.64,-19.74,-23.58,194.632,0.1543,-0.5696,55.813946,37.50008,187.8989,NaN,0.0,12.0,,16 / 17,,1969,2021-05-01 16:24:32:507
0.002505,-0.005594,9.778685,8.55E-4,0.001357,9.806649,0.002985,1.3E-4,0.003946,5.52,-19.92,-23.4,194.632,0.1543,-0.5696,55.813946,37.50008,187.8989,NaN,0.0,12.0,,16 / 17,,1979,2021-05-01 16:24:32:517
2.87E-4,0.014815,9.766837,8.55E-4,0.001357,9.806649,0.002985,1.3E-4,0.003946,5.52,-19.92,-23.4,194.632,0.1543,-0.5696,55.813946,37.50008,187.8989,NaN,0.0,12.0,,16 / 17,,1990,2021-05-01 16:24:32:528
-0.009598,-0.013359,9.773967,3.77E-4,9.45E-4,9.806649,5.41E-4,-0.002314,8.91E-4,5.28,-19.56,-23.58,194.6294,0.1602,-0.5689,55.813946,37.50008,187.8989,NaN,0.0,12.0,,16 / 17,,2000,2021-05-01 16:24:32:538
0.014317,-0.007242,9.778574,3.77E-4,9.45E-4,9.806649,5.41E-4,-0.002314,8.91E-4,5.7,-19.26,-23.52,194.6294,0.1602,-0.5689,55.813946,37.50008,187.8989,NaN,0.0,12.0,,16 / 17,,2009,2021-05-01 16:24:32:547
0.014317,-0.007242,9.778574,-4.75E-4,-4.07E-4,9.806651,0.001152,0.001351,-3.3E-4,5.7,-19.26,-23.52,194.6294,0.1602,-0.5689,55.813946,37.50008,187.8989,NaN,0.0,12.0,,16 / 17,,2019,2021-05-01 16:24:32:557
-0.009667,-0.003388,9.754864,-4.75E-4,-4.07E-4,9.806651,0.001152,1.3E-4,2.8E-4,5.82,-18.96,-23.52,194.6294,0.1602,-0.5689,55.813946,37.50008,187.8989,NaN,0.0,12.0,,16 / 17,,2029,2021-05-01 16:24:32:567
-0.012447,0.01468,9.7478,-4.03E-4,-6.6E-4,9.806651,5.41E-4,-4.81E-4,-0.002774,5.82,-18.96,-23.52,194.6294,0.1602,-0.5689,55.813946,37.50008,187.8989,NaN,0.0,12.0,,16 / 17,,2040,2021-05-01 16:24:32:578
0.008747,-5.47E-4,9.754716,1.05E-4,-1.47E-4,9.806651,-7.0E-5,-4.81E-4,-9.41E-4,5.88,-18.9,-24.06,198.1193,0.1558,-0.5702,55.813946,37.50008,187.8989,NaN,0.0,12.0,,16 / 17,,2049,2021-05-01 16:24:32:587
0.008747,-5.47E-4,9.754716,1.05E-4,-1.47E-4,9.806651,-0.003124,-0.003536,2.8E-4,5.88,-18.9,-24.06,198.1193,0.1558,-0.5702,55.813946,37.50008,187.8989,NaN,0.0,12.0,,16 / 17,,2059,2021-05-01 16:24:32:597
-0.010677,6.81E-4,9.786018,-1.1E-5,-4.44E-4,9.806651,-6.81E-4,7.4E-4,0.001502,5.4,-19.62,-24.54,198.1193,0.1558,-0.5702,55.813946,37.50008,187.8989,NaN,0.0,12.0,,16 / 17,,2070,2021-05-01 16:24:32:608
-0.009808,-0.019757,9.785894,-2.92E-4,-8.36E-4,9.80665,-6.81E-4,1.3E-4,8.91E-4,5.58,-19.8,-24.0,198.1193,0.1558,-0.5702,55.813946,37.50008,187.8989,NaN,0.0,12.0,,16 / 17,,2080,2021-05-01 16:24:32:618
0.004279,8.88E-4,9.764341,-2.92E-4,-8.36E-4,9.80665,0.001152,0.003184,0.001502,5.58,-19.8,-24.0,198.1193,0.1558,-0.5702,55.813946,37.50008,187.8989,NaN,0.0,12.0,,16 / 17,,2089,2021-05-01 16:24:32:627
-0.008677,0.018021,9.745385,-5.16E-4,-4.76E-4,9.80665,0.001152,0.003184,0.001502,5.28,-18.78,-23.82,195.366,0.1507,-0.5703,55.813946,37.50008,187.8989,NaN,0.0,12.0,,16 / 17,,2099,2021-05-01 16:24:32:637
-0.008677,0.018021,9.745385,-5.16E-4,-4.76E-4,9.80665,0.001152,-0.001703,-0.001552,5.28,-18.78,-23.82,195.366,0.1507,-0.5703,55.813946,37.50008,187.8989,NaN,0.0,12.0,,16 / 17,,2109,2021-05-01 16:24:32:647
-0.004129,-0.02054,9.76909,-7.68E-4,-0.001227,9.80665,-0.001291,0.003184,-3.3E-4,5.7,-18.96,-23.22,195.366,0.1507,-0.5703,55.813946,37.50008,187.8989,NaN,0.0,12.0,,16 / 17,,2120,2021-05-01 16:24:32:658
-0.011044,0.008687,9.764513,-7.82E-4,-0.002186,9.806649,0.001152,-0.001703,-9.41E-4,5.76,-18.96,-23.94,195.366,0.1507,-0.5703,55.813946,37.50008,187.8989,NaN,0.0,12.0,,16 / 17,,2129,2021-05-01 16:24:32:667
-0.004284,-0.003123,9.771574,-7.82E-4,-0.002186,9.806649,5.41E-4,-0.001092,-3.3E-4,5.76,-18.96,-23.94,195.366,0.1507,-0.5703,55.813946,37.50008,187.8989,NaN,0.0,12.0,,16 / 17,,2139,2021-05-01 16:24:32:677
-0.006813,0.020485,9.757354,-9.0E-6,-1.18E-4,9.806651,-0.001291,7.4E-4,-0.001552,5.52,-19.08,-24.36,198.1275,0.1371,-0.5713,55.813946,37.50008,187.8989,NaN,0.0,12.0,,16 / 17,,2150,2021-05-01 16:24:32:688
-0.006813,0.020485,9.757354,-9.0E-6,-1.18E-4,9.806651,0.001152,7.4E-4,0.002724,5.52,-19.08,-24.36,198.1275,0.1371,-0.5713,55.813946,37.50008,187.8989,NaN,0.0,12.0,,16 / 17,,2159,2021-05-01 16:24:32:697
-0.005736,0.007464,9.786007,-7.1E-5,-2.03E-4,9.806651,-0.001902,-0.001092,-3.3E-4,5.46,-19.5,-23.76,198.1275,0.1371,-0.5713,55.813946,37.50008,187.8989,NaN,0.0,12.0,,16 / 17,,2170,2021-05-01 16:24:32:708
0.011762,-0.008341,9.785769,-7.1E-5,-2.03E-4,9.806651,-0.001291,-0.001703,8.91E-4,5.46,-19.5,-23.76,198.1275,0.1371,-0.5713,55.813946,37.50008,187.8989,NaN,0.0,12.0,,16 / 17,,2180,2021-05-01 16:24:32:718
0.011762,-0.008341,9.785769,-1.97E-4,9.54E-4,9.80665,-0.001291,-0.001703,8.91E-4,5.76,-19.98,-23.94,197.2793,0.1359,-0.5713,55.813946,37.50008,187.8989,NaN,0.0,12.0,,16 / 17,,2189,2021-05-01 16:24:32:727
0.012189,0.009563,9.766703,5.04E-4,0.001616,9.80665,5.41E-4,7.4E-4,-9.41E-4,6.3,-19.2,-24.36,197.2793,0.1359,-0.5713,55.81395,37.500088,188.9842,NaN,0.0,12.0,,19 / 20,,2199,2021-05-01 16:24:32:737
0.013116,0.004242,9.77385,5.04E-4,0.001616,9.80665,-6.81E-4,7.4E-4,2.8E-4,6.3,-19.2,-24.36,197.2793,0.1359,-0.5713,55.81395,37.500088,188.9842,NaN,0.0,12.0,,19 / 20,,2209,2021-05-01 16:24:32:747
-0.006616,0.005371,9.771635,5.04E-4,0.001616,9.80665,-6.81E-4,0.001962,-0.002774,6.3,-19.2,-24.36,197.2793,0.1359,-0.5713,55.81395,37.500088,188.9842,NaN,0.0,12.0,,19 / 20,,2219,2021-05-01 16:24:32:757
-0.006616,0.005371,9.771635,5.92E-4,5.33E-4,9.806649,-6.81E-4,7.4E-4,-0.002163,6.42,-18.36,-24.12,199.0572,0.1458,-0.5713,55.81395,37.500088,188.9842,NaN,0.0,12.0,,19 / 20,,2229,2021-05-01 16:24:32:767
-2.91E-4,0.016939,9.742916,5.92E-4,5.33E-4,9.806649,-7.0E-5,0.001351,0.003335,6.42,-18.36,-24.12,199.0572,0.1458,-0.5713,55.81395,37.500088,188.9842,NaN,0.0,12.0,,19 / 20,,2239,2021-05-01 16:24:32:777
-0.004653,0.010769,9.771652,9.5E-4,6.59E-4,9.806648,5.41E-4,-0.001092,-0.002163,5.94,-18.42,-23.64,199.0572,0.1458,-0.5713,55.81395,37.500088,188.9842,NaN,0.0,12.0,,19 / 20,,2250,2021-05-01 16:24:32:788
0.024745,0.008246,9.759414,-2.07E-4,9.43E-4,9.806651,-0.001291,-4.81E-4,8.91E-4,5.94,-19.08,-23.76,198.1178,0.1512,-0.5673,55.81395,37.500088,188.9842,NaN,0.0,12.0,,19 / 20,,2259,2021-05-01 16:24:32:797
0.004515,-0.006052,9.812181,-2.07E-4,9.43E-4,9.806651,-7.0E-5,-0.002314,-3.3E-4,5.94,-19.08,-23.76,198.1178,0.1512,-0.5673,55.81395,37.500088,188.9842,NaN,0.0,12.0,,19 / 20,,2270,2021-05-01 16:24:32:808
0.004515,-0.006052,9.812181,-3.73E-4,9.24E-4,9.806651,-7.0E-5,-0.002314,0.001502,5.76,-19.26,-23.7,198.1178,0.1512,-0.5673,55.81395,37.500088,188.9842,NaN,0.0,12.0,,19 / 20,,2279,2021-05-01 16:24:32:817
0.003215,-0.007966,9.747534,-3.73E-4,9.24E-4,9.806651,0.002985,0.003184,2.8E-4,5.76,-19.26,-23.7,198.1178,0.1512,-0.5673,55.81395,37.500088,188.9842,NaN,0.0,12.0,,19 / 20,,2290,2021-05-01 16:24:32:828
-0.002101,-0.001195,9.75001,1.7E-5,0.00127,9.806651,0.001763,7.4E-4,-3.3E-4,5.16,-19.68,-23.34,198.1178,0.1512,-0.5673,55.81395,37.500088,188.9842,NaN,0.0,12.0,,19 / 20,,2299,2021-05-01 16:24:32:837
0.002409,-0.010202,9.740344,3.16E-4,-2.0E-5,9.80665,5.41E-4,-4.81E-4,0.002724,5.4,-19.62,-23.7,194.6307,0.1583,-0.5695,55.81395,37.500088,188.9842,NaN,0.0,12.0,,19 / 20,,2310,2021-05-01 16:24:32:848
3.35E-4,-0.013108,9.759513,3.16E-4,-2.0E-5,9.80665,0.002374,0.001351,2.8E-4,5.4,-19.62,-23.7,194.6307,0.1583,-0.5695,55.81395,37.500088,188.9842,NaN,0.0,12.0,,19 / 20,,2320,2021-05-01 16:24:32:858
3.35E-4,-0.013108,9.759513,7.96E-4,3.08E-4,9.806651,5.41E-4,-4.81E-4,-9.41E-4,5.7,-19.68,-23.46,194.6307,0.1583,-0.5695,55.81395,37.500088,188.9842,NaN,0.0,12.0,,19 / 20,,2329,2021-05-01 16:24:32:867
-0.008391,-0.008335,9.752433,7.96E-4,3.08E-4,9.806651,-6.81E-4,0.001962,0.001502,5.7,-19.68,-23.46,194.6307,0.1583,-0.5695,55.81395,37.500088,188.9842,NaN,0.0,12.0,,19 / 20,,2340,2021-05-01 16:24:32:878
-0.004029,0.007807,9.766844,5.35E-4,4.0E-4,9.806651,0.002374,1.3E-4,0.001502,5.76,-19.5,-23.1,194.6307,0.1583,-0.5695,55.81395,37.500088,188.9842,NaN,0.0,12.0,,19 / 20,,2349,2021-05-01 16:24:32:887
-0.002649,0.01234,9.78601,5.35E-4,4.0E-4,9.806651,0.001763,7.4E-4,-3.3E-4,5.76,-19.5,-23.1,194.6307,0.1583,-0.5695,55.81395,37.500088,188.9842,NaN,0.0,12.0,,19 / 20,,2360,2021-05-01 16:24:32:898
-0.002649,0.01234,9.78601,-2.48E-4,-1.0E-4,9.80665,0.001763,7.4E-4,0.003335,5.58,-19.44,-22.98,198.0894,0.1614,-0.5671,55.81395,37.500088,188.9842,NaN,0.0,12.0,,19 / 20,,2369,2021-05-01 16:24:32:907
0.003011,-0.002297,9.795458,-2.48E-4,-1.0E-4,9.80665,-7.0E-5,-0.002314,0.001502,5.16,-19.08,-23.46,198.0894,0.1614,-0.5671,55.81395,37.500088,188.9842,NaN,0.0,12.0,,19 / 20,,2380,2021-05-01 16:24:32:918
-0.001083,0.001659,9.761994,-4.3E-5,-3.33E-4,9.80665,-7.0E-5,-0.002314,0.001502,5.16,-19.08,-23.46,198.0894,0.1614,-0.5671,55.81395,37.500088,188.9842,NaN,0.0,12.0,,19 / 20,,2389,2021-05-01 16:24:32:927
0.01086,-0.007202,9.735502,-4.3E-5,-3.33E-4,9.80665,-1.92E-4,-4.46E-4,7.12E-4,5.16,-19.08,-23.46,198.0894,0.1614,-0.5671,55.81395,37.500088,188.9842,NaN,0.0,12.0,,19 / 20,,2400,2021-05-01 16:24:32:938
0.007979,0.006612,9.757155,4.6E-5,-6.18E-4,9.806651,-0.002025,7.76E-4,-0.002953,6.06,-19.38,-23.76,198.1141,0.1594,-0.5667,55.81395,37.500088,188.9842,NaN,0.0,12.0,,19 / 20,,2410,2021-05-01 16:24:32:948
0.007979,0.006612,9.757155,4.6E-5,-6.18E-4,9.806651,-0.001414,0.001387,-5.09E-4,6.06,-19.38,-23.76,198.1141,0.1594,-0.5667,55.81395,37.500088,188.9842,NaN,0.0,12.0,,19 / 20,,2419,2021-05-01 16:24:32:957
-0.008365,0.001783,9.790789,-4.67E-4,-0.001215,9.806651,-1.92E-4,0.001998,-5.09E-4,6.12,-19.5,-23.58,198.1141,0.1594,-0.5667,55.81395,37.500088,188.9842,NaN,0.0,12.0,,19 / 20,,2429,2021-05-01 16:24:32:967
0.011104,-0.007013,9.759445,-4.67E-4,-0.001215,9.806651,-0.001414,0.001387,-0.002953,6.12,-19.5,-23.58,198.1141,0.1594,-0.5667,55.81395,37.500088,188.9842,NaN,0.0,12.0,,19 / 20,,2439,2021-05-01 16:24:32:977
-0.002145,-0.001298,9.752403,-2.8E-5,4.9E-5,9.806648,0.002251,0.003219,-0.001731,5.52,-18.9,-23.7,198.1173,0.1518,-0.5671,55.81395,37.500088,188.9842,NaN,0.0,12.0,,19 / 20,,2449,2021-05-01 16:24:32:987
-0.0074,0.005433,9.762064,-2.8E-5,4.9E-5,9.806648,-8.03E-4,7.76E-4,-0.004175,5.52,-18.9,-23.7,198.1173,0.1518,-0.5671,55.81395,37.500088,188.9842,NaN,0.0,12.0,,19 / 20,,2459,2021-05-01 16:24:32:997
-0.0074,0.005433,9.762064,-9.38E-4,-8.33E-4,9.806648,-8.03E-4,7.76E-4,-0.004175,5.28,-18.66,-23.88,198.1173,0.1518,-0.5671,55.81395,37.500088,188.9842,NaN,0.0,12.0,,19 / 20,,2469,2021-05-01 16:24:33:007
0.004121,0.001617,9.778705,-3.29E-4,-3.41E-4,9.806649,0.00164,0.002608,7.12E-4,5.7,-18.78,-23.94,198.1239,0.1455,-0.5708,55.81395,37.500088,188.9842,NaN,0.0,12.0,,19 / 20,,2480,2021-05-01 16:24:33:018
0.011468,0.015567,9.74041,-3.29E-4,-3.41E-4,9.806649,0.00164,0.002608,7.12E-4,5.7,-18.78,-23.94,198.1239,0.1455,-0.5708,55.81395,37.500088,188.9842,NaN,0.0,12.0,,19 / 20,,2489,2021-05-01 16:24:33:027
0.011468,0.015567,9.74041,-1.43E-4,-5.7E-4,9.806649,4.18E-4,7.76E-4,0.004988,6.0,-18.42,-23.34,198.1239,0.1455,-0.5708,55.81395,37.500088,188.9842,NaN,0.0,12.0,,19 / 20,,2500,2021-05-01 16:24:33:038
-0.007232,-0.003544,9.754834,-1.43E-4,-5.7E-4,9.806649,0.001029,-0.001057,0.001934,6.0,-18.42,-23.34,198.1239,0.1455,-0.5708,55.81395,37.500088,188.9842,NaN,0.0,12.0,,19 / 20,,2509,2021-05-01 16:24:33:047
0.011861,-0.014863,9.766578,3.44E-4,-4.07E-4,9.806649,-1.92E-4,-4.46E-4,1.01E-4,6.12,-18.72,-23.16,198.1239,0.1455,-0.5708,55.81395,37.500088,188.9842,NaN,0.0,12.0,,19 / 20,,2519,2021-05-01 16:24:33:057
-0.012579,-0.004109,9.788393,-1.19E-4,1.0E-5,9.80665,0.001029,0.001387,1.01E-4,5.76,-18.96,-23.7,198.1215,0.1439,-0.5682,55.81395,37.500088,188.9842,NaN,0.0,12.0,,19 / 20,,2529,2021-05-01 16:24:33:067
-0.012579,-0.004109,9.788393,-1.19E-4,1.0E-5,9.80665,0.001029,0.001387,1.01E-4,5.76,-18.96,-23.7,198.1215,0.1439,-0.5682,55.81395,37.500088,188.9842,NaN,0.0,12.0,,19 / 20,,2539,2021-05-01 16:24:33:077
0.00612,-8.8E-5,9.76431,-2.01E-4,8.0E-6,9.80665,0.001029,1.65E-4,-0.002342,5.82,-19.02,-23.7,198.1215,0.1439,-0.5682,55.81395,37.500088,188.9842,NaN,0.0,12.0,,19 / 20,,2549,2021-05-01 16:24:33:087
-0.014069,-0.001115,9.793213,-2.01E-4,8.0E-6,9.80665,-1.92E-4,-0.002279,-0.00112,5.82,-19.02,-23.7,198.1215,0.1439,-0.5682,55.81395,37.500088,188.9842,NaN,0.0,12.0,,19 / 20,,2559,2021-05-01 16:24:33:097
7.1E-5,0.004518,9.745234,2.3E-5,-2.3E-4,9.806649,4.18E-4,7.76E-4,0.001323,5.58,-18.66,-23.04,198.0981,0.1435,-0.5693,55.81395,37.500088,188.9842,NaN,0.0,12.0,,19 / 20,,2570,2021-05-01 16:24:33:108
7.1E-5,0.004518,9.745234,2.3E-5,-2.3E-4,9.806649,-8.03E-4,-4.46E-4,-5.09E-4,5.58,-18.66,-23.04,198.0981,0.1435,-0.5693,55.81395,37.500088,188.9842,NaN,0.0,12.0,,19 / 20,,2579,2021-05-01 16:24:33:117
0.012276,0.003023,9.754698,2.71E-4,-4.9E-5,9.80665,-1.92E-4,1.65E-4,1.01E-4,5.64,-18.78,-22.98,198.0981,0.1435,-0.5693,55.81395,37.500088,188.9842,NaN,0.0,12.0,,19 / 20,,2589,2021-05-01 16:24:33:127
0.00349,-0.009289,9.781045,7.34E-4,7.45E-4,9.806652,0.002862,1.65E-4,7.12E-4,6.18,-19.2,-23.88,198.121,0.1438,-0.5677,55.81395,37.500088,188.9842,NaN,0.0,12.0,,19 / 20,,2600,2021-05-01 16:24:33:138
0.007582,-0.010613,9.759451,7.34E-4,7.45E-4,9.806652,0.00164,0.001387,0.001934,6.18,-19.2,-23.88,198.121,0.1438,-0.5677,55.81395,37.500088,188.9842,NaN,0.0,12.0,,19 / 20,,2610,2021-05-01 16:24:33:148
0.007582,-0.010613,9.759451,7.34E-4,7.45E-4,9.806652,0.00164,0.001387,0.001934,6.18,-19.2,-23.88,198.121,0.1438,-0.5677,55.81395,37.500088,188.9842,NaN,0.0,12.0,,19 / 20,,2619,2021-05-01 16:24:33:157
-0.007085,0.014384,9.742953,9.64E-4,7.7E-4,9.806651,-8.03E-4,-4.46E-4,7.12E-4,5.76,-19.32,-24.12,198.121,0.1438,-0.5677,55.81395,37.500088,188.9842,NaN,0.0,12.0,,19 / 20,,2629,2021-05-01 16:24:33:167
-0.007085,0.014384,9.742953,9.64E-4,7.7E-4,9.806651,0.00164,-4.46E-4,1.01E-4,5.76,-19.32,-24.12,198.121,0.1438,-0.5677,55.81395,37.500088,188.9842,NaN,0.0,12.0,,19 / 20,,2639,2021-05-01 16:24:33:177
-0.004132,0.001979,9.762012,-1.11E-4,-5.7E-5,9.806651,-1.92E-4,-4.46E-4,1.01E-4,5.34,-19.14,-22.98,195.3332,0.1498,-0.5638,55.81395,37.500088,188.9842,NaN,0.0,12.0,,19 / 20,,2649,2021-05-01 16:24:33:187
0.001385,0.012866,9.766808,-1.11E-4,-5.7E-5,9.806651,-8.03E-4,-0.001668,-0.001731,5.34,-19.14,-22.98,195.3332,0.1498,-0.5638,55.81395,37.500088,188.9842,NaN,0.0,12.0,,19 / 20,,2659,2021-05-01 16:24:33:197
0.015099,-8.5E-4,9.776195,-2.45E-4,-2.9E-5,9.806651,0.001029,1.65E-4,0.001323,5.52,-18.9,-22.98,195.3332,0.1498,-0.5638,55.81395,37.500088,188.9842,NaN,0.0,12.0,,19 / 20,,2669,2021-05-01 16:24:33:207
-0.006677,-0.01725,9.785879,-2.45E-4,-2.9E-5,9.806651,4.18E-4,0.001998,-0.002342,5.52,-18.9,-22.98,195.3332,0.1498,-0.5638,55.81395,37.500088,188.9842,NaN,0.0,12.0,,19 / 20,,2679,2021-05-01 16:24:33:217
-0.006677,-0.01725,9.785879,-1.52E-4,2.0E-4,9.806651,-1.92E-4,1.65E-4,-5.09E-4,5.58,-19.02,-23.28,198.0915,0.1493,-0.5651,55.81395,37.500088,188.9842,NaN,0.0,12.0,,19 / 20,,2690,2021-05-01 16:24:33:228
0.006105,-0.006077,9.761881,-1.52E-4,2.0E-4,9.806651,-8.03E-4,7.76E-4,1.01E-4,5.58,-19.02,-23.28,198.0915,0.1493,-0.5651,55.81395,37.500088,188.9842,NaN,0.0,12.0,,19 / 20,,2699,2021-05-01 16:24:33:237
-0.003191,0.012105,9.75009,-8.0E-5,1.63E-4,9.806651,0.001029,-4.46E-4,-0.00112,5.76,-19.32,-23.88,198.0915,0.1493,-0.5651,55.81395,37.500088,188.9842,NaN,0.0,12.0,,19 / 20,,2709,2021-05-01 16:24:33:247
-0.002172,-8.81E-4,9.771558,-8.0E-5,1.63E-4,9.806651,0.002251,1.65E-4,0.001323,5.76,-19.32,-23.88,198.0915,0.1493,-0.5651,55.81395,37.500088,188.9842,NaN,0.0,12.0,,19 / 20,,2719,2021-05-01 16:24:33:257
0.001547,-0.004701,9.752352,-3.58E-4,-5.3E-5,9.806651,0.002862,-0.001668,0.001934,6.18,-18.9,-24.72,198.1411,0.15,-0.5658,55.81395,37.500088,188.9842,NaN,0.0,12.0,,19 / 20,,2729,2021-05-01 16:24:33:267
0.001547,-0.004701,9.752352,-3.58E-4,-5.3E-5,9.806651,-1.92E-4,7.76E-4,7.12E-4,6.18,-18.9,-24.72,198.1411,0.15,-0.5658,55.81395,37.500088,188.9842,NaN,0.0,12.0,,19 / 20,,2739,2021-05-01 16:24:33:277
-0.026257,-0.005736,9.776528,-6.53E-4,-1.8E-4,9.80665,0.00164,0.002608,-5.09E-4,6.42,-18.9,-24.24,198.1411,0.15,-0.5658,55.81395,37.500088,188.9842,NaN,0.0,12.0,,19 / 20,,2750,2021-05-01 16:24:33:288
-0.005459,0.012744,9.740538,-6.53E-4,-1.8E-4,9.80665,-8.03E-4,-0.001057,1.01E-4,6.42,-18.9,-24.24,198.1411,0.15,-0.5658,55.81395,37.500088,188.9842,NaN,0.0,12.0,,19 / 20,,2760,2021-05-01 16:24:33:298
-0.005459,0.012744,9.740538,-0.001037,5.9E-5,9.80665,-8.03E-4,-0.001057,1.01E-4,6.18,-18.6,-24.12,198.1211,0.1478,-0.5691,55.81395,37.500088,188.9842,NaN,0.0,12.0,,19 / 20,,2769,2021-05-01 16:24:33:307
-0.003656,-0.015246,9.769103,-0.001037,5.9E-5,9.80665,-1.92E-4,0.001998,-5.09E-4,5.82,-18.72,-24.36,198.1211,0.1478,-0.5691,55.81395,37.500088,188.9842,NaN,0.0,12.0,,19 / 20,,2780,2021-05-01 16:24:33:318
0.009148,7.11E-4,9.771475,-0.001977,-8.58E-4,9.80665,-1.92E-4,0.001998,-5.09E-4,5.82,-18.72,-24.36,198.1211,0.1478,-0.5691,55.81395,37.500088,188.9842,NaN,0.0,12.0,,19 / 20,,2790,2021-05-01 16:24:33:328
-2.64E-4,0.003888,9.735659,-0.001782,-8.87E-4,9.80665,-0.002025,-0.001668,0.001323,5.82,-18.96,-24.0,198.1211,0.1478,-0.5691,55.81395,37.500088,188.9842,NaN,0.0,12.0,,19 / 20,,2799,2021-05-01 16:24:33:337
0.005756,0.006963,9.733229,-0.001782,-8.87E-4,9.80665,-0.001414,1.65E-4,0.001323,5.82,-18.96,-24.0,198.1211,0.1478,-0.5691,55.81395,37.500088,188.9842,NaN,0.0,12.0,,19 / 20,,2809,2021-05-01 16:24:33:347
0.005756,0.006963,9.733229,-4.96E-4,-9.25E-4,9.80665,0.001029,-4.46E-4,7.12E-4,5.94,-19.44,-24.12,198.1336,0.1397,-0.5774,55.81395,37.500088,188.9842,NaN,0.0,12.0,,19 / 20,,2820,2021-05-01 16:24:33:358
0.008668,-0.005221,9.769061,-6.16E-4,-0.00148,9.80665,4.18E-4,7.76E-4,-0.002342,5.94,-19.38,-24.24,198.1336,0.1397,-0.5774,55.81395,37.500088,188.9842,NaN,0.0,12.0,,19 / 20,,2829,2021-05-01 16:24:33:367
-0.024697,6.73E-4,9.766993,-6.16E-4,-0.00148,9.80665,-0.002025,0.001387,1.01E-4,5.94,-19.38,-24.24,198.1336,0.1397,-0.5774,55.81395,37.500088,188.9842,NaN,0.0,12.0,,19 / 20,,2840,2021-05-01 16:24:33:378
-0.011025,-0.003811,9.769242,-8.99E-4,-0.00236,9.806649,-1.92E-4,-4.46E-4,7.12E-4,5.82,-18.9,-24.18,198.1336,0.1397,-0.5774,55.81395,37.500088,188.9842,NaN,0.0,12.0,,19 / 20,,2849,2021-05-01 16:24:33:387
0.002669,-0.008307,9.773886,-8.99E-4,-0.00236,9.806649,-1.92E-4,0.001387,0.001323,5.82,-18.9,-24.18,198.1336,0.1397,-0.5774,55.81395,37.500088,188.9842,NaN,0.0,12.0,,19 / 20,,2860,2021-05-01 16:24:33:398
0.002669,-0.008307,9.773886,-2.54E-4,-6.85E-4,9.806649,-8.03E-4,-0.002889,7.12E-4,5.76,-18.9,-23.52,198.1398,0.1249,-0.5781,55.81395,37.500088,188.9842,NaN,0.0,12.0,,19 / 20,,2869,2021-05-01 16:24:33:407
0.004314,0.003866,9.778721,-2.54E-4,-6.85E-4,9.806649,-8.03E-4,-0.002889,7.12E-4,5.76,-18.9,-23.52,198.1398,0.1249,-0.5781,55.81395,37.500088,188.9842,NaN,0.0,12.0,,19 / 20,,2880,2021-05-01 16:24:33:418
7.07E-4,-0.022678,9.783403,-6.24E-4,-3.88E-4,9.806649,-0.001414,-4.46E-4,0.001323,6.24,-17.76,-23.28,198.1398,0.1249,-0.5781,55.81395,37.500088,188.9842,NaN,0.0,12.0,,19 / 20,,2890,2021-05-01 16:24:33:428
0.014941,-0.009683,9.773767,-6.24E-4,-3.88E-4,9.806649,-8.03E-4,-0.001668,-0.00112,6.24,-17.76,-23.28,198.1398,0.1249,-0.5781,55.81395,37.500088,188.9842,NaN,0.0,12.0,,19 / 20,,2900,2021-05-01 16:24:33:438
-3.05E-4,0.003517,9.771582,-1.23E-4,2.81E-4,9.80665,0.001029,-4.46E-4,-5.09E-4,6.42,-17.34,-23.16,200.0821,0.1216,-0.5809,55.81395,37.500088,188.9842,NaN,0.0,12.0,,19 / 20,,2910,2021-05-01 16:24:33:448
-3.05E-4,0.003517,9.771582,-1.23E-4,2.81E-4,9.80665,4.18E-4,-0.001057,7.12E-4,6.42,-17.34,-23.16,200.0821,0.1216,-0.5809,55.81395,37.500088,188.9842,NaN,0.0,12.0,,19 / 20,,2919,2021-05-01 16:24:33:457
-0.00164,0.014235,9.757287,5.12E-4,-6.6E-5,9.80665,4.18E-4,-4.46E-4,1.01E-4,6.54,-18.24,-23.16,200.0821,0.1216,-0.5809,55.81395,37.500088,188.9842,NaN,0.0,12.0,,19 / 20,,2929,2021-05-01 16:24:33:467
0.006869,-0.011863,9.776223,5.12E-4,-6.6E-5,9.80665,-8.03E-4,1.65E-4,1.01E-4,6.54,-18.24,-23.16,200.0821,0.1216,-0.5809,55.81395,37.500088,188.9842,NaN,0.0,12.0,,19 / 20,,2939,2021-05-01 16:24:33:477
-0.015272,-0.00184,9.774076,8.74E-4,0.001136,9.806652,-1.92E-4,-0.001057,7.12E-4,6.42,-18.96,-22.92,198.1151,0.1223,-0.5779,55.81395,37.500088,188.9842,NaN,0.0,12.0,,19 / 20,,2949,2021-05-01 16:24:33:487
-0.00634,0.010374,9.764483,8.74E-4,0.001136,9.806652,-0.001414,-4.46E-4,7.12E-4,6.42,-18.96,-22.92,198.1151,0.1223,-0.5779,55.81395,37.500088,188.9842,NaN,0.0,12.0,,19 / 20,,2959,2021-05-01 16:24:33:497
-0.00634,0.010374,9.764483,0.001148,0.002141,9.806651,-0.001414,-4.46E-4,7.12E-4,6.06,-18.96,-22.62,198.1151,0.1223,-0.5779,55.81395,37.500088,188.9842,NaN,0.0,12.0,,19 / 20,,2970,2021-05-01 16:24:33:508
0.001273,-0.004701,9.759547,0.001148,0.002141,9.806651,0.00164,0.001387,1.01E-4,6.06,-18.96,-22.62,198.1151,0.1223,-0.5779,55.81395,37.500088,188.9842,NaN,0.0,12.0,,19 / 20,,2979,2021-05-01 16:24:33:517
0.016205,-0.004592,9.780967,2.73E-4,7.6E-4,9.80665,4.18E-4,-0.001057,1.01E-4,5.76,-18.6,-23.52,198.1326,0.1363,-0.5755,55.81395,37.500088,188.9842,NaN,0.0,12.0,,19 / 20,,2990,2021-05-01 16:24:33:528
0.007022,0.005985,9.776315,1.49E-4,7.51E-4,9.80665,-0.001414,-0.001057,-0.00112,5.94,-18.54,-23.82,198.1326,0.1363,-0.5755,55.81395,37.500088,188.9842,NaN,0.0,12.0,,19 / 20,,2999,2021-05-01 16:24:33:537
0.007022,0.005985,9.776315,1.49E-4,7.51E-4,9.80665,4.18E-4,-4.46E-4,7.12E-4,5.94,-18.54,-23.82,198.1326,0.1363,-0.5755,55.81395,37.500088,188.9842,NaN,0.0,12.0,,19 / 20,,3009,2021-05-01 16:24:33:547
-0.007464,-0.006859,9.757218,5.03E-4,0.001108,9.806651,-8.03E-4,-0.002279,-0.003564,6.0,-18.48,-24.0,198.1326,0.1363,-0.5755,55.81395,37.500088,188.9842,NaN,0.0,12.0,,19 / 20,,3020,2021-05-01 16:24:33:558
-0.007464,-0.006859,9.757218,5.03E-4,0.001108,9.806651,-8.03E-4,-0.002279,-0.003564,6.0,-18.48,-24.0,198.1326,0.1363,-0.5755,55.81395,37.500088,188.9842,NaN,0.0,12.0,,19 / 20,,3030,2021-05-01 16:24:33:568
-6.55E-4,0.00601,9.764412,3.94E-4,2.58E-4,9.80665,4.18E-4,-4.46E-4,1.01E-4,6.24,-18.48,-23.58,199.0621,0.1433,-0.5747,55.81395,37.500088,188.9842,NaN,0.0,12.0,,19 / 20,,3039,2021-05-01 16:24:33:577
-0.007968,-2.87E-4,9.762047,3.94E-4,2.58E-4,9.80665,-8.03E-4,0.001387,0.002545,6.24,-18.48,-23.58,199.0621,0.1433,-0.5747,55.81395,37.500088,188.9842,NaN,0.0,12.0,,19 / 20,,3049,2021-05-01 16:24:33:587
-0.011137,-0.024562,9.776303,1.96E-4,2.73E-4,9.80665,0.00164,0.002608,0.002545,6.6,-18.12,-23.82,199.0621,0.1433,-0.5747,55.81395,37.500088,188.9842,NaN,0.0,12.0,,19 / 20,,3059,2021-05-01 16:24:33:597
-0.011137,-0.024562,9.776303,1.89E-4,9.24E-4,9.80665,-1.92E-4,-0.002279,-0.00112,6.42,-18.0,-23.94,199.0621,0.1433,-0.5747,55.81395,37.500088,188.9842,NaN,0.0,12.0,,19 / 20,,3069,2021-05-01 16:24:33:607
0.007319,0.022328,9.75007,1.89E-4,9.24E-4,9.80665,0.001029,-0.001668,-0.002342,6.42,-18.0,-23.94,199.0621,0.1433,-0.5747,55.81395,37.500088,188.9842,NaN,0.0,12.0,,19 / 20,,3080,2021-05-01 16:24:33:618
-0.00675,0.003278,9.750088,8.2E-5,5.65E-4,9.806649,0.001029,-0.001668,7.12E-4,5.7,-18.6,-23.64,198.1279,0.1488,-0.5754,55.81395,37.500088,188.9842,NaN,0.0,12.0,,19 / 20,,3089,2021-05-01 16:24:33:627
0.006944,-0.001218,9.754732,3.35E-4,6.84E-4,9.806648,0.002862,0.001387,0.001934,5.64,-18.48,-24.06,198.1279,0.1488,-0.5754,55.81395,37.500088,188.9842,NaN,0.0,12.0,,19 / 20,,3099,2021-05-01 16:24:33:637
0.004669,-4.73E-4,9.754756,3.35E-4,6.84E-4,9.806648,-0.002025,1.65E-4,7.12E-4,5.64,-18.48,-24.06,198.1279,0.1488,-0.5754,55.81395,37.500088,188.9842,NaN,0.0,12.0,,19 / 20,,3109,2021-05-01 16:24:33:647
0.004669,-4.73E-4,9.754756,9.3E-5,0.001008,9.806649,-0.002025,1.65E-4,7.12E-4,5.76,-18.36,-23.88,198.1279,0.1488,-0.5754,55.81395,37.500088,188.9842,NaN,0.0,12.0,,19 / 20,,3120,2021-05-01 16:24:33:658
2.87E-4,0.008454,9.778789,9.3E-5,0.001008,9.806649,-0.002025,1.65E-4,-0.00112,5.76,-18.36,-23.88,198.1279,0.1488,-0.5754,55.81395,37.500088,188.9842,NaN,0.0,12.0,,19 / 20,,3129,2021-05-01 16:24:33:667
0.007655,0.007519,9.752388,1.73E-4,3.6E-5,9.806649,-0.001414,7.76E-4,0.001934,6.0,-18.42,-22.92,199.0341,0.1546,-0.5767,55.81395,37.500088,188.9842,NaN,0.0,12.0,,19 / 20,,3139,2021-05-01 16:24:33:677
0.006833,0.005284,9.747593,1.55E-4,1.21E-4,9.806649,0.001029,7.76E-4,0.002545,6.24,-18.24,-22.92,199.0341,0.1546,-0.5767,55.81395,37.500088,188.9842,NaN,0.0,12.0,,19 / 20,,3150,2021-05-01 16:24:33:688
0.0091,-0.003124,9.757102,1.55E-4,1.21E-4,9.806649,-1.92E-4,-0.001668,-0.00112,6.24,-18.24,-22.92,199.0341,0.1546,-0.5767,55.81395,37.500088,188.9842,NaN,0.0,12.0,,19 / 20,,3160,2021-05-01 16:24:33:698
0.0091,-0.003124,9.757102,2.32E-4,-1.21E-4,9.806649,4.18E-4,1.65E-4,7.12E-4,6.12,-18.48,-23.52,199.0341,0.1546,-0.5767,55.81395,37.500088,188.9842,NaN,0.0,12.0,,19 / 20,,3169,2021-05-01 16:24:33:707
0.006961,-0.002427,9.771491,2.32E-4,-1.21E-4,9.806649,-0.002025,0.001387,0.001934,6.12,-18.48,-23.52,199.0341,0.1546,-0.5767,55.81395,37.500088,188.9842,NaN,0.0,12.0,,19 / 20,,3180,2021-05-01 16:24:33:718
-0.007635,-0.022637,9.757135,-3.72E-4,-5.13E-4,9.80665,0.00164,-4.46E-4,-0.00112,6.3,-18.96,-24.24,198.1256,0.1543,-0.5752,55.81395,37.500088,188.9842,NaN,0.0,12.0,,19 / 20,,3189,2021-05-01 16:24:33:727
0.006662,0.005413,9.764355,-6.5E-4,-0.001212,9.806651,0.001029,-4.46E-4,0.002545,6.36,-19.38,-23.88,198.1256,0.1543,-0.5752,55.813953,37.5001,189.6513,NaN,0.0,12.0,,19 / 20,,3199,2021-05-01 16:24:33:737
-0.010303,0.008541,9.730997,-6.5E-4,-0.001212,9.806651,-0.002025,0.001387,1.01E-4,6.36,-19.38,-23.88,198.1256,0.1543,-0.5752,55.813953,37.5001,189.6513,NaN,0.0,12.0,,18 / 19,,3209,2021-05-01 16:24:33:747
-0.010303,0.008541,9.730997,-5.94E-4,-0.001872,9.80665,-8.03E-4,-0.001668,-0.002342,5.82,-19.8,-23.58,198.1256,0.1543,-0.5752,55.813953,37.5001,189.6513,NaN,0.0,12.0,,18 / 19,,3220,2021-05-01 16:24:33:758
-0.005545,-0.008172,9.745228,-5.94E-4,-0.001872,9.80665,-8.03E-4,-0.001668,-0.002342,5.82,-19.8,-23.58,198.1256,0.1543,-0.5752,55.813953,37.5001,189.6513,NaN,0.0,12.0,,18 / 19,,3229,2021-05-01 16:24:33:767
-0.009231,-0.004997,9.776401,-6.7E-5,5.7E-5,9.80665,0.00164,-4.46E-4,1.01E-4,5.58,-18.66,-23.46,198.1047,0.1429,-0.5751,55.813953,37.5001,189.6513,NaN,0.0,12.0,,18 / 19,,3239,2021-05-01 16:24:33:777
-0.003172,0.005599,9.783589,-1.62E-4,-8.1E-5,9.80665,-0.001414,-0.001668,-0.00112,5.7,-18.66,-24.06,198.1047,0.1429,-0.5751,55.813953,37.5001,189.6513,NaN,0.0,12.0,,18 / 19,,3250,2021-05-01 16:24:33:788
0.00115,-0.00329,9.752375,-1.62E-4,-8.1E-5,9.80665,0.001029,7.76E-4,-0.001731,5.7,-18.66,-24.06,198.1047,0.1429,-0.5751,55.813953,37.5001,189.6513,NaN,0.0,12.0,,18 / 19,,3259,2021-05-01 16:24:33:797
0.00115,-0.00329,9.752375,-2.62E-4,2.47E-4,9.80665,4.18E-4,-4.46E-4,-5.09E-4,6.0,-19.08,-24.06,198.1047,0.1429,-0.5751,55.813953,37.5001,189.6513,NaN,0.0,12.0,,18 / 19,,3269,2021-05-01 16:24:33:807
0.011142,0.003463,9.773874,-2.62E-4,2.47E-4,9.80665,-8.03E-4,1.65E-4,0.002545,6.0,-19.08,-24.06,198.1047,0.1429,-0.5751,55.813953,37.5001,189.6513,NaN,0.0,12.0,,18 / 19,,3279,2021-05-01 16:24:33:817
0.021209,-0.012546,9.759335,5.77E-4,-0.0014,9.80665,4.18E-4,-4.46E-4,7.12E-4,6.36,-19.14,-23.34,198.1064,0.1438,-0.577,55.813953,37.5001,189.6513,NaN,0.0,12.0,,18 / 19,,3289,2021-05-01 16:24:33:827
2.6E-5,-6.08E-4,9.769165,0.001089,-0.002176,9.806651,0.00164,-4.46E-4,1.01E-4,6.24,-18.72,-23.4,198.1064,0.1438,-0.577,55.813953,37.5001,189.6513,NaN,0.0,12.0,,18 / 19,,3299,2021-05-01 16:24:33:837
2.6E-5,-6.08E-4,9.769165,0.001089,-0.002176,9.806651,-0.001414,1.65E-4,-5.09E-4,6.24,-18.72,-23.4,198.1064,0.1438,-0.577,55.813953,37.5001,189.6513,NaN,0.0,12.0,,18 / 19,,3309,2021-05-01 16:24:33:847
-0.001569,0.002451,9.762012,0.001617,-0.002329,9.80665,-8.03E-4,-4.46E-4,0.001934,5.34,-18.78,-23.64,198.1064,0.1438,-0.577,55.813953,37.5001,189.6513,NaN,0.0,12.0,,18 / 19,,3319,2021-05-01 16:24:33:857
-5.9E-5,-5.55E-4,9.759588,3.43E-4,1.2E-5,9.806649,-8.03E-4,0.001387,-0.001731,5.28,-18.72,-23.4,195.3381,0.1338,-0.5638,55.813953,37.5001,189.6513,NaN,0.0,12.0,,18 / 19,,3330,2021-05-01 16:24:33:868
-5.9E-5,-5.55E-4,9.759588,3.43E-4,1.2E-5,9.806649,-8.03E-4,0.001387,0.002545,5.28,-18.72,-23.4,195.3381,0.1338,-0.5638,55.813953,37.5001,189.6513,NaN,0.0,12.0,,18 / 19,,3340,2021-05-01 16:24:33:878
0.0015,0.013179,9.769191,1.62E-4,5.08E-4,9.806649,-0.001414,1.65E-4,-5.09E-4,5.16,-18.66,-23.64,195.3381,0.1338,-0.5638,55.813953,37.5001,189.6513,NaN,0.0,12.0,,18 / 19,,3349,2021-05-01 16:24:33:887
0.011145,0.003086,9.769056,1.62E-4,5.08E-4,9.806649,-0.001414,1.65E-4,-5.09E-4,5.16,-18.66,-23.64,195.3381,0.1338,-0.5638,55.813953,37.5001,189.6513,NaN,0.0,12.0,,18 / 19,,3359,2021-05-01 16:24:33:897
-0.02022,-0.020576,9.76443,-6.5E-5,0.001757,9.806648,4.18E-4,-0.001668,0.001323,5.22,-18.9,-24.0,195.3381,0.1338,-0.5638,55.813953,37.5001,189.6513,NaN,0.0,12.0,,18 / 19,,3369,2021-05-01 16:24:33:907
-0.02022,-0.020576,9.76443,-6.5E-5,0.001757,9.806648,-1.92E-4,0.001387,1.01E-4,5.22,-18.9,-24.0,195.3381,0.1338,-0.5638,55.813953,37.5001,189.6513,NaN,0.0,12.0,,18 / 19,,3379,2021-05-01 16:24:33:917
-0.007187,0.018067,9.759712,-2.94E-4,7.21E-4,9.806652,4.18E-4,-0.002279,0.001323,5.34,-19.14,-24.06,195.3643,0.1436,-0.5669,55.813953,37.5001,189.6513,NaN,0.0,12.0,,18 / 19,,3389,2021-05-01 16:24:33:927
3.93E-4,-0.01057,9.759516,-8.74E-4,0.001219,9.806652,4.18E-4,1.65E-4,-0.00112,5.7,-18.78,-24.78,195.3643,0.1436,-0.5669,55.813953,37.5001,189.6513,NaN,0.0,12.0,,18 / 19,,3399,2021-05-01 16:24:33:937
-0.005605,0.003474,9.766824,-8.74E-4,0.001219,9.806652,-8.03E-4,0.001998,1.01E-4,5.7,-18.78,-24.78,195.3643,0.1436,-0.5669,55.813953,37.5001,189.6513,NaN,0.0,12.0,,18 / 19,,3409,2021-05-01 16:24:33:947
5.58E-4,-6.65E-4,9.752382,-0.001127,0.00155,9.806651,-8.03E-4,1.65E-4,1.01E-4,5.58,-18.48,-24.78,195.3643,0.1436,-0.5669,55.813953,37.5001,189.6513,NaN,0.0,12.0,,18 / 19,,3419,2021-05-01 16:24:33:957
5.58E-4,-6.65E-4,9.752382,-0.001127,0.00155,9.806651,-0.002025,-0.002279,1.01E-4,5.58,-18.48,-24.78,195.3643,0.1436,-0.5669,55.813953,37.5001,189.6513,NaN,0.0,12.0,,18 / 19,,3429,2021-05-01 16:24:33:967
-0.013226,-0.003141,9.776454,8.0E-6,3.37E-4,9.806651,-0.001414,7.76E-4,7.12E-4,5.16,-18.66,-24.42,195.3723,0.1506,-0.5756,55.813953,37.5001,189.6513,NaN,0.0,12.0,,18 / 19,,3439,2021-05-01 16:24:33:977
-0.001049,-0.004005,9.77634,1.92E-4,6.0E-5,9.806651,4.18E-4,0.001387,0.002545,5.52,-19.26,-23.88,195.3723,0.1506,-0.5756,55.813953,37.5001,189.6513,NaN,0.0,12.0,,18 / 19,,3449,2021-05-01 16:24:33:987
0.009276,0.008179,9.730817,1.92E-4,6.0E-5,9.806651,-0.001414,-0.001668,-0.001731,5.52,-19.26,-23.88,195.3723,0.1506,-0.5756,55.813953,37.5001,189.6513,NaN,0.0,12.0,,18 / 19,,3459,2021-05-01 16:24:33:997
-0.007368,0.010225,9.747739,4.12E-4,5.7E-5,9.806651,0.001029,7.76E-4,0.002545,5.94,-19.26,-23.76,195.3723,0.1506,-0.5756,55.813953,37.5001,189.6513,NaN,0.0,12.0,,18 / 19,,3469,2021-05-01 16:24:34:007
-0.007368,0.010225,9.747739,4.12E-4,5.7E-5,9.806651,0.001029,-0.001668,7.12E-4,5.94,-19.26,-23.76,195.3723,0.1506,-0.5756,55.813953,37.5001,189.6513,NaN,0.0,12.0,,18 / 19,,3479,2021-05-01 16:24:34:017
-0.006062,0.004979,9.778825,2.46E-4,1.3E-4,9.806651,-1.92E-4,1.65E-4,0.001934,5.94,-19.08,-23.7,198.1257,0.1517,-0.5744,55.813953,37.5001,189.6513,NaN,0.0,12.0,,18 / 19,,3489,2021-05-01 16:24:34:027
0.010464,0.002136,9.761905,2.46E-4,1.3E-4,9.806651,4.18E-4,0.001998,-5.09E-4,5.94,-19.08,-23.7,198.1257,0.1517,-0.5744,55.813953,37.5001,189.6513,NaN,0.0,12.0,,18 / 19,,3499,2021-05-01 16:24:34:037
0.010464,0.002136,9.761905,-0.001009,-1.5E-4,9.80665,-8.03E-4,0.001387,-0.002342,6.48,-19.92,-23.52,198.1257,0.1517,-0.5744,55.813953,37.5001,189.6513,NaN,0.0,12.0,,18 / 19,,3509,2021-05-01 16:24:34:047
-0.006377,-0.009907,9.73325,-0.001009,-1.5E-4,9.80665,-0.002636,1.65E-4,-5.09E-4,6.48,-19.92,-23.52,198.1257,0.1517,-0.5744,55.813953,37.5001,189.6513,NaN,0.0,12.0,,18 / 19,,3519,2021-05-01 16:24:34:057
0.00129,0.011043,9.759642,-9.01E-4,-6.02E-4,9.80665,-8.03E-4,7.76E-4,-0.00112,6.18,-19.56,-24.3,197.2833,0.1467,-0.5783,55.813953,37.5001,189.6513,NaN,0.0,12.0,,18 / 19,,3529,2021-05-01 16:24:34:067
6.07E-4,-0.006213,9.728427,-9.01E-4,-6.02E-4,9.80665,-0.002025,-0.002279,-0.001731,6.18,-19.56,-24.3,197.2833,0.1467,-0.5783,55.813953,37.5001,189.6513,NaN,0.0,12.0,,18 / 19,,3539,2021-05-01 16:24:34:077
0.001881,-0.001549,9.71168,-1.14E-4,-5.4E-5,9.80665,-1.92E-4,1.65E-4,0.004377,5.34,-18.42,-24.3,197.2833,0.1467,-0.5783,55.813953,37.5001,189.6513,NaN,0.0,12.0,,18 / 19,,3549,2021-05-01 16:24:34:087
0.001881,-0.001549,9.71168,-1.14E-4,-5.4E-5,9.80665,-0.001414,-0.002279,-0.001731,5.34,-18.42,-24.3,197.2833,0.1467,-0.5783,55.813953,37.5001,189.6513,NaN,0.0,12.0,,18 / 19,,3559,2021-05-01 16:24:34:097
0.004563,0.005054,9.742823,-3.04E-4,-9.74E-4,9.806651,-0.001414,-0.002279,-0.001731,5.7,-18.36,-23.7,199.066,0.1462,-0.5789,55.813953,37.5001,189.6513,NaN,0.0,12.0,,18 / 19,,3569,2021-05-01 16:24:34:107
-0.01502,0.006729,9.752581,-3.04E-4,-9.74E-4,9.806651,4.18E-4,-0.001057,1.01E-4,5.7,-18.36,-23.7,199.066,0.1462,-0.5789,55.813953,37.5001,189.6513,NaN,0.0,12.0,,18 / 19,,3579,2021-05-01 16:24:34:117
0.001581,-0.004094,9.759557,-4.34E-4,-0.00153,9.80665,0.001029,0.001998,0.002545,5.58,-19.26,-23.64,199.066,0.1462,-0.5789,55.813953,37.5001,189.6513,NaN,0.0,12.0,,18 / 19,,3589,2021-05-01 16:24:34:127
0.022812,0.013953,9.74032,-2.94E-4,-0.001689,9.80665,0.002862,0.004441,-0.00112,5.58,-19.26,-23.64,199.066,0.1462,-0.5789,55.813953,37.5001,189.6513,NaN,0.0,12.0,,18 / 19,,3600,2021-05-01 16:24:34:138
0.022812,0.013953,9.74032,-2.94E-4,-0.001689,9.80665,0.002251,-4.46E-4,0.001934,5.4,-19.44,-23.46,195.3524,0.1363,-0.5773,55.813953,37.5001,189.6513,NaN,0.0,12.0,,18 / 19,,3609,2021-05-01 16:24:34:147
0.003651,-0.01254,9.709209,7.6E-5,-1.17E-4,9.806651,-1.92E-4,-0.001668,-0.00112,5.4,-19.44,-23.46,195.3524,0.1363,-0.5773,55.813953,37.5001,189.6513,NaN,0.0,12.0,,18 / 19,,3619,2021-05-01 16:24:34:157
0.010897,0.002715,9.764292,7.6E-5,-1.17E-4,9.806651,-1.92E-4,-0.001668,-0.00112,6.06,-19.08,-23.82,195.3524,0.1363,-0.5773,55.813953,37.5001,189.6513,NaN,0.0,12.0,,18 / 19,,3629,2021-05-01 16:24:34:167
-0.018613,0.013334,9.750245,3.06E-4,-2.64E-4,9.806651,-1.92E-4,1.65E-4,0.003767,6.06,-19.08,-23.82,195.3524,0.1363,-0.5773,55.813953,37.5001,189.6513,NaN,0.0,12.0,,18 / 19,,3639,2021-05-01 16:24:34:177
0.01202,-0.007965,9.733097,2.5E-5,1.6E-5,9.806651,-8.03E-4,0.001387,0.002545,6.06,-19.26,-24.3,198.1326,0.1353,-0.5751,55.813953,37.5001,189.6513,NaN,0.0,12.0,,18 / 19,,3649,2021-05-01 16:24:34:187
0.01202,-0.007965,9.733097,2.5E-5,1.6E-5,9.806651,-8.03E-4,0.001387,0.002545,6.06,-19.26,-24.3,198.1326,0.1353,-0.5751,55.813953,37.5001,189.6513,NaN,0.0,12.0,,18 / 19,,3660,2021-05-01 16:24:34:198
0.011048,0.004992,9.716415,3.73E-4,1.12E-4,9.806652,-0.002025,-4.46E-4,-0.004175,5.94,-19.44,-24.0,198.1326,0.1353,-0.5751,55.813953,37.5001,189.6513,NaN,0.0,12.0,,18 / 19,,3669,2021-05-01 16:24:34:207
8.59E-4,0.010723,9.766817,3.73E-4,1.12E-4,9.806652,0.00164,-0.002279,-0.00112,5.94,-19.44,-24.0,198.1326,0.1353,-0.5751,55.813953,37.5001,189.6513,NaN,0.0,12.0,,18 / 19,,3679,2021-05-01 16:24:34:217
8.59E-4,0.010723,9.766817,3.3E-5,2.75E-4,9.806651,0.00164,-4.46E-4,0.001323,6.06,-18.42,-23.64,199.0632,0.1366,-0.5733,55.813953,37.5001,189.6513,NaN,0.0,12.0,,18 / 19,,3689,2021-05-01 16:24:34:227
0.001891,0.007716,9.738058,3.3E-5,2.75E-4,9.806651,0.001029,-4.46E-4,1.01E-4,6.06,-18.42,-23.64,199.0632,0.1366,-0.5733,55.813953,37.5001,189.6513,NaN,0.0,12.0,,18 / 19,,3700,2021-05-01 16:24:34:238
-0.005638,0.007772,9.742912,-1.01E-4,9.82E-4,9.80665,0.001029,7.76E-4,-5.09E-4,6.06,-17.7,-23.52,199.0632,0.1366,-0.5733,55.813953,37.5001,189.6513,NaN,0.0,12.0,,18 / 19,,3710,2021-05-01 16:24:34:248
9.64E-4,-0.009702,9.740365,-1.01E-4,9.82E-4,9.80665,4.18E-4,0.001387,-0.001731,6.06,-17.7,-23.52,199.0632,0.1366,-0.5733,55.813953,37.5001,189.6513,NaN,0.0,12.0,,18 / 19,,3719,2021-05-01 16:24:34:257
-0.010118,-0.006947,9.742876,4.65E-4,0.001037,9.806651,-8.03E-4,0.003219,7.12E-4,6.12,-18.6,-23.58,198.1308,0.1418,-0.5757,55.813953,37.5001,189.6513,NaN,0.0,12.0,,18 / 19,,3729,2021-05-01 16:24:34:267
-0.010118,-0.006947,9.742876,4.65E-4,0.001037,9.806651,-8.03E-4,0.003219,7.12E-4,6.12,-18.6,-23.58,198.1308,0.1418,-0.5757,55.813953,37.5001,189.6513,NaN,0.0,12.0,,18 / 19,,3739,2021-05-01 16:24:34:277
-0.012411,0.008901,9.750167,7.3E-4,0.002165,9.80665,-8.03E-4,7.76E-4,0.001934,6.3,-18.96,-24.06,198.1308,0.1418,-0.5757,55.813953,37.5001,189.6513,NaN,0.0,12.0,,18 / 19,,3750,2021-05-01 16:24:34:288
-0.007988,-5.5E-5,9.730924,7.3E-4,0.002165,9.80665,-0.001414,1.65E-4,7.12E-4,6.3,-18.96,-24.06,198.1308,0.1418,-0.5757,55.813953,37.5001,189.6513,NaN,0.0,12.0,,18 / 19,,3759,2021-05-01 16:24:34:297
-0.001037,0.005313,9.747661,2.1E-5,6.43E-4,9.806651,-8.03E-4,-0.001668,-5.09E-4,6.18,-19.14,-24.06,198.1257,0.1552,-0.5756,55.813953,37.5001,189.6513,NaN,0.0,12.0,,18 / 19,,3769,2021-05-01 16:24:34:307
-0.001843,0.010622,9.745303,2.1E-5,6.43E-4,9.806651,-8.03E-4,-0.001057,0.001323,6.18,-19.14,-24.06,198.1257,0.1552,-0.5756,55.813953,37.5001,189.6513,NaN,0.0,12.0,,18 / 19,,3779,2021-05-01 16:24:34:317
-0.012974,-0.015993,9.754826,3.0E-5,9.22E-4,9.80665,-8.03E-4,7.76E-4,-5.09E-4,5.1,-19.14,-23.64,198.1257,0.1552,-0.5756,55.813953,37.5001,189.6513,NaN,0.0,12.0,,18 / 19,,3790,2021-05-01 16:24:34:328
-0.012974,-0.015993,9.754826,3.0E-5,9.22E-4,9.80665,-8.03E-4,0.001998,0.001934,5.1,-19.14,-23.64,198.1257,0.1552,-0.5756,55.813953,37.5001,189.6513,NaN,0.0,12.0,,18 / 19,,3799,2021-05-01 16:24:34:337
-5.31E-4,0.006811,9.723725,1.62E-4,-1.0E-6,9.80665,-0.001414,0.00383,7.12E-4,5.88,-18.9,-24.06,198.1255,0.1603,-0.5771,55.813953,37.5001,189.6513,NaN,0.0,12.0,,18 / 19,,3809,2021-05-01 16:24:34:347
0.01093,0.010575,9.738013,1.62E-4,-1.0E-6,9.80665,-0.003247,-0.001057,-0.001731,5.88,-18.9,-24.06,198.1255,0.1603,-0.5771,55.813953,37.5001,189.6513,NaN,0.0,12.0,,18 / 19,,3819,2021-05-01 16:24:34:357
-0.005575,0.013402,9.757329,3.44E-4,4.79E-4,9.80665,-1.92E-4,1.65E-4,-0.001731,6.6,-18.84,-24.12,198.1255,0.1603,-0.5771,55.813953,37.5001,189.6513,NaN,0.0,12.0,,18 / 19,,3829,2021-05-01 16:24:34:367
-0.005575,0.013402,9.757329,3.44E-4,4.79E-4,9.80665,-0.002025,0.001387,-0.00112,6.6,-18.84,-24.12,198.1255,0.1603,-0.5771,55.813953,37.5001,189.6513,NaN,0.0,12.0,,18 / 19,,3839,2021-05-01 16:24:34:377
0.005542,-0.005941,9.757121,-2.15E-4,-8.54E-4,9.806651,-0.002636,0.001998,-0.001731,6.12,-18.54,-24.42,198.1231,0.1636,-0.5761,55.813953,37.5001,189.6513,NaN,0.0,12.0,,18 / 19,,3849,2021-05-01 16:24:34:387
0.008313,0.003301,9.733207,-2.15E-4,-8.54E-4,9.806651,0.00164,7.76E-4,-0.002342,6.12,-18.54,-24.42,198.1231,0.1636,-0.5761,55.813953,37.5001,189.6513,NaN,0.0,12.0,,18 / 19,,3859,2021-05-01 16:24:34:397
-5.4E-4,-0.001431,9.7572,-2.39E-4,-6.26E-4,9.806651,0.002251,0.002608,7.12E-4,6.0,-19.08,-24.36,198.1231,0.1636,-0.5761,55.813953,37.5001,189.6513,NaN,0.0,12.0,,18 / 19,,3870,2021-05-01 16:24:34:408
-5.4E-4,-0.001431,9.7572,-2.39E-4,-6.26E-4,9.806651,0.002251,0.002608,7.12E-4,6.0,-19.08,-24.36,198.1231,0.1636,-0.5761,55.813953,37.5001,189.6513,NaN,0.0,12.0,,18 / 19,,3879,2021-05-01 16:24:34:417
0.008696,0.011369,9.754799,-1.47E-4,-1.84E-4,9.806652,-0.001414,-0.002889,0.001934,5.58,-19.2,-24.06,198.1248,0.1597,-0.5762,55.813953,37.5001,189.6513,NaN,0.0,12.0,,18 / 19,,3889,2021-05-01 16:24:34:427
-0.009195,0.009576,9.786071,-1.47E-4,-1.84E-4,9.806652,4.18E-4,-4.46E-4,-0.00112,5.58,-19.2,-24.06,198.1248,0.1597,-0.5762,55.813953,37.5001,189.6513,NaN,0.0,12.0,,18 / 19,,3899,2021-05-01 16:24:34:437
-0.009195,0.009576,9.786071,-3.58E-4,-6.18E-4,9.806652,-0.001414,1.65E-4,-5.09E-4,5.7,-19.02,-24.12,198.1248,0.1597,-0.5762,55.813953,37.5001,189.6513,NaN,0.0,12.0,,18 / 19,,3910,2021-05-01 16:24:34:448
-0.005493,0.00588,9.774046,-3.58E-4,-6.18E-4,9.806652,4.18E-4,-0.001057,-0.002342,5.7,-19.02,-24.12,198.1248,0.1597,-0.5762,55.813953,37.5001,189.6513,NaN,0.0,12.0,,18 / 19,,3920,2021-05-01 16:24:34:458
-0.005493,0.00588,9.774046,-3.01E-4,-7.12E-4,9.806651,-0.001414,-0.001668,-0.002953,6.18,-19.38,-23.82,198.1273,0.1556,-0.5771,55.813953,37.5001,189.6513,NaN,0.0,12.0,,18 / 19,,3929,2021-05-01 16:24:34:467
0.00291,0.016534,9.747693,-3.01E-4,-7.12E-4,9.806651,-1.92E-4,1.65E-4,0.001323,6.18,-19.38,-23.82,198.1273,0.1556,-0.5771,55.813953,37.5001,189.6513,NaN,0.0,12.0,,18 / 19,,3939,2021-05-01 16:24:34:477
0.008183,0.009789,9.740425,-3.5E-4,-9.84E-4,9.80665,-8.03E-4,1.65E-4,-5.09E-4,5.64,-18.72,-24.18,198.1273,0.1556,-0.5771,55.813953,37.5001,189.6513,NaN,0.0,12.0,,18 / 19,,3949,2021-05-01 16:24:34:487
0.008183,0.009789,9.740425,-3.5E-4,-9.84E-4,9.80665,-8.03E-4,7.76E-4,7.12E-4,5.64,-18.72,-24.18,198.1273,0.1556,-0.5771,55.813953,37.5001,189.6513,NaN,0.0,12.0,,18 / 19,,3960,2021-05-01 16:24:34:498
0.002636,-0.009813,9.778673,-1.23E-4,8.5E-5,9.806651,4.18E-4,-0.001057,-0.001731,5.4,-18.54,-23.82,195.3745,0.1495,-0.5773,55.813953,37.5001,189.6513,NaN,0.0,12.0,,18 / 19,,3970,2021-05-01 16:24:34:508
-0.013884,0.002166,9.783673,-1.23E-4,8.5E-5,9.806651,0.003473,7.76E-4,7.12E-4,5.4,-18.54,-23.82,195.3745,0.1495,-0.5773,55.813953,37.5001,189.6513,NaN,0.0,12.0,,18 / 19,,3979,2021-05-01 16:24:34:517
1.11E-4,0.008276,9.774001,-1.2E-4,-1.96E-4,9.806651,-1.92E-4,1.65E-4,0.001323,6.12,-19.02,-23.4,195.3745,0.1495,-0.5773,55.813953,37.5001,189.6513,NaN,0.0,12.0,,18 / 19,,3989,2021-05-01 16:24:34:527
1.11E-4,0.008276,9.774001,-1.2E-4,-1.96E-4,9.806651,-1.92E-4,1.65E-4,0.001323,6.12,-19.02,-23.4,195.3745,0.1495,-0.5773,55.813953,37.5001,189.6513,NaN,0.0,12.0,,18 / 19,,3999,2021-05-01 16:24:34:537
0.00648,-0.00387,9.761909,4.9E-5,2.6E-5,9.806651,0.00164,0.001387,0.003156,6.6,-18.72,-23.82,200.8018,0.1483,-0.5776,55.813953,37.5001,189.6513,NaN,0.0,12.0,,18 / 19,,4009,2021-05-01 16:24:34:547
0.00661,-0.008909,9.713989,4.9E-5,2.6E-5,9.806651,0.00164,7.76E-4,0.001323,6.6,-18.72,-23.82,200.8018,0.1483,-0.5776,55.813953,37.5001,189.6513,NaN,0.0,12.0,,18 / 19,,4019,2021-05-01 16:24:34:557
0.00661,-0.008909,9.713989,-6.5E-5,-3.49E-4,9.806651,-1.92E-4,0.001387,0.001934,6.48,-18.42,-23.64,200.8018,0.1483,-0.5776,55.813953,37.5001,189.6513,NaN,0.0,12.0,,18 / 19,,4029,2021-05-01 16:24:34:567
0.02012,-0.001335,9.749837,-6.5E-5,-3.49E-4,9.806651,-0.001414,-0.0035,-0.00112,6.48,-18.42,-23.64,200.8018,0.1483,-0.5776,55.813953,37.5001,189.6513,NaN,0.0,12.0,,18 / 19,,4039,2021-05-01 16:24:34:577
-0.00478,5.78E-4,9.75006,1.37E-4,-2.58E-4,9.80665,0.002862,-0.001668,7.12E-4,5.88,-18.9,-23.76,198.1309,0.1462,-0.5773,55.813953,37.5001,189.6513,NaN,0.0,12.0,,18 / 19,,4049,2021-05-01 16:24:34:587
-0.001526,0.009506,9.781208,1.37E-4,-2.58E-4,9.80665,-0.002025,-0.001057,-0.004175,5.88,-18.9,-23.76,198.1309,0.1462,-0.5773,55.813953,37.5001,189.6513,NaN,0.0,12.0,,18 / 19,,4060,2021-05-01 16:24:34:598
-0.006354,-0.00392,9.740471,-1.1E-5,-2.82E-4,9.806651,0.001029,1.65E-4,-5.09E-4,5.64,-18.78,-23.28,198.1309,0.1462,-0.5773,55.813953,37.5001,189.6513,NaN,0.0,12.0,,18 / 19,,4069,2021-05-01 16:24:34:607
-0.006354,-0.00392,9.740471,-1.1E-5,-2.82E-4,9.806651,4.18E-4,1.65E-4,1.01E-4,5.64,-18.78,-23.28,198.1309,0.1462,-0.5773,55.813953,37.5001,189.6513,NaN,0.0,12.0,,18 / 19,,4080,2021-05-01 16:24:34:618
-0.006165,-0.004039,9.762018,1.14E-4,5.2E-5,9.806651,4.18E-4,0.001387,0.001323,6.0,-19.08,-22.92,198.1059,0.1446,-0.5768,55.813953,37.5001,189.6513,NaN,0.0,12.0,,18 / 19,,4090,2021-05-01 16:24:34:628
0.014348,-0.002926,9.769026,1.14E-4,5.2E-5,9.806651,-1.92E-4,-4.46E-4,-0.002342,6.0,-19.08,-22.92,198.1059,0.1446,-0.5768,55.813953,37.5001,189.6513,NaN,0.0,12.0,,18 / 19,,4099,2021-05-01 16:24:34:637
0.014348,-0.002926,9.769026,4.0E-5,3.15E-4,9.806651,-1.92E-4,-4.46E-4,-0.00112,5.58,-19.56,-23.7,198.1059,0.1446,-0.5768,55.813953,37.5001,189.6513,NaN,0.0,12.0,,18 / 19,,4109,2021-05-01 16:24:34:647
-0.011554,0.003061,9.75492,5.25E-4,7.18E-4,9.806651,-1.92E-4,7.76E-4,0.003156,5.76,-19.56,-23.52,198.1059,0.1446,-0.5768,55.813953,37.5001,189.6513,NaN,0.0,12.0,,18 / 19,,4119,2021-05-01 16:24:34:657
-0.011554,0.003061,9.75492,5.25E-4,7.18E-4,9.806651,-1.92E-4,7.76E-4,0.003156,5.76,-19.56,-23.52,198.1059,0.1446,-0.5768,55.813953,37.5001,189.6513,NaN,0.0,12.0,,18 / 19,,4129,2021-05-01 16:24:34:667
-0.001475,-0.005329,9.776335,-1.04E-4,1.49E-4,9.80665,0.00164,0.002608,0.001934,5.58,-19.26,-23.7,198.1274,0.1496,-0.5752,55.813953,37.5001,189.6513,NaN,0.0,12.0,,18 / 19,,4140,2021-05-01 16:24:34:678
0.011402,0.004736,9.757121,-8.0E-6,2.05E-4,9.80665,-1.92E-4,-0.001668,0.001323,6.3,-19.2,-23.7,198.1274,0.1496,-0.5752,55.813953,37.5001,189.6513,NaN,0.0,12.0,,18 / 19,,4150,2021-05-01 16:24:34:688
-0.0044,0.00987,9.771655,-8.0E-6,2.05E-4,9.80665,-8.03E-4,0.001998,7.12E-4,6.3,-19.2,-23.7,198.1274,0.1496,-0.5752,55.813953,37.5001,189.6513,NaN,0.0,12.0,,18 / 19,,4159,2021-05-01 16:24:34:697
-0.001959,-0.006071,9.781122,-8.8E-5,2.07E-4,9.80665,-1.92E-4,-0.001668,-5.09E-4,5.82,-19.32,-23.16,198.1274,0.1496,-0.5752,55.813953,37.5001,189.6513,NaN,0.0,12.0,,18 / 19,,4170,2021-05-01 16:24:34:708
-0.001959,-0.006071,9.781122,-8.8E-5,2.07E-4,9.80665,0.001029,0.001998,0.002545,5.82,-19.32,-23.16,198.1274,0.1496,-0.5752,55.813953,37.5001,189.6513,NaN,0.0,12.0,,18 / 19,,4179,2021-05-01 16:24:34:717
0.004533,-5.47E-4,9.747575,5.2E-5,-3.55E-4,9.806649,0.001029,7.76E-4,7.12E-4,5.88,-18.96,-23.64,198.128,0.1506,-0.5761,55.813953,37.5001,189.6513,NaN,0.0,12.0,,18 / 19,,4190,2021-05-01 16:24:34:728
-0.003032,0.006805,9.742894,5.2E-5,-3.55E-4,9.806649,-8.03E-4,-4.46E-4,0.002545,5.88,-18.96,-23.64,198.128,0.1506,-0.5761,55.81396,37.50011,188.4462,NaN,0.0,12.0,,18 / 20,,4199,2021-05-01 16:24:34:737
-0.003032,0.006805,9.742894,-7.0E-5,-2.01E-4,9.806649,-8.03E-4,-4.46E-4,0.002545,6.06,-18.3,-24.6,198.128,0.1506,-0.5761,55.81396,37.50011,188.4462,NaN,0.0,12.0,,18 / 20,,4209,2021-05-01 16:24:34:747
-0.016436,-0.003976,9.762107,-7.0E-5,-2.01E-4,9.806649,0.002251,1.65E-4,0.001323,6.06,-18.3,-24.6,198.128,0.1506,-0.5761,55.81396,37.50011,188.4462,NaN,0.0,12.0,,18 / 20,,4219,2021-05-01 16:24:34:757
0.011615,0.012182,9.745195,-1.1E-5,-3.42E-4,9.806651,-8.03E-4,1.65E-4,-0.001731,6.0,-18.42,-24.24,199.0614,0.1493,-0.5761,55.81396,37.50011,188.4462,NaN,0.0,12.0,,18 / 20,,4229,2021-05-01 16:24:34:767
0.007027,-0.001465,9.757129,1.0E-6,-7.51E-4,9.806652,-1.92E-4,1.65E-4,7.12E-4,5.88,-18.6,-23.4,199.0614,0.1493,-0.5761,55.81396,37.50011,188.4462,NaN,0.0,12.0,,18 / 20,,4240,2021-05-01 16:24:34:778
0.007027,-0.001465,9.757129,1.0E-6,-7.51E-4,9.806652,-0.001414,1.65E-4,1.01E-4,5.88,-18.6,-23.4,199.0614,0.1493,-0.5761,55.81396,37.50011,188.4462,NaN,0.0,12.0,,18 / 20,,4249,2021-05-01 16:24:34:787
-0.014613,0.008478,9.781318,-8.9E-5,-7.06E-4,9.806651,-8.03E-4,0.00383,1.01E-4,5.88,-18.6,-23.4,199.0614,0.1493,-0.5761,55.81396,37.50011,188.4462,NaN,0.0,12.0,,18 / 20,,4259,2021-05-01 16:24:34:797
0.001004,-0.003654,9.747587,3.05E-4,-7.5E-5,9.806651,4.18E-4,7.76E-4,-5.09E-4,6.24,-19.2,-22.86,198.104,0.1452,-0.5752,55.81396,37.50011,188.4462,NaN,0.0,12.0,,18 / 20,,4269,2021-05-01 16:24:34:807
-0.003717,0.005484,9.733313,3.05E-4,-7.5E-5,9.806651,0.00164,7.76E-4,7.12E-4,6.24,-19.2,-22.86,198.104,0.1452,-0.5752,55.81396,37.50011,188.4462,NaN,0.0,12.0,,18 / 20,,4279,2021-05-01 16:24:34:817
-0.008291,0.01453,9.735798,-3.89E-4,-2.1E-5,9.806651,-8.03E-4,-0.001057,-0.00112,6.24,-19.38,-23.4,198.104,0.1452,-0.5752,55.81396,37.50011,188.4462,NaN,0.0,12.0,,18 / 20,,4289,2021-05-01 16:24:34:827
-0.008291,0.01453,9.735798,-3.89E-4,-2.1E-5,9.806651,-8.03E-4,1.65E-4,0.001323,6.06,-19.32,-23.88,198.1317,0.1444,-0.5774,55.81396,37.50011,188.4462,NaN,0.0,12.0,,18 / 20,,4300,2021-05-01 16:24:34:838
0.018087,0.008503,9.75948,-3.2E-5,5.13E-4,9.806651,-1.92E-4,7.76E-4,-5.09E-4,6.06,-19.32,-23.88,198.1317,0.1444,-0.5774,55.81396,37.50011,188.4462,NaN,0.0,12.0,,18 / 20,,4309,2021-05-01 16:24:34:847
-0.016617,0.024841,9.783818,2.35E-4,0.001011,9.806651,-8.03E-4,-0.001668,-5.09E-4,6.48,-19.38,-24.0,198.1317,0.1444,-0.5774,55.81396,37.50011,188.4462,NaN,0.0,12.0,,18 / 20,,4319,2021-05-01 16:24:34:857
-0.01178,-0.007013,9.797966,2.35E-4,0.001011,9.806651,-8.03E-4,-0.001668,-5.09E-4,6.48,-19.38,-24.0,198.1317,0.1444,-0.5774,55.81396,37.50011,188.4462,NaN,0.0,12.0,,18 / 20,,4329,2021-05-01 16:24:34:867
0.01519,-6.52E-4,9.769032,1.26E-4,0.001462,9.806651,0.002251,0.001998,1.01E-4,6.36,-19.2,-24.78,198.1317,0.1444,-0.5774,55.81396,37.50011,188.4462,NaN,0.0,12.0,,18 / 20,,4339,2021-05-01 16:24:34:877
0.01519,-6.52E-4,9.769032,1.26E-4,0.001462,9.806651,0.002251,0.001998,1.01E-4,6.36,-19.2,-24.78,198.1317,0.1444,-0.5774,55.81396,37.50011,188.4462,NaN,0.0,12.0,,18 / 20,,4350,2021-05-01 16:24:34:888
0.005098,0.022846,9.754884,6.28E-4,3.0E-6,9.806649,0.001029,7.76E-4,1.01E-4,5.58,-18.66,-24.24,198.1308,0.1528,-0.5793,55.81396,37.50011,188.4462,NaN,0.0,12.0,,18 / 20,,4360,2021-05-01 16:24:34:898
0.007926,0.007875,9.738022,8.76E-4,4.25E-4,9.806649,-0.001414,1.65E-4,0.001323,5.76,-18.66,-24.06,198.1308,0.1528,-0.5793,55.81396,37.50011,188.4462,NaN,0.0,12.0,,18 / 20,,4369,2021-05-01 16:24:34:907
-0.022851,0.005274,9.767012,8.76E-4,4.25E-4,9.806649,-0.002025,0.001998,7.12E-4,5.76,-18.66,-24.06,198.1308,0.1528,-0.5793,55.81396,37.50011,188.4462,NaN,0.0,12.0,,18 / 20,,4379,2021-05-01 16:24:34:917
-0.007667,0.005328,9.771667,0.001474,0.001428,9.806648,-8.03E-4,-0.001668,-5.09E-4,5.46,-18.84,-23.64,198.1308,0.1528,-0.5793,55.81396,37.50011,188.4462,NaN,0.0,12.0,,18 / 20,,4389,2021-05-01 16:24:34:927
-0.007667,0.005328,9.771667,0.001474,0.001428,9.806648,-0.001414,0.001387,-0.00112,5.46,-18.84,-23.64,198.1308,0.1528,-0.5793,55.81396,37.50011,188.4462,NaN,0.0,12.0,,18 / 20,,4399,2021-05-01 16:24:34:937
-0.023637,0.013708,9.764665,-2.31E-4,0.001009,9.806649,0.001029,-0.001668,-0.001731,5.76,-19.14,-23.76,198.1206,0.1634,-0.5737,55.81396,37.50011,188.4462,NaN,0.0,12.0,,18 / 20,,4410,2021-05-01 16:24:34:948
-0.003861,-0.002839,9.764398,-7.39E-4,0.00148,9.806649,4.18E-4,1.65E-4,7.12E-4,5.76,-19.02,-23.58,198.1206,0.1634,-0.5737,55.81396,37.50011,188.4462,NaN,0.0,12.0,,18 / 20,,4420,2021-05-01 16:24:34:958
0.001724,-0.009791,9.793042,-7.39E-4,0.00148,9.806649,-1.92E-4,7.76E-4,7.12E-4,5.58,-19.08,-23.82,198.1206,0.1634,-0.5737,55.81396,37.50011,188.4462,NaN,0.0,12.0,,18 / 20,,4430,2021-05-01 16:24:34:968
0.001724,-0.009791,9.793042,-0.001289,0.002266,9.806649,-0.001414,1.65E-4,-5.09E-4,5.58,-19.08,-23.82,198.1206,0.1634,-0.5737,55.81396,37.50011,188.4462,NaN,0.0,12.0,,18 / 20,,4439,2021-05-01 16:24:34:977
0.00733,-0.01398,9.737898,2.2E-5,1.56E-4,9.80665,0.00164,-0.001668,0.001323,6.06,-18.06,-24.42,199.062,0.1736,-0.585,55.81396,37.50011,188.4462,NaN,0.0,12.0,,18 / 20,,4450,2021-05-01 16:24:34:988
4.66E-4,0.003999,9.764428,2.2E-5,1.56E-4,9.80665,-0.001414,-0.001057,-0.004175,6.06,-18.06,-24.42,199.062,0.1736,-0.585,55.81396,37.50011,188.4462,NaN,0.0,12.0,,18 / 20,,4459,2021-05-01 16:24:34:997
-0.003215,-0.007479,9.790727,-4.0E-6,3.64E-4,9.80665,-8.03E-4,0.001998,-5.09E-4,5.88,-18.36,-24.48,199.062,0.1736,-0.585,55.81396,37.50011,188.4462,NaN,0.0,12.0,,18 / 20,,4469,2021-05-01 16:24:35:007
-0.003215,-0.007479,9.790727,-4.0E-6,3.64E-4,9.80665,-8.03E-4,-0.001668,1.01E-4,5.88,-18.36,-24.48,199.062,0.1736,-0.585,55.81396,37.50011,188.4462,NaN,0.0,12.0,,18 / 20,,4479,2021-05-01 16:24:35:017
-0.009243,-0.002856,9.788413,1.7E-5,5.2E-4,9.80665,-0.001414,-0.001668,1.01E-4,6.18,-18.78,-24.36,199.062,0.1736,-0.585,55.81396,37.50011,188.4462,NaN,0.0,12.0,,18 / 20,,4489,2021-05-01 16:24:35:027
-0.008322,-0.02076,9.7428,1.7E-5,5.2E-4,9.80665,0.001029,-0.001668,0.003767,6.18,-18.78,-24.36,199.062,0.1736,-0.585,55.81396,37.50011,188.4462,NaN,0.0,12.0,,18 / 20,,4499,2021-05-01 16:24:35:037
-0.008649,-0.00866,9.762038,3.42E-4,-8.12E-4,9.80665,0.001029,1.65E-4,-0.002342,6.36,-19.2,-23.82,198.1295,0.1765,-0.5859,55.81396,37.50011,188.4462,NaN,0.0,12.0,,18 / 20,,4509,2021-05-01 16:24:35:047
0.001984,-0.007118,9.766743,3.12E-4,-9.28E-4,9.806651,-0.001414,0.001387,7.12E-4,6.12,-19.38,-23.82,198.1295,0.1765,-0.5859,55.81396,37.50011,188.4462,NaN,0.0,12.0,,18 / 20,,4520,2021-05-01 16:24:35:058
0.002068,-0.007176,9.77632,4.31E-4,-8.56E-4,9.80665,4.18E-4,-4.46E-4,0.002545,6.54,-18.9,-24.18,198.1295,0.1765,-0.5859,55.81396,37.50011,188.4462,NaN,0.0,12.0,,18 / 20,,4530,2021-05-01 16:24:35:068
0.002068,-0.007176,9.77632,4.31E-4,-8.56E-4,9.80665,-8.03E-4,-0.002279,0.003156,6.54,-18.9,-24.18,198.1295,0.1765,-0.5859,55.81396,37.50011,188.4462,NaN,0.0,12.0,,18 / 20,,4539,2021-05-01 16:24:35:077
-0.008152,0.008875,9.742986,4.31E-4,-8.56E-4,9.80665,0.001029,0.001387,0.003156,6.54,-18.9,-24.18,198.1295,0.1765,-0.5859,55.81396,37.50011,188.4462,NaN,0.0,12.0,,18 / 20,,4549,2021-05-01 16:24:35:087
-0.012076,-0.001811,9.769285,6.7E-5,2.65E-4,9.806651,0.001029,0.001387,0.003156,6.42,-19.26,-24.36,198.1265,0.1725,-0.5819,55.81396,37.50011,188.4462,NaN,0.0,12.0,,18 / 20,,4559,2021-05-01 16:24:35:097
0.010594,-0.009201,9.759465,7.6E-5,4.64E-4,9.806651,-0.002025,-0.001668,-0.004175,6.54,-19.26,-24.42,198.1265,0.1725,-0.5819,55.81396,37.50011,188.4462,NaN,0.0,12.0,,18 / 20,,4569,2021-05-01 16:24:35:107
0.006913,-0.005522,9.773886,7.6E-5,4.64E-4,9.806651,-0.001414,-0.002279,1.01E-4,6.54,-19.26,-24.42,198.1265,0.1725,-0.5819,55.81396,37.50011,188.4462,NaN,0.0,12.0,,18 / 20,,4580,2021-05-01 16:24:35:118
0.006913,-0.005522,9.773886,-1.31E-4,-2.73E-4,9.806652,4.18E-4,0.002608,0.001323,5.76,-19.08,-24.66,198.1265,0.1725,-0.5819,55.81396,37.50011,188.4462,NaN,0.0,12.0,,18 / 20,,4589,2021-05-01 16:24:35:127
-0.006285,0.008966,9.745355,-1.31E-4,-2.73E-4,9.806652,0.001029,0.001387,7.12E-4,5.76,-19.08,-24.66,198.1265,0.1725,-0.5819,55.81396,37.50011,188.4462,NaN,0.0,12.0,,18 / 20,,4600,2021-05-01 16:24:35:138
-0.011328,-0.006719,9.750091,-4.21E-4,-0.001188,9.806649,0.00164,0.001387,1.01E-4,5.76,-18.9,-23.7,198.1274,0.1708,-0.5822,55.81396,37.50011,188.4462,NaN,0.0,12.0,,18 / 20,,4610,2021-05-01 16:24:35:148
0.002904,0.006287,9.740467,-4.21E-4,-0.001188,9.806649,4.18E-4,7.76E-4,-0.001731,5.76,-18.9,-23.7,198.1274,0.1708,-0.5822,55.81396,37.50011,188.4462,NaN,0.0,12.0,,18 / 20,,4620,2021-05-01 16:24:35:158
-0.010026,-0.002039,9.728559,-4.99E-4,-0.002299,9.806648,0.002251,-0.001057,-0.002342,5.28,-18.96,-23.82,198.1274,0.1708,-0.5822,55.81396,37.50011,188.4462,NaN,0.0,12.0,,18 / 20,,4630,2021-05-01 16:24:35:168
-0.010026,-0.002039,9.728559,-4.99E-4,-0.002299,9.806648,0.002251,-0.001057,-0.002342,5.28,-18.96,-23.82,198.1274,0.1708,-0.5822,55.81396,37.50011,188.4462,NaN,0.0,12.0,,18 / 20,,4639,2021-05-01 16:24:35:177
0.003498,0.001097,9.752395,-9.7E-5,-4.8E-4,9.806651,-1.92E-4,0.001387,-0.00112,5.1,-18.78,-24.54,195.4024,0.1571,-0.5808,55.81396,37.50011,188.4462,NaN,0.0,12.0,,18 / 20,,4649,2021-05-01 16:24:35:187
0.009237,-0.005478,9.761884,-9.7E-5,-4.8E-4,9.806651,-0.002636,0.001387,7.12E-4,5.76,-18.24,-24.54,195.4024,0.1571,-0.5808,55.81396,37.50011,188.4462,NaN,0.0,12.0,,18 / 20,,4660,2021-05-01 16:24:35:198
0.003305,-0.008797,9.757133,-6.06E-4,-7.18E-4,9.806651,-0.002636,0.001387,7.12E-4,5.76,-18.24,-24.54,195.4024,0.1571,-0.5808,55.81396,37.50011,188.4462,NaN,0.0,12.0,,18 / 20,,4669,2021-05-01 16:24:35:207
0.003305,-0.008797,9.757133,-6.06E-4,-7.18E-4,9.806651,0.002862,7.76E-4,7.12E-4,5.76,-18.24,-24.54,195.4024,0.1571,-0.5808,55.81396,37.50011,188.4462,NaN,0.0,12.0,,18 / 20,,4679,2021-05-01 16:24:35:217
6.86E-4,-0.017456,9.773866,-2.69E-4,-9.02E-4,9.80665,-1.92E-4,0.003219,1.01E-4,6.48,-18.9,-24.12,198.1353,0.1521,-0.5831,55.81396,37.50011,188.4462,NaN,0.0,12.0,,18 / 20,,4689,2021-05-01 16:24:35:227
-0.015362,0.002929,9.769336,-2.69E-4,-9.02E-4,9.80665,-8.03E-4,-4.46E-4,7.12E-4,6.48,-18.9,-24.12,198.1353,0.1521,-0.5831,55.81396,37.50011,188.4462,NaN,0.0,12.0,,18 / 20,,4699,2021-05-01 16:24:35:237
-0.015362,0.002929,9.769336,-6.51E-4,-0.001937,9.80665,-8.03E-4,-4.46E-4,7.12E-4,6.78,-19.5,-24.18,198.1353,0.1521,-0.5831,55.81396,37.50011,188.4462,NaN,0.0,12.0,,18 / 20,,4709,2021-05-01 16:24:35:247
-0.002668,-0.003681,9.745241,-6.51E-4,-0.001937,9.80665,0.001029,-4.46E-4,-5.09E-4,6.78,-19.5,-24.18,198.1353,0.1521,-0.5831,55.81396,37.50011,188.4462,NaN,0.0,12.0,,18 / 20,,4719,2021-05-01 16:24:35:257
0.004248,-0.01393,9.761879,-8.45E-4,-7.79E-4,9.806649,0.00164,0.001387,7.12E-4,5.94,-18.72,-24.06,198.1399,0.1402,-0.5832,55.81396,37.50011,188.4462,NaN,0.0,12.0,,18 / 20,,4729,2021-05-01 16:24:35:267
0.011145,-0.001116,9.778648,-7.74E-4,-9.78E-4,9.806649,-0.002025,-4.46E-4,1.01E-4,5.7,-18.6,-23.94,198.1399,0.1402,-0.5832,55.81396,37.50011,188.4462,NaN,0.0,12.0,,18 / 20,,4739,2021-05-01 16:24:35:277
0.007851,0.00507,9.752373,-7.74E-4,-9.78E-4,9.806649,-8.03E-4,-4.46E-4,-0.002953,5.7,-18.6,-23.94,198.1399,0.1402,-0.5832,55.81396,37.50011,188.4462,NaN,0.0,12.0,,18 / 20,,4750,2021-05-01 16:24:35:288
0.007851,0.00507,9.752373,-0.001329,-5.35E-4,9.80665,-0.001414,-0.001668,1.01E-4,5.94,-18.3,-23.58,198.1399,0.1402,-0.5832,55.81396,37.50011,188.4462,NaN,0.0,12.0,,18 / 20,,4759,2021-05-01 16:24:35:297
-0.003511,-0.006306,9.745229,-0.001329,-5.35E-4,9.80665,4.18E-4,-4.46E-4,-0.00112,5.94,-18.3,-23.58,198.1399,0.1402,-0.5832,55.81396,37.50011,188.4462,NaN,0.0,12.0,,18 / 20,,4769,2021-05-01 16:24:35:307
0.009242,0.005464,9.749978,4.28E-4,6.0E-6,9.806651,-0.003858,-0.001057,-0.002342,6.24,-18.48,-24.0,199.0833,0.1348,-0.5896,55.81396,37.50011,188.4462,NaN,0.0,12.0,,18 / 20,,4779,2021-05-01 16:24:35:317
-0.007207,-0.006676,9.788368,2.34E-4,2.62E-4,9.806651,-1.92E-4,-0.001057,7.12E-4,6.36,-18.18,-23.7,199.0833,0.1348,-0.5896,55.81396,37.50011,188.4462,NaN,0.0,12.0,,18 / 20,,4790,2021-05-01 16:24:35:328
-0.001309,-0.026468,9.795388,2.34E-4,2.62E-4,9.806651,0.001029,-4.46E-4,0.001323,6.36,-18.18,-23.7,199.0833,0.1348,-0.5896,55.81396,37.50011,188.4462,NaN,0.0,12.0,,18 / 20,,4799,2021-05-01 16:24:35:337
-0.001309,-0.026468,9.795388,5.15E-4,2.4E-5,9.806651,0.001029,-4.46E-4,0.001323,5.7,-18.12,-24.42,199.0833,0.1348,-0.5896,55.81396,37.50011,188.4462,NaN,0.0,12.0,,18 / 20,,4809,2021-05-01 16:24:35:347
0.001693,0.01316,9.742905,5.15E-4,2.4E-5,9.806651,-0.002636,-0.002889,7.12E-4,5.7,-18.12,-24.42,199.0833,0.1348,-0.5896,55.81396,37.50011,188.4462,NaN,0.0,12.0,,18 / 20,,4819,2021-05-01 16:24:35:357
-0.005989,-0.009909,9.762001,-2.57E-4,9.39E-4,9.806649,-8.03E-4,7.76E-4,-5.09E-4,5.1,-18.36,-25.02,196.2266,0.1359,-0.5868,55.81396,37.50011,188.4462,NaN,0.0,12.0,,18 / 20,,4829,2021-05-01 16:24:35:367
0.002579,0.002571,9.757198,-2.57E-4,9.39E-4,9.806649,-8.03E-4,0.001387,-0.002342,5.58,-18.6,-24.06,196.2266,0.1359,-0.5868,55.81396,37.50011,188.4462,NaN,0.0,12.0,,18 / 20,,4839,2021-05-01 16:24:35:377
0.003583,-0.00272,9.76195,-1.4E-5,0.001045,9.806649,-1.92E-4,1.65E-4,7.12E-4,5.58,-18.6,-24.06,196.2266,0.1359,-0.5868,55.81396,37.50011,188.4462,NaN,0.0,12.0,,18 / 20,,4850,2021-05-01 16:24:35:388
0.003583,-0.00272,9.76195,-1.4E-5,0.001045,9.806649,-1.92E-4,1.65E-4,0.003156,5.58,-18.6,-24.06,196.2266,0.1359,-0.5868,55.81396,37.50011,188.4462,NaN,0.0,12.0,,18 / 20,,4859,2021-05-01 16:24:35:397
-0.008079,-4.5E-5,9.742921,2.21E-4,4.71E-4,9.806652,-0.001414,7.76E-4,-0.001731,6.0,-18.66,-23.52,198.1454,0.1418,-0.5886,55.81396,37.50011,188.4462,NaN,0.0,12.0,,18 / 20,,4869,2021-05-01 16:24:35:407
0.014001,0.005274,9.759513,2.21E-4,4.71E-4,9.806652,0.00164,0.001998,-0.002342,6.0,-18.66,-23.52,198.1454,0.1418,-0.5886,55.81396,37.50011,188.4462,NaN,0.0,12.0,,18 / 20,,4879,2021-05-01 16:24:35:417
-0.003313,-0.001669,9.766813,2.99E-4,0.00126,9.80665,4.18E-4,-0.001057,-0.00112,5.94,-18.78,-24.12,198.1454,0.1418,-0.5886,55.81396,37.50011,188.4462,NaN,0.0,12.0,,18 / 20,,4889,2021-05-01 16:24:35:427
-0.003313,-0.001669,9.766813,2.99E-4,0.00126,9.80665,-8.03E-4,-4.46E-4,0.001323,5.94,-18.78,-24.12,198.1454,0.1418,-0.5886,55.81396,37.50011,188.4462,NaN,0.0,12.0,,18 / 20,,4900,2021-05-01 16:24:35:438
0.023876,-0.003182,9.771349,-7.3E-5,2.34E-4,9.80665,-8.03E-4,-4.46E-4,0.001323,5.4,-19.26,-24.06,195.3885,0.1493,-0.5892,55.81396,37.50011,188.4462,NaN,0.0,12.0,,18 / 20,,4909,2021-05-01 16:24:35:447
0.020966,0.005127,9.749869,-7.3E-5,2.34E-4,9.80665,4.18E-4,1.65E-4,0.002545,5.4,-19.26,-24.06,195.3885,0.1493,-0.5892,55.81396,37.50011,188.4462,NaN,0.0,12.0,,18 / 20,,4919,2021-05-01 16:24:35:457
0.005934,0.004271,9.759581,3.64E-4,6.08E-4,9.80665,-0.001414,0.001387,-5.09E-4,5.4,-19.14,-23.58,195.3885,0.1493,-0.5892,55.81396,37.50011,188.4462,NaN,0.0,12.0,,18 / 20,,4929,2021-05-01 16:24:35:467
0.005934,0.004271,9.759581,3.64E-4,6.08E-4,9.80665,0.001029,0.001387,-0.002342,5.4,-19.14,-23.58,195.3885,0.1493,-0.5892,55.81396,37.50011,188.4462,NaN,0.0,12.0,,18 / 20,,4939,2021-05-01 16:24:35:477
-0.00778,3.68E-4,9.769263,-8.0E-6,4.4E-5,9.806651,0.001029,0.001387,-0.002342,6.06,-18.36,-23.94,199.074,0.1533,-0.5881,55.81396,37.50011,188.4462,NaN,0.0,12.0,,18 / 20,,4949,2021-05-01 16:24:35:487
-0.00778,3.68E-4,9.769263,-8.0E-6,4.4E-5,9.806651,-0.002025,-0.001668,-0.001731,6.06,-18.36,-23.94,199.074,0.1533,-0.5881,55.81396,37.50011,188.4462,NaN,0.0,12.0,,18 / 20,,4960,2021-05-01 16:24:35:498
0.00973,0.006974,9.771542,3.11E-4,-2.04E-4,9.806652,0.001029,-0.002279,1.01E-4,5.88,-17.94,-24.24,199.074,0.1533,-0.5881,55.81396,37.50011,188.4462,NaN,0.0,12.0,,18 / 20,,4970,2021-05-01 16:24:35:508
0.009645,0.014657,9.752433,3.11E-4,-2.04E-4,9.806652,-1.92E-4,0.001387,1.01E-4,5.88,-17.94,-24.24,199.074,0.1533,-0.5881,55.81396,37.50011,188.4462,NaN,0.0,12.0,,18 / 20,,4979,2021-05-01 16:24:35:517
-0.006632,-0.00254,9.762048,3.19E-4,-2.62E-4,9.806649,-0.002025,-0.001668,0.001323,6.24,-18.72,-24.06,198.1384,0.1528,-0.586,55.81396,37.50011,188.4462,NaN,0.0,12.0,,18 / 20,,4990,2021-05-01 16:24:35:528
0.013703,0.005936,9.754731,3.19E-4,-2.62E-4,9.806649,-1.92E-4,1.65E-4,0.001323,6.24,-18.72,-24.06,198.1384,0.1528,-0.586,55.81396,37.50011,188.4462,NaN,0.0,12.0,,18 / 20,,4999,2021-05-01 16:24:35:537
0.013703,0.005936,9.754731,2.89E-4,-4.58E-4,9.806649,-1.92E-4,1.65E-4,0.001323,6.9,-18.72,-24.48,198.1384,0.1528,-0.586,55.81396,37.50011,188.4462,NaN,0.0,12.0,,18 / 20,,5009,2021-05-01 16:24:35:547
0.00162,-1.85E-4,9.754804,2.89E-4,-4.58E-4,9.806649,0.002251,0.001998,0.002545,6.9,-18.72,-24.48,198.1384,0.1528,-0.586,55.81396,37.50011,188.4462,NaN,0.0,12.0,,18 / 20,,5019,2021-05-01 16:24:35:557
0.002797,-0.010409,9.761912,1.11E-4,-1.92E-4,9.806649,-8.03E-4,7.76E-4,1.01E-4,5.88,-18.36,-24.24,199.0696,0.1507,-0.5835,55.81396,37.50011,188.4462,NaN,0.0,12.0,,18 / 20,,5029,2021-05-01 16:24:35:567
-0.012071,0.012457,9.76457,1.11E-4,-1.92E-4,9.806649,-8.03E-4,0.001387,1.01E-4,5.88,-18.36,-24.24,199.0696,0.1507,-0.5835,55.81396,37.50011,188.4462,NaN,0.0,12.0,,18 / 20,,5040,2021-05-01 16:24:35:578
-0.005388,-0.005073,9.771592,5.54E-4,3.18E-4,9.806649,4.18E-4,1.65E-4,-0.00112,5.22,-17.94,-23.7,199.0696,0.1507,-0.5835,55.81396,37.50011,188.4462,NaN,0.0,12.0,,18 / 20,,5049,2021-05-01 16:24:35:587
-0.005388,-0.005073,9.771592,5.54E-4,3.18E-4,9.806649,-8.03E-4,-0.002279,-0.001731,5.22,-17.94,-23.7,199.0696,0.1507,-0.5835,55.81396,37.50011,188.4462,NaN,0.0,12.0,,18 / 20,,5059,2021-05-01 16:24:35:597
-0.008349,0.008644,9.762121,3.3E-5,-2.9E-5,9.80665,-8.03E-4,-0.001668,1.01E-4,5.82,-18.12,-24.18,199.0656,0.1536,-0.5811,55.81396,37.50011,188.4462,NaN,0.0,12.0,,18 / 20,,5069,2021-05-01 16:24:35:607
-0.008119,-0.004664,9.781195,3.3E-5,-2.9E-5,9.80665,-0.002025,-4.46E-4,-0.00112,5.82,-18.12,-24.18,199.0656,0.1536,-0.5811,55.81396,37.50011,188.4462,NaN,0.0,12.0,,18 / 20,,5080,2021-05-01 16:24:35:618
8.7E-4,-1.24E-4,9.764382,-4.26E-4,6.03E-4,9.806649,-0.001414,1.65E-4,-5.09E-4,6.12,-18.78,-24.72,199.0656,0.1536,-0.5811,55.81396,37.50011,188.4462,NaN,0.0,12.0,,18 / 20,,5089,2021-05-01 16:24:35:627
-0.017441,-0.001355,9.750168,-4.26E-4,6.03E-4,9.806649,-8.03E-4,-0.001057,-5.09E-4,6.12,-18.78,-24.72,199.0656,0.1536,-0.5811,55.81396,37.50011,188.4462,NaN,0.0,12.0,,18 / 20,,5100,2021-05-01 16:24:35:638
-0.017441,-0.001355,9.750168,2.2E-5,3.8E-4,9.806651,0.002862,7.76E-4,-5.09E-4,5.82,-18.48,-24.78,199.0949,0.1561,-0.5846,55.81396,37.50011,188.4462,NaN,0.0,12.0,,18 / 20,,5109,2021-05-01 16:24:35:647
-0.002549,0.010802,9.742935,2.2E-5,3.8E-4,9.806651,0.002862,7.76E-4,-5.09E-4,5.82,-18.48,-24.78,199.0949,0.1561,-0.5846,55.81396,37.50011,188.4462,NaN,0.0,12.0,,18 / 20,,5119,2021-05-01 16:24:35:657
-0.010666,0.023725,9.750265,-2.97E-4,6.29E-4,9.806651,4.18E-4,0.001387,7.12E-4,5.4,-18.66,-24.42,199.0949,0.1561,-0.5846,55.81396,37.50011,188.4462,NaN,0.0,12.0,,18 / 20,,5129,2021-05-01 16:24:35:667
-0.003997,-0.009063,9.776352,-1.8E-4,5.36E-4,9.806651,-1.92E-4,0.001387,0.001323,5.34,-19.26,-24.06,199.0949,0.1561,-0.5846,55.81396,37.50011,188.4462,NaN,0.0,12.0,,18 / 20,,5140,2021-05-01 16:24:35:678
7.41E-4,-0.003143,9.790712,-1.8E-4,5.36E-4,9.806651,-1.92E-4,-4.46E-4,1.01E-4,5.34,-19.26,-24.06,199.0949,0.1561,-0.5846,55.81396,37.50011,188.4462,NaN,0.0,12.0,,18 / 20,,5149,2021-05-01 16:24:35:687
7.41E-4,-0.003143,9.790712,-7.1E-5,2.63E-4,9.806652,-8.03E-4,-0.002889,7.12E-4,5.64,-18.48,-23.52,199.07,0.1587,-0.5866,55.81396,37.50011,188.4462,NaN,0.0,12.0,,18 / 20,,5159,2021-05-01 16:24:35:697
0.013359,0.004864,9.730792,-6.72E-4,9.73E-4,9.806652,4.18E-4,-4.46E-4,0.001323,6.0,-18.66,-23.52,199.07,0.1587,-0.5866,55.81396,37.50011,188.4462,NaN,0.0,12.0,,18 / 20,,5169,2021-05-01 16:24:35:707
-0.001509,0.004846,9.762051,-6.72E-4,9.73E-4,9.806652,0.001029,-0.002279,0.001323,6.0,-18.66,-23.52,199.07,0.1587,-0.5866,55.81396,37.50011,188.4462,NaN,0.0,12.0,,18 / 20,,5179,2021-05-01 16:24:35:717
-0.018403,-0.029896,9.778752,-0.001081,0.00149,9.806651,-8.03E-4,-0.001668,-0.002342,6.0,-18.66,-23.52,199.07,0.1587,-0.5866,55.81396,37.50011,188.4462,NaN,0.0,12.0,,18 / 20,,5189,2021-05-01 16:24:35:727
-0.018403,-0.029896,9.778752,-0.001081,0.00149,9.806651,0.00164,-0.001668,1.01E-4,6.0,-18.66,-23.52,199.07,0.1587,-0.5866,55.81396,37.50011,188.4462,NaN,0.0,12.0,,18 / 20,,5199,2021-05-01 16:24:35:737
0.009154,0.003135,9.754776,-4.97E-4,-1.8E-4,9.80665,0.00164,-0.001668,1.01E-4,5.28,-18.96,-23.58,195.3908,0.1649,-0.5954,55.813965,37.50012,188.1455,NaN,0.0,12.0,,18 / 20,,5209,2021-05-01 16:24:35:747
6.23E-4,0.007945,9.762064,-4.97E-4,-1.8E-4,9.80665,-0.002636,-0.002889,0.001323,5.28,-18.96,-23.58,195.3908,0.1649,-0.5954,55.813965,37.50012,188.1455,NaN,0.0,12.0,,18 / 20,,5219,2021-05-01 16:24:35:757
-0.004552,-0.003147,9.795572,-0.001088,6.1E-5,9.80665,-0.002025,-0.0035,-5.09E-4,5.46,-18.54,-24.06,195.3908,0.1649,-0.5954,55.813965,37.50012,188.1455,NaN,0.0,12.0,,18 / 20,,5229,2021-05-01 16:24:35:767
0.015097,-0.00356,9.785811,-7.97E-4,1.35E-4,9.80665,0.001029,-4.46E-4,7.12E-4,5.64,-18.36,-23.76,199.0858,0.1635,-0.6016,55.813965,37.50012,188.1455,NaN,0.0,12.0,,18 / 20,,5240,2021-05-01 16:24:35:778
0.015097,-0.00356,9.785811,-7.97E-4,1.35E-4,9.80665,0.001029,7.76E-4,-5.09E-4,5.64,-18.36,-23.76,199.0858,0.1635,-0.6016,55.813965,37.50012,188.1455,NaN,0.0,12.0,,18 / 20,,5249,2021-05-01 16:24:35:787
0.008826,-0.009732,9.761897,-7.97E-4,1.35E-4,9.80665,-0.001414,7.76E-4,-5.09E-4,5.64,-18.36,-23.76,199.0858,0.1635,-0.6016,55.813965,37.50012,188.1455,NaN,0.0,12.0,,18 / 20,,5259,2021-05-01 16:24:35:797
-0.003506,-0.007919,9.735682,-4.81E-4,-5.2E-5,9.80665,0.001029,-0.001057,0.001323,5.76,-18.78,-23.34,199.0858,0.1635,-0.6016,55.813965,37.50012,188.1455,NaN,0.0,12.0,,18 / 20,,5269,2021-05-01 16:24:35:807
0.009588,-0.022713,9.778572,-4.81E-4,-5.2E-5,9.80665,-1.92E-4,0.001998,0.004377,5.76,-18.78,-23.34,199.0858,0.1635,-0.6016,55.813965,37.50012,188.1455,NaN,0.0,12.0,,18 / 20,,5279,2021-05-01 16:24:35:817
-4.8E-4,0.006337,9.759687,-3.08E-4,1.4E-4,9.80665,-0.001414,-4.46E-4,7.12E-4,6.12,-19.02,-24.24,198.1555,0.1623,-0.6042,55.813965,37.50012,188.1455,NaN,0.0,12.0,,18 / 20,,5290,2021-05-01 16:24:35:828
-4.8E-4,0.006337,9.759687,-3.08E-4,1.4E-4,9.80665,0.002862,7.76E-4,7.12E-4,6.12,-19.02,-24.24,198.1555,0.1623,-0.6042,55.813965,37.50012,188.1455,NaN,0.0,12.0,,18 / 20,,5299,2021-05-01 16:24:35:837
0.009952,4.61E-4,9.738008,-8.0E-5,3.23E-4,9.80665,-1.92E-4,7.76E-4,0.002545,6.36,-18.78,-23.76,198.1555,0.1623,-0.6042,55.813965,37.50012,188.1455,NaN,0.0,12.0,,18 / 20,,5310,2021-05-01 16:24:35:848
8.45E-4,-0.004097,9.733275,-8.0E-5,3.23E-4,9.80665,-1.92E-4,7.76E-4,0.002545,6.36,-18.78,-23.76,198.1555,0.1623,-0.6042,55.813965,37.50012,188.1455,NaN,0.0,12.0,,18 / 20,,5319,2021-05-01 16:24:35:857
8.45E-4,-0.004097,9.733275,1.89E-4,-6.94E-4,9.80665,4.18E-4,1.65E-4,0.001323,6.24,-18.72,-23.46,198.13,0.164,-0.6052,55.813965,37.50012,188.1455,NaN,0.0,12.0,,18 / 20,,5329,2021-05-01 16:24:35:867
0.004166,-0.003031,9.757198,4.35E-4,-0.001161,9.806651,0.001029,0.001998,-0.00112,5.94,-18.9,-23.88,198.13,0.164,-0.6052,55.813965,37.50012,188.1455,NaN,0.0,12.0,,18 / 20,,5339,2021-05-01 16:24:35:877
0.014695,0.006126,9.754763,4.35E-4,-0.001161,9.806651,0.001029,-0.001668,0.003156,5.94,-18.9,-23.88,198.13,0.164,-0.6052,55.813965,37.50012,188.1455,NaN,0.0,12.0,,18 / 20,,5349,2021-05-01 16:24:35:887
0.01097,-0.005251,9.754728,0.001147,-0.001867,9.806651,-0.002636,0.001387,-0.00112,5.76,-18.24,-24.48,198.13,0.164,-0.6052,55.813965,37.50012,188.1455,NaN,0.0,12.0,,18 / 20,,5359,2021-05-01 16:24:35:897
0.01097,-0.005251,9.754728,0.001147,-0.001867,9.806651,-0.002025,1.65E-4,1.01E-4,5.76,-18.24,-24.48,198.13,0.164,-0.6052,55.813965,37.50012,188.1455,NaN,0.0,12.0,,18 / 20,,5369,2021-05-01 16:24:35:907
-6.09E-4,0.002518,9.77162,8.73E-4,-0.00113,9.80665,-1.92E-4,-0.001668,0.002545,6.3,-17.94,-24.3,199.0817,0.1557,-0.5955,55.813965,37.50012,188.1455,NaN,0.0,12.0,,18 / 20,,5379,2021-05-01 16:24:35:917
0.002243,-0.011129,9.769119,0.001037,-0.002027,9.80665,4.18E-4,-0.001057,0.001934,6.3,-17.94,-24.06,199.0817,0.1557,-0.5955,55.813965,37.50012,188.1455,NaN,0.0,12.0,,18 / 20,,5389,2021-05-01 16:24:35:927
0.006512,-0.004895,9.730807,0.001037,-0.002027,9.80665,4.18E-4,-0.001668,-5.09E-4,6.3,-17.94,-24.06,199.0817,0.1557,-0.5955,55.813965,37.50012,188.1455,NaN,0.0,12.0,,18 / 20,,5399,2021-05-01 16:24:35:937
-0.006238,-0.005593,9.745284,0.001333,-0.002736,9.80665,4.18E-4,-0.001668,-5.09E-4,6.48,-18.84,-24.36,199.0817,0.1557,-0.5955,55.813965,37.50012,188.1455,NaN,0.0,12.0,,18 / 20,,5409,2021-05-01 16:24:35:947
-0.006238,-0.005593,9.745284,0.001333,-0.002736,9.80665,-8.03E-4,7.76E-4,0.001323,6.48,-18.84,-24.36,199.0817,0.1557,-0.5955,55.813965,37.50012,188.1455,NaN,0.0,12.0,,18 / 20,,5419,2021-05-01 16:24:35:957
-0.002838,-0.004567,9.759599,2.32E-4,-2.82E-4,9.80665,-1.92E-4,-0.001668,0.001323,6.06,-19.5,-24.6,198.1639,0.1431,-0.5829,55.813965,37.50012,188.1455,NaN,0.0,12.0,,18 / 20,,5429,2021-05-01 16:24:35:967
0.012211,0.010661,9.757155,9.0E-5,-2.05E-4,9.806649,0.001029,0.00383,7.12E-4,6.0,-19.32,-24.24,198.1639,0.1431,-0.5829,55.813965,37.50012,188.1455,NaN,0.0,12.0,,18 / 20,,5439,2021-05-01 16:24:35:977
-0.01572,0.002173,9.762144,9.0E-5,-2.05E-4,9.806649,-1.92E-4,-4.46E-4,-0.00112,6.0,-19.32,-24.24,198.1639,0.1431,-0.5829,55.813965,37.50012,188.1455,NaN,0.0,12.0,,18 / 20,,5449,2021-05-01 16:24:35:987
-0.01572,0.002173,9.762144,0.001073,-7.16E-4,9.806649,-8.03E-4,-4.46E-4,-5.09E-4,5.82,-19.26,-24.12,198.1639,0.1431,-0.5829,55.813965,37.50012,188.1455,NaN,0.0,12.0,,18 / 20,,5459,2021-05-01 16:24:35:997
-0.011475,-0.003897,9.759665,2.19E-4,6.7E-5,9.80665,-0.002025,-0.001057,1.01E-4,5.94,-19.32,-23.82,198.131,0.1411,-0.5756,55.813965,37.50012,188.1455,NaN,0.0,12.0,,18 / 20,,5469,2021-05-01 16:24:36:007
-0.003115,0.005938,9.769224,2.19E-4,6.7E-5,9.80665,-0.002636,7.76E-4,1.01E-4,5.94,-19.32,-23.82,198.131,0.1411,-0.5756,55.813965,37.50012,188.1455,NaN,0.0,12.0,,18 / 20,,5480,2021-05-01 16:24:36:018
0.002987,0.001415,9.77154,3.01E-4,3.9E-4,9.806651,-8.03E-4,-0.001057,-0.00112,6.0,-19.08,-23.28,198.131,0.1411,-0.5756,55.813965,37.50012,188.1455,NaN,0.0,12.0,,18 / 20,,5489,2021-05-01 16:24:36:027
0.002987,0.001415,9.77154,3.01E-4,3.9E-4,9.806651,-8.03E-4,-0.001057,-0.00112,6.0,-19.08,-23.28,198.131,0.1411,-0.5756,55.813965,37.50012,188.1455,NaN,0.0,12.0,,18 / 20,,5499,2021-05-01 16:24:36:037
-0.012283,-0.006133,9.752478,2.7E-4,2.62E-4,9.806649,-0.001414,-4.46E-4,-0.001731,6.6,-18.42,-24.12,201.8462,0.1438,-0.5747,55.813965,37.50012,188.1455,NaN,0.0,12.0,,18 / 20,,5509,2021-05-01 16:24:36:047
0.008703,0.016609,9.738064,2.7E-4,2.62E-4,9.806649,-1.92E-4,-0.001057,1.01E-4,6.6,-18.42,-24.12,201.8462,0.1438,-0.5747,55.813965,37.50012,188.1455,NaN,0.0,12.0,,18 / 20,,5521,2021-05-01 16:24:36:059
-0.016602,0.011264,9.743032,1.52E-4,3.42E-4,9.806649,-0.002636,-0.002279,-0.002953,6.3,-18.36,-24.18,201.8462,0.1438,-0.5747,55.813965,37.50012,188.1455,NaN,0.0,12.0,,18 / 20,,5530,2021-05-01 16:24:36:068
-0.018324,0.006775,9.750202,1.52E-4,3.42E-4,9.806649,-0.001414,7.76E-4,-5.09E-4,6.3,-18.36,-24.18,201.8462,0.1438,-0.5747,55.813965,37.50012,188.1455,NaN,0.0,12.0,,18 / 20,,5539,2021-05-01 16:24:36:077
-0.018324,0.006775,9.750202,8.7E-5,8.49E-4,9.806651,-1.92E-4,1.65E-4,7.12E-4,6.06,-18.24,-24.18,199.0609,0.146,-0.5746,55.813965,37.50012,188.1455,NaN,0.0,12.0,,18 / 20,,5550,2021-05-01 16:24:36:088
-0.002102,-0.012958,9.773899,8.7E-5,8.49E-4,9.806651,-1.92E-4,-0.001668,-0.001731,6.06,-18.24,-24.18,199.0609,0.146,-0.5746,55.813965,37.50012,188.1455,NaN,0.0,12.0,,18 / 20,,5559,2021-05-01 16:24:36:097
0.005593,0.002129,9.76913,-1.13E-4,0.001087,9.806651,-1.92E-4,-0.001668,-5.09E-4,6.24,-18.36,-24.36,199.0609,0.146,-0.5746,55.813965,37.50012,188.1455,NaN,0.0,12.0,,18 / 20,,5569,2021-05-01 16:24:36:107
0.005593,0.002129,9.76913,-1.13E-4,0.001087,9.806651,-1.92E-4,-0.001668,-5.09E-4,6.24,-18.36,-24.36,199.0609,0.146,-0.5746,55.813965,37.50012,188.1455,NaN,0.0,12.0,,18 / 20,,5579,2021-05-01 16:24:36:117
0.014518,0.005879,9.74274,1.15E-4,5.3E-5,9.806651,-0.001414,1.65E-4,-0.003564,6.18,-18.54,-24.06,198.1289,0.1518,-0.5773,55.813965,37.50012,188.1455,NaN,0.0,12.0,,18 / 20,,5590,2021-05-01 16:24:36:128
-0.006623,0.00271,9.747697,1.15E-4,5.3E-5,9.806651,-1.92E-4,7.76E-4,-0.00112,6.18,-18.54,-24.06,198.1289,0.1518,-0.5773,55.813965,37.50012,188.1455,NaN,0.0,12.0,,18 / 20,,5599,2021-05-01 16:24:36:137
-0.013407,0.004918,9.752558,6.95E-4,2.69E-4,9.806652,0.001029,-0.001057,7.12E-4,5.76,-18.36,-23.94,198.1289,0.1518,-0.5773,55.813965,37.50012,188.1455,NaN,0.0,12.0,,18 / 20,,5609,2021-05-01 16:24:36:147
-0.013407,0.004918,9.752558,6.95E-4,2.69E-4,9.806652,-1.92E-4,7.76E-4,-5.09E-4,5.76,-18.36,-23.94,198.1289,0.1518,-0.5773,55.813965,37.50012,188.1455,NaN,0.0,12.0,,18 / 20,,5619,2021-05-01 16:24:36:157
4.93E-4,-0.014802,9.771479,-5.0E-5,1.15E-4,9.80665,-8.03E-4,1.65E-4,-5.09E-4,5.64,-17.94,-23.94,199.0567,0.1545,-0.5739,55.813965,37.50012,188.1455,NaN,0.0,12.0,,18 / 20,,5630,2021-05-01 16:24:36:168
-0.011717,0.011695,9.747786,-5.0E-5,1.15E-4,9.80665,0.00164,0.001387,7.12E-4,5.64,-17.94,-23.94,199.0567,0.1545,-0.5739,55.813965,37.50012,188.1455,NaN,0.0,12.0,,18 / 20,,5639,2021-05-01 16:24:36:177
0.00651,0.012985,9.752425,6.0E-6,3.24E-4,9.806649,0.00164,0.001387,7.12E-4,5.76,-18.42,-24.12,199.0567,0.1545,-0.5739,55.813965,37.50012,188.1455,NaN,0.0,12.0,,18 / 20,,5650,2021-05-01 16:24:36:188
-0.002603,9.0E-4,9.764405,6.0E-6,3.24E-4,9.806649,-0.002025,0.001998,0.001323,5.76,-18.42,-24.12,199.0567,0.1545,-0.5739,55.813965,37.50012,188.1455,NaN,0.0,12.0,,18 / 20,,5659,2021-05-01 16:24:36:197
-0.002603,9.0E-4,9.764405,-3.13E-4,-5.58E-4,9.806651,-8.03E-4,7.76E-4,-0.001731,5.28,-18.66,-24.36,195.3691,0.1563,-0.5745,55.813965,37.50012,188.1455,NaN,0.0,12.0,,18 / 20,,5670,2021-05-01 16:24:36:208
-0.009392,-0.015117,9.764385,-4.72E-4,-0.001046,9.806651,-1.92E-4,1.65E-4,-5.09E-4,5.52,-18.54,-24.06,195.3691,0.1563,-0.5745,55.813965,37.50012,188.1455,NaN,0.0,12.0,,18 / 20,,5680,2021-05-01 16:24:36:218
-0.002019,-0.024606,9.769058,-8.05E-4,-0.0017,9.806651,-1.92E-4,-0.001057,1.01E-4,6.0,-18.9,-24.18,195.3691,0.1563,-0.5745,55.813965,37.50012,188.1455,NaN,0.0,12.0,,18 / 20,,5689,2021-05-01 16:24:36:227
-0.002019,-0.024606,9.769058,-8.05E-4,-0.0017,9.806651,-1.92E-4,-0.001057,1.01E-4,6.0,-18.9,-24.18,195.3691,0.1563,-0.5745,55.813965,37.50012,188.1455,NaN,0.0,12.0,,18 / 20,,5699,2021-05-01 16:24:36:237
0.002418,0.001563,9.742818,-8.08E-4,-0.001313,9.806651,4.18E-4,-0.001668,-0.001731,6.96,-19.14,-24.24,200.8016,0.1455,-0.5764,55.813965,37.50012,188.1455,NaN,0.0,12.0,,18 / 20,,5709,2021-05-01 16:24:36:247
0.006823,0.004164,9.769135,-8.08E-4,-0.001313,9.806651,0.001029,1.65E-4,-0.002342,6.96,-19.14,-24.24,200.8016,0.1455,-0.5764,55.813965,37.50012,188.1455,NaN,0.0,12.0,,18 / 20,,5720,2021-05-01 16:24:36:258
-0.001946,-0.005298,9.764365,-7.81E-4,-0.001157,9.806651,-0.002025,1.65E-4,0.001934,6.42,-18.9,-24.78,200.8016,0.1455,-0.5764,55.813965,37.50012,188.1455,NaN,0.0,12.0,,18 / 20,,5729,2021-05-01 16:24:36:267
0.002435,0.013586,9.742889,-7.81E-4,-0.001157,9.806651,-8.03E-4,0.001387,-0.002342,6.42,-18.9,-24.78,200.8016,0.1455,-0.5764,55.813965,37.50012,188.1455,NaN,0.0,12.0,,18 / 20,,5739,2021-05-01 16:24:36:277
0.002435,0.013586,9.742889,-1.47E-4,2.2E-4,9.806649,4.18E-4,1.65E-4,7.12E-4,5.94,-18.78,-24.24,198.1353,0.1376,-0.5783,55.813965,37.50012,188.1455,NaN,0.0,12.0,,18 / 20,,5750,2021-05-01 16:24:36:288
-0.011035,-0.010907,9.735683,-3.41E-4,4.91E-4,9.80665,-0.001414,7.76E-4,0.001934,6.12,-18.96,-24.24,198.1353,0.1376,-0.5783,55.813965,37.50012,188.1455,NaN,0.0,12.0,,18 / 20,,5759,2021-05-01 16:24:36:297
0.00507,0.006409,9.769156,-3.41E-4,4.91E-4,9.80665,-8.03E-4,1.65E-4,-5.09E-4,6.12,-18.96,-24.24,198.1353,0.1376,-0.5783,55.813965,37.50012,188.1455,NaN,0.0,12.0,,18 / 20,,5769,2021-05-01 16:24:36:307
0.005852,-0.006432,9.764291,1.05E-4,2.56E-4,9.80665,-8.03E-4,1.65E-4,-5.09E-4,6.6,-18.42,-23.76,198.1353,0.1376,-0.5783,55.813965,37.50012,188.1455,NaN,0.0,12.0,,18 / 20,,5779,2021-05-01 16:24:36:317
0.015825,-0.007215,9.778565,1.05E-4,2.56E-4,9.80665,0.001029,-4.46E-4,7.12E-4,6.6,-18.42,-23.76,198.1353,0.1376,-0.5783,55.813965,37.50012,188.1455,NaN,0.0,12.0,,18 / 20,,5789,2021-05-01 16:24:36:327
0.015825,-0.007215,9.778565,-1.34E-4,1.79E-4,9.806651,-1.92E-4,0.001387,-0.001731,6.0,-18.42,-24.24,199.068,0.1392,-0.5781,55.813965,37.50012,188.1455,NaN,0.0,12.0,,18 / 20,,5799,2021-05-01 16:24:36:337
3.93E-4,0.00773,9.752447,-1.34E-4,1.79E-4,9.806651,0.001029,7.76E-4,0.001934,6.0,-18.42,-24.24,199.068,0.1392,-0.5781,55.813965,37.50012,188.1455,NaN,0.0,12.0,,18 / 20,,5809,2021-05-01 16:24:36:347
0.003626,0.009091,9.773976,1.77E-4,5.02E-4,9.806651,-8.03E-4,-0.001668,7.12E-4,5.52,-18.66,-24.48,199.068,0.1392,-0.5781,55.813965,37.50012,188.1455,NaN,0.0,12.0,,18 / 20,,5820,2021-05-01 16:24:36:358
-0.003413,-0.003651,9.76439,1.77E-4,5.02E-4,9.806651,-1.92E-4,7.76E-4,1.01E-4,5.58,-18.78,-24.54,199.068,0.1392,-0.5781,55.813965,37.50012,188.1455,NaN,0.0,12.0,,18 / 20,,5829,2021-05-01 16:24:36:367
-0.007115,0.023022,9.740626,2.34E-4,0.001541,9.806651,0.001029,0.001998,-5.09E-4,5.58,-18.54,-24.12,198.1331,0.1481,-0.5798,55.813965,37.50012,188.1455,NaN,0.0,12.0,,18 / 20,,5839,2021-05-01 16:24:36:377
-0.007115,0.023022,9.740626,2.34E-4,0.001541,9.806651,0.001029,0.001998,-5.09E-4,5.58,-18.54,-24.12,198.1331,0.1481,-0.5798,55.813965,37.50012,188.1455,NaN,0.0,12.0,,18 / 20,,5849,2021-05-01 16:24:36:387
-0.00836,0.011495,9.745369,2.3E-5,0.001532,9.80665,4.18E-4,0.001387,0.003156,5.64,-18.6,-24.12,198.1331,0.1481,-0.5798,55.813965,37.50012,188.1455,NaN,0.0,12.0,,18 / 20,,5860,2021-05-01 16:24:36:398
0.004549,0.012294,9.750047,-9.7E-5,0.002332,9.806649,4.18E-4,0.001998,0.002545,5.64,-18.6,-24.12,198.1331,0.1481,-0.5798,55.813965,37.50012,188.1455,NaN,0.0,12.0,,18 / 20,,5870,2021-05-01 16:24:36:408
0.010013,0.012972,9.769158,-9.7E-5,0.002332,9.806649,0.002251,1.65E-4,0.001323,5.64,-18.6,-24.12,198.1331,0.1481,-0.5798,55.813965,37.50012,188.1455,NaN,0.0,12.0,,18 / 20,,5879,2021-05-01 16:24:36:417
-0.004041,-0.009954,9.783533,9.1E-5,-1.23E-4,9.806652,4.18E-4,-0.001057,7.12E-4,5.82,-18.72,-23.76,198.1338,0.1609,-0.5846,55.813965,37.50012,188.1455,NaN,0.0,12.0,,18 / 20,,5889,2021-05-01 16:24:36:427
-0.004041,-0.009954,9.783533,9.1E-5,-1.23E-4,9.806652,-0.002636,0.001998,1.01E-4,5.82,-18.72,-23.76,198.1338,0.1609,-0.5846,55.813965,37.50012,188.1455,NaN,0.0,12.0,,18 / 20,,5899,2021-05-01 16:24:36:437
0.007957,-0.003777,9.773887,-2.0E-6,3.87E-4,9.806652,-0.001414,-0.001057,-0.00112,5.82,-18.24,-23.52,198.1338,0.1609,-0.5846,55.813965,37.50012,188.1455,NaN,0.0,12.0,,18 / 20,,5910,2021-05-01 16:24:36:448
0.00783,-0.003693,9.759521,-2.0E-6,3.87E-4,9.806652,4.18E-4,0.001387,-0.003564,5.82,-18.24,-23.52,198.1338,0.1609,-0.5846,55.813965,37.50012,188.1455,NaN,0.0,12.0,,18 / 20,,5919,2021-05-01 16:24:36:457
0.00783,-0.003693,9.759521,0.001094,7.59E-4,9.80665,-8.03E-4,-4.46E-4,1.01E-4,5.46,-18.78,-23.7,195.3796,0.1631,-0.5853,55.813965,37.50012,188.1455,NaN,0.0,12.0,,18 / 20,,5929,2021-05-01 16:24:36:467
-0.00512,-0.004944,9.723717,0.001094,7.59E-4,9.80665,-8.03E-4,-4.46E-4,1.01E-4,5.46,-18.78,-23.7,195.3796,0.1631,-0.5853,55.813965,37.50012,188.1455,NaN,0.0,12.0,,18 / 20,,5939,2021-05-01 16:24:36:477
