ACCELEROMETER X (m/s²),ACCELEROMETER Y (m/s²),ACCELEROMETER Z (m/s²),GYROSCOPE X (rad/s),GYROSCOPE Y (rad/s),GYROSCOPE Z (rad/s),MAGNETIC FIELD X (μT),MAGNETIC FIELD Y (μT),MAGNETIC FIELD Z (μT),ORIENTATION Z (azimuth °),ORIENTATION X (pitch °),ORIENTATION Y (roll °),Time since start in ms 
0.272947,-0.459701,9.672871,0.004467,-0.001666,0.003397,9.72,-14.34,-18.72,210.8159,2.6692,-1.3932,81
0.222668,-0.464489,9.648928,-0.001642,-0.001666,0.002786,9.72,-14.34,-18.72,210.8159,2.6692,-1.3932,91
0.220273,-0.435758,9.615408,-0.001642,0.000166,0.000954,9.96,-14.04,-18.84,210.8159,2.6692,-1.3932,100
0.203513,-0.457306,9.634562,-0.005918,-0.000445,0.002175,9.96,-14.04,-18.84,210.8159,2.6692,-1.3932,111
0.203513,-0.457306,9.634562,-0.001642,0.00322,0.002786,9.48,-13.56,-18.3,212.4967,2.6571,-1.3875,120
0.220273,-0.450124,9.687236,0.002023,0.003831,0.002786,9.48,-13.56,-18.3,212.4967,2.6571,-1.3875,130
0.227456,-0.447729,9.727939,0.005688,0.000777,0.00584,8.82,-13.92,-18.3,212.4967,2.6571,-1.3875,141
0.241822,-0.450124,9.677659,0.005688,0.000777,0.00584,8.82,-13.92,-18.3,212.4967,2.6571,-1.3875,150
0.241822,-0.440547,9.648928,0.002634,-0.002277,0.003397,9.18,-13.86,-18.24,212.4888,2.6657,-1.3835,161
0.256187,-0.440547,9.648928,-0.00042,-0.005942,0.000954,9.18,-13.86,-18.24,212.4888,2.6657,-1.3835,170
0.251399,-0.450124,9.648928,-0.004085,-0.001056,0.002175,9.18,-13.56,-18.72,212.4888,2.6657,-1.3835,181
0.241822,-0.457306,9.684841,-0.00042,0.000777,-0.000268,9.18,-13.56,-18.72,212.4888,2.6657,-1.3835,191
0.241822,-0.457306,9.684841,0.000801,0.00322,0.001564,8.82,-13.68,-19.26,212.4677,2.6597,-1.3732,200
0.222668,-0.452518,9.665688,0.004467,0.003831,0.002175,8.82,-13.68,-19.26,212.4677,2.6597,-1.3732,210
0.208302,-0.438152,9.656111,-0.00042,0.001388,0.000954,9.6,-13.86,-18.96,212.4677,2.6597,-1.3732,224
0.220273,-0.442941,9.660899,-0.001031,-0.002888,0.001564,10.14,-14.04,-18.18,215.16,2.656,-1.3788,231
0.220273,-0.442941,9.660899,-0.005307,-0.00411,-0.000268,10.14,-14.04,-18.18,215.16,2.656,-1.3788,240
0.256187,-0.457306,9.668081,-0.005307,-0.00411,-0.000268,9.78,-13.98,-18,215.16,2.656,-1.3788,250
0.256187,-0.457306,9.668081,-0.00042,-0.001056,0.003397,9.78,-13.98,-18,215.16,2.656,-1.3788,260
0.249005,-0.462095,9.668081,0.002634,0.004442,0.001564,9.24,-13.74,-18.78,215.16,2.656,-1.3788,271
0.227456,-0.462095,9.663293,0.002634,0.004442,0.001564,9.24,-13.74,-18.72,215.16,2.656,-1.3788,281
0.227456,-0.445335,9.660899,0.002634,0.003831,0.002786,9.6,-13.38,-18.72,217.0355,2.6568,-1.3785,290
0.227456,-0.442941,9.672871,0.001412,-0.002277,0.003397,9.48,-13.62,-18.48,217.0355,2.6568,-1.3785,300
0.227456,-0.442941,9.672871,0.001412,-0.002277,0.003397,9.48,-13.62,-18.48,217.0355,2.6568,-1.3785,311
0.208302,-0.452518,9.663293,-0.004085,-0.001666,0.00584,9.78,-13.98,-18.6,217.0355,2.6568,-1.3785,321
0.241822,-0.430969,9.663293,0.000801,-0.001666,0.004008,9.78,-13.86,-18.96,215.1358,2.6578,-1.3774,331
0.241822,-0.430969,9.663293,0.001412,0.001999,0.002786,9.78,-13.86,-18.96,215.1358,2.6578,-1.3774,340
0.251399,-0.440547,9.672871,0.002634,0.004442,0.002786,9.6,-13.38,-18.84,215.1358,2.6578,-1.3774,350
0.239427,-0.447729,9.663293,0.002634,0.000777,0.003397,9.6,-13.38,-18.84,215.1358,2.6578,-1.3774,361
0.22985,-0.447729,9.670476,0.000191,-0.001056,0.000343,8.88,-13.68,-18.78,215.1358,2.6578,-1.3774,370
0.220273,-0.435758,9.692024,-0.001031,0.001388,0.001564,8.88,-13.86,-18.96,212.4728,2.6623,-1.3804,381
0.220273,-0.435758,9.692024,-0.001031,0.000166,0.001564,8.88,-13.86,-18.96,212.4728,2.6623,-1.3804,390
0.225062,-0.462095,9.682447,0.000801,0.000777,0.003397,9.18,-14.16,-19.08,212.4728,2.6623,-1.3804,400
0.225062,-0.462095,9.682447,0.003245,0.000777,0.004008,9.18,-14.16,-19.08,212.4728,2.6623,-1.3804,410
0.220273,-0.438152,9.644139,0.001412,0.00261,0.002786,9.3,-14.58,-19.2,212.4728,2.6623,-1.3804,420
0.227456,-0.462095,9.634562,0.002023,0.000166,0.00523,9.06,-14.76,-18.48,212.4728,2.6623,-1.3804,430
0.244216,-0.457306,9.680053,-0.00042,0.001999,0.004619,9.06,-14.76,-18.48,210.8149,2.6621,-1.377,440
0.177176,-0.418998,9.73991,0.001412,0.003831,0.002786,8.94,-14.76,-18.48,210.8149,2.6621,-1.377,450
0.177176,-0.418998,9.73991,0.001412,0.003831,0.002786,8.94,-14.76,-18.48,210.8149,2.6621,-1.377,460
0.225062,-0.59378,9.670476,0.002023,-0.000445,0.00523,8.64,-14.1,-18.66,210.8149,2.6621,-1.377,470
0.26337,-0.435758,9.715967,0.005688,-0.002277,0.006451,8.88,-14.28,-18.96,210.8149,2.6621,-1.377,480
0.217879,-0.545895,9.699207,0.002023,0.013605,0.00523,8.88,-14.28,-18.96,212.4608,2.6592,-1.3654,491
0.237033,-0.450124,9.687236,0.00691,0.00322,0.007673,8.88,-14.28,-18.96,212.4608,2.6592,-1.3654,501
0.237033,-0.450124,9.687236,0.011186,-0.013273,0.007673,9.3,-14.46,-19.2,212.4608,2.6592,-1.3654,510
0.225062,-0.368718,9.718362,0.010575,0.00994,0.008284,9.06,-13.92,-18.78,212.4296,2.7021,-1.3571,521
0.210696,-0.356747,9.574705,0.006299,0.01727,0.00523,9.06,-13.92,-18.78,212.4296,2.7021,-1.3571,531
0.179571,-0.332804,9.514848,0.002023,-0.008997,0.004619,9.06,-13.92,-18.78,212.4296,2.7021,-1.3571,540
0.24661,-0.423787,9.560339,-0.003475,-0.012051,0.00523,8.4,-13.74,-18.6,212.4296,2.7021,-1.3571,550
0.306467,-0.536318,9.684841,-0.010805,-0.002277,0.004619,8.4,-13.74,-18.6,212.4296,2.7021,-1.3571,560
0.306467,-0.536318,9.684841,-0.011416,0.005053,-0.00149,8.94,-14.52,-18.78,210.7808,2.676,-1.3574,570
0.193936,-0.488432,9.883567,0.007521,0.00322,0.004619,8.94,-14.52,-18.78,210.7808,2.676,-1.3574,580
0.241822,-0.574626,9.802161,0.015462,-0.002888,0.004619,10.02,-14.7,-18.96,210.7808,2.676,-1.3574,591
0.328016,-0.5435,9.613013,0.014851,-0.008997,0.003397,10.02,-14.7,-18.96,210.7808,2.676,-1.3574,600
0.129291,-0.416604,9.560339,0.008132,0.012383,0.007062,10.68,-13.92,-19.14,217.6394,2.6516,-1.3772,610
0.129291,-0.416604,9.560339,0.008132,0.012383,0.007062,10.68,-13.92,-19.14,217.6394,2.6516,-1.3772,620
0.095771,-0.416604,9.593859,0.003856,-0.019992,0.021723,10.32,-14.04,-18.3,217.6394,2.6516,-1.3772,630
0.143657,-0.385478,9.799767,0.008132,0.004442,0.01989,9.24,-14.94,-18.72,210.7872,2.696,-1.376,641
0.102954,-0.404632,9.804555,0.008132,0.004442,0.01989,9.24,-14.94,-18.72,210.7872,2.696,-1.376,650
0.102954,-0.404632,9.804555,0.009354,0.024601,0.030886,9.24,-14.94,-18.72,210.7872,2.696,-1.376,660
0.071828,-0.383084,9.466963,0.005688,-0.004721,0.033329,9.06,-14.7,-19.2,210.7872,2.696,-1.376,670
0.179571,-0.395055,9.584282,-0.004696,-0.027323,0.035162,9.54,-14.28,-18.96,215.0104,2.6573,-1.2316,681
0.201119,-0.426181,9.77343,-0.010194,-0.001666,0.041271,9.54,-14.28,-18.96,215.0104,2.6573,-1.2316,690
0.244216,-0.435758,9.797373,-0.006529,0.00261,0.045547,9.3,-14.4,-19.38,215.0104,2.6573,-1.2316,701
0.244216,-0.435758,9.797373,-0.006529,0.00261,0.045547,9.3,-14.4,-19.38,215.0104,2.6573,-1.2316,711
0.220273,-0.459701,9.802161,0.002634,-0.013273,0.04799,9.3,-14.28,-19.32,215.0104,2.6573,-1.2316,721
0.117319,-0.481249,9.557945,0.004467,0.014827,0.061429,9.3,-14.28,-19.32,215.0104,2.6573,-1.2316,730
0.079011,-0.52674,9.579494,-0.001031,0.000166,0.065094,8.94,-14.16,-19.02,212.2668,2.5976,-1.1165,741
0.06704,-0.517163,9.725544,-0.006529,-0.007164,0.06937,9.42,-14.16,-19.26,212.2668,2.5976,-1.1165,751
0.06704,-0.517163,9.725544,-0.004085,-0.005332,0.079144,9.42,-14.16,-19.26,212.2668,2.5976,-1.1165,760
0.107742,-0.519558,9.747093,0.002634,-0.014495,0.087696,9.18,-14.22,-19.38,212.2668,2.5976,-1.1165,771
0.088588,-0.514769,9.883567,0.011797,-0.012662,0.098081,9.18,-14.22,-19.38,212.2668,2.5976,-1.1165,780
0.088588,-0.514769,9.883567,0.020349,0.01666,0.112131,9.24,-14.16,-19.2,212.149,2.6445,-1.0168,790
-0.004789,-0.457306,9.744699,0.02096,0.011162,0.126792,9.24,-14.16,-19.2,212.149,2.6445,-1.0168,800
0.014366,-0.385478,9.522031,0.009354,0.00261,0.137177,9.18,-14.04,-18.72,212.149,2.6445,-1.0168,810
0.047885,-0.418998,9.404712,-0.002864,0.000166,0.142674,9.18,-14.04,-18.72,212.149,2.6445,-1.0168,820
0.009577,-0.373507,9.593859,-0.012027,-0.004721,0.150616,9.24,-13.8,-18.3,212.0423,2.7079,-0.8974,830
0.045491,-0.478855,9.797373,-0.005307,-0.023047,0.160389,9,-13.56,-18,212.0423,2.7079,-0.8974,840
0.045491,-0.478855,9.797373,0.004467,-0.024879,0.165887,9.18,-13.86,-18.12,212.0423,2.7079,-0.8974,850
0.155628,-0.483643,9.950606,0.004467,-0.024879,0.165887,9.18,-13.86,-18.12,212.0423,2.7079,-0.8974,860
0.292102,-0.423787,9.742304,0.012408,-0.00411,0.167109,9.3,-13.98,-18.24,211.9949,2.7213,-0.8513,870
0.304073,-0.416604,9.498088,0.012408,0.004442,0.164665,9.06,-14.22,-18.42,211.9949,2.7213,-0.8513,881
0.304073,-0.38069,9.45978,0.006299,0.000166,0.165276,9.06,-14.22,-18.42,211.9949,2.7213,-0.8513,891
0.304073,-0.38069,9.45978,-0.005918,-0.010219,0.158557,9.06,-14.22,-18.42,211.9949,2.7213,-0.8513,900
0.306467,-0.459701,9.620196,-0.015692,-0.008997,0.151837,8.82,-13.98,-18.96,211.9592,2.7042,-0.8469,911
0.301679,-0.505192,9.883567,-0.005918,-0.010829,0.152448,8.82,-14.28,-19.2,211.9592,2.7042,-0.8469,921
0.260976,-0.512375,9.950606,0.006299,-0.005942,0.150616,8.82,-14.28,-19.2,211.9592,2.7042,-0.8469,931
0.249005,-0.474066,9.72315,0.017906,0.00261,0.153059,8.46,-14.64,-19.26,207.5424,2.7267,-0.8535,941
0.234639,-0.421392,9.493299,0.012408,0.003831,0.151837,8.46,-14.64,-19.26,207.5424,2.7267,-0.8535,950
0.234639,-0.421392,9.493299,0.000191,0.00994,0.158557,8.46,-14.64,-19.26,207.5424,2.7267,-0.8535,961
0.076617,-0.39745,9.481328,-0.009583,0.000166,0.16772,8.76,-14.82,-19.08,207.5424,2.7267,-0.8535,971
0.055068,-0.464489,9.641745,-0.009583,0.000166,0.16772,8.82,-14.88,-18.42,210.4361,2.6986,-0.9498,980
-0.021548,-0.519558,9.929058,-0.009583,-0.010219,0.177494,8.82,-14.88,-18.42,210.4361,2.6986,-0.9498,990
-0.021548,-0.519558,9.929058,-0.001031,0.00261,0.182381,8.82,-14.88,-18.42,210.4361,2.6986,-0.9498,1000
-0.019154,-0.574626,9.866806,0.012408,0.001999,0.194598,8.4,-14.88,-18.54,210.4361,2.6986,-0.9498,1010
0.069434,-0.567443,9.620196,0.014851,-0.021825,0.199485,8.94,-14.76,-19.26,210.3581,2.7255,-0.9108,1021
0.102954,-0.411815,9.598648,0.011797,-0.010219,0.206815,8.94,-14.76,-19.26,210.3581,2.7255,-0.9108,1030
0.102954,-0.411815,9.598648,0.004467,-0.009608,0.218422,8.94,-14.76,-19.26,210.3581,2.7255,-0.9108,1040
0.174782,-0.387873,9.680053,0.002023,-0.009608,0.222087,8.88,-14.52,-19.44,210.3581,2.7255,-0.9108,1051
0.196331,-0.407027,9.70639,0.002023,-0.009608,0.222087,8.88,-14.52,-19.44,210.3581,2.7255,-0.9108,1060
0.162811,-0.383084,9.665688,0.002634,0.001388,0.228195,9.06,-14.7,-19.2,210.2699,2.7594,-0.8313,1070
0.105348,-0.488432,9.63935,-0.00042,-0.002888,0.233082,9.3,-15,-19.8,210.2699,2.7594,-0.8313,1080
0.093377,-0.541106,9.79019,0.004467,-0.007164,0.236748,9.3,-15,-19.8,210.2699,2.7594,-0.8313,1091
0.093377,-0.541106,9.79019,0.009964,-0.012051,0.244689,9.3,-15,-19.8,210.2699,2.7594,-0.8313,1100
0.076617,-0.454912,9.814133,0.012408,-0.002277,0.248354,9.24,-15.24,-19.86,210.2308,2.7377,-0.8165,1110
0.205908,-0.442941,9.586677,0.009354,-0.016938,0.248354,9.24,-15.24,-19.86,210.2308,2.7377,-0.8165,1120
0.136474,-0.383084,9.524426,0.003245,-0.015105,0.258739,9.42,-15.3,-18.84,210.2308,2.7377,-0.8165,1130
0.136474,-0.383084,9.524426,-0.003475,-0.014495,0.25996,9.12,-14.64,-18.9,210.2623,2.7226,-0.8025,1141
0.189148,-0.38069,9.615408,-0.003475,-0.014495,0.25996,9.12,-14.64,-18.9,210.2623,2.7226,-0.8025,1150
0.114925,-0.490826,9.787795,-0.009583,-0.012662,0.269734,9.12,-14.64,-18.9,210.2623,2.7226,-0.8025,1160
0.112531,-0.483643,9.821315,0.000801,-0.004721,0.272789,9,-14.58,-19.08,210.2623,2.7226,-0.8025,1170
0.114925,-0.548289,9.735122,0.00691,-0.009608,0.281952,9,-15.36,-18.72,210.2574,2.7241,-0.7979,1181
0.114925,-0.548289,9.735122,0.008743,-0.007164,0.285617,9,-15.36,-18.72,210.2574,2.7241,-0.7979,1191
0.172388,-0.541106,9.656111,0.00691,-0.014495,0.289282,8.82,-15.6,-19.08,210.2574,2.7241,-0.7979,1200
0.210696,-0.524346,9.711179,0.004467,-0.013884,0.289893,8.82,-15.6,-19.08,210.2574,2.7241,-0.7979,1211
0.210696,-0.524346,9.711179,0.009354,-0.013884,0.293558,8.94,-15.48,-18.72,210.2574,2.7241,-0.7979,1220
0.227456,-0.514769,9.785401,0.01424,-0.010219,0.295391,8.16,-15.18,-18.96,207.4654,2.754,-0.7856,1230
0.268159,-0.433364,9.768641,0.016073,-0.005332,0.30211,8.16,-15.18,-18.96,207.4654,2.754,-0.7856,1241
0.150839,-0.402238,9.72315,0.012408,0.008718,0.302721,8.16,-15.18,-18.96,207.4654,2.754,-0.7856,1250
0.093377,-0.354353,9.579494,0.006299,0.005053,0.309441,8.04,-15.84,-19.56,207.4654,2.754,-0.7856,1261
0.093377,-0.354353,9.579494,0.006299,0.005053,0.309441,8.64,-15.72,-19.68,207.4654,2.754,-0.7856,1270
0.045491,-0.390267,9.613013,0.000191,-0.005942,0.310662,8.64,-15.72,-19.68,207.4654,2.754,-0.7856,1280
0.06704,-0.440547,9.696813,-0.002253,0.000777,0.314327,8.4,-15.18,-19.98,207.4926,2.7889,-0.8624,1291
0.05028,-0.476461,9.785401,0.002634,-0.015105,0.32288,8.4,-15.18,-19.98,207.4926,2.7889,-0.8624,1300
0.05028,-0.476461,9.785401,0.005078,-0.019992,0.321658,8.4,-14.94,-19.8,207.4926,2.7889,-0.8624,1311
0.169994,-0.486038,9.735122,0.011797,-0.021214,0.325934,8.4,-14.94,-19.8,207.4926,2.7889,-0.8624,1320
0.260976,-0.462095,9.656111,0.005078,-0.01816,0.329599,8.52,-15.3,-19.86,210.2595,2.7348,-0.8453,1331
0.332804,-0.440547,9.725544,0.002634,-0.022436,0.328988,8.82,-15.24,-19.8,210.2595,2.7348,-0.8453,1341
0.332804,-0.440547,9.725544,0.004467,-0.005332,0.328988,8.82,-15.24,-19.8,210.2595,2.7348,-0.8453,1350
0.282524,-0.466884,9.749487,0.008743,0.001388,0.329599,9.06,-15.42,-19.56,210.2595,2.7348,-0.8453,1360
0.205908,-0.450124,9.718362,0.009354,-0.002888,0.332653,9.06,-15.42,-19.56,210.2595,2.7348,-0.8453,1370
0.079011,-0.457306,9.663293,0.00691,-0.005942,0.333264,9.24,-15.6,-19.68,208.7785,2.7298,-0.8563,1380
0.079011,-0.457306,9.663293,0.003856,-0.008386,0.335708,8.88,-15.72,-19.56,208.7785,2.7298,-0.8563,1391
0.081405,-0.490826,9.687236,0.003856,-0.008386,0.335708,8.88,-15.72,-19.56,208.7785,2.7298,-0.8563,1400
0.081405,-0.490826,9.687236,0.003245,-0.016327,0.344871,8.88,-15.72,-19.56,208.7785,2.7298,-0.8563,1410
0.052674,-0.490826,9.735122,0.000191,-0.010829,0.347925,9,-15.54,-19.38,208.8768,2.721,-0.9313,1421
0.052674,-0.483643,9.73991,0.002023,-0.008997,0.358921,8.64,-15.96,-19.2,208.8768,2.721,-0.9313,1430
0.05028,-0.550683,9.77343,0.009354,-0.012051,0.363808,8.64,-15.96,-19.2,208.8768,2.721,-0.9313,1441
0.05028,-0.550683,9.77343,0.012408,-0.013884,0.366862,8.58,-16.08,-19.5,208.8528,2.7388,-0.9129,1450
0.134079,-0.529135,9.715967,0.013019,-0.016938,0.371138,8.58,-16.08,-19.5,208.8528,2.7388,-0.9129,1460
0.107742,-0.500403,9.672871,0.006299,-0.018771,0.379079,8.22,-15.48,-19.44,208.8528,2.7388,-0.9129,1470
0.174782,-0.471672,9.672871,0.006299,-0.018771,0.379079,8.22,-15.48,-19.44,208.8528,2.7388,-0.9129,1480
0.227456,-0.38069,9.730332,0.009354,-0.024879,0.378468,8.76,-15.72,-19.2,208.8528,2.7388,-0.9129,1490
0.186753,-0.33041,9.689631,0.007521,-0.015716,0.385799,8.82,-16.8,-18.48,207.4256,2.789,-0.838,1501
0.186753,-0.33041,9.689631,0.007521,-0.005942,0.391907,8.82,-16.8,-18.48,207.4256,2.789,-0.838,1511
0.126897,-0.335198,9.581888,0.008132,-0.001666,0.398016,8.7,-16.32,-18.84,207.4256,2.789,-0.838,1520
0.074223,-0.486038,9.555551,-0.006529,-0.001666,0.405957,8.82,-15.96,-18.96,207.4256,2.789,-0.838,1530
0.074223,-0.486038,9.555551,-0.009583,-0.002888,0.41512,8.82,-15.96,-18.96,207.4256,2.789,-0.838,1541
-0.03352,-0.651243,9.838076,-0.005918,0.001999,0.42184,8.88,-15.9,-19.26,208.794,2.7257,-0.8384,1550
-0.007183,-0.689551,10.048771,0.010575,-0.016327,0.42917,8.88,-15.9,-19.26,208.794,2.7257,-0.8384,1560
-0.007183,-0.689551,10.048771,0.02829,-0.018771,0.433446,8.34,-15.9,-19.5,208.794,2.7257,-0.8384,1570
0.021548,-0.66082,9.924269,0.02829,-0.018771,0.433446,8.34,-15.9,-19.5,208.794,2.7257,-0.8384,1580
0.114925,-0.507586,9.636956,0.031956,-0.019992,0.434057,7.92,-15.54,-19.8,205.9363,2.8261,-0.7163,1590
0.136474,-0.325621,9.500483,0.029512,-0.024879,0.444442,7.92,-15.54,-19.8,205.9363,2.8261,-0.7163,1601
0.136474,-0.325621,9.500483,0.014851,-0.019992,0.451161,7.92,-15.54,-19.8,205.9363,2.8261,-0.7163,1610
0.167599,-0.311256,9.531608,0.004467,-0.015716,0.454826,7.98,-15.9,-19.02,205.9363,2.8261,-0.7163,1620
0.162811,-0.304073,9.624985,-0.002864,-0.006553,0.461546,8.1,-16.38,-18.24,205.9383,2.8714,-0.6667,1631
0.177176,-0.36393,9.699207,-0.001642,-0.005332,0.462157,8.1,-16.38,-18.24,205.9383,2.8714,-0.6667,1640
0.126897,-0.438152,9.75667,-0.00042,-0.005942,0.465822,8.22,-16.56,-18.3,205.9383,2.8714,-0.6667,1650
0.074223,-0.538712,9.761458,0.008132,-0.012662,0.474985,8.22,-16.56,-18.3,205.9383,2.8714,-0.6667,1661
0.074223,-0.538712,9.761458,0.008132,-0.015716,0.478039,8.7,-16.32,-18.66,208.624,2.7873,-0.6751,1670
0.038308,-0.586597,9.711179,0.003245,-0.013273,0.487202,8.7,-16.32,-18.66,208.624,2.7873,-0.6751,1681
0.035914,-0.584203,9.713573,0.003245,-0.013273,0.487202,9.12,-16.14,-19.14,208.624,2.7873,-0.6751,1690
0.047885,-0.529135,9.75667,0.004467,-0.010219,0.497587,9.12,-16.14,-19.14,208.624,2.7873,-0.6751,1700
0.047885,-0.529135,9.75667,0.009964,-0.010829,0.507361,9.12,-16.14,-19.14,208.624,2.7873,-0.6751,1710
0.045491,-0.430969,9.77343,0.017295,-0.012662,0.515302,8.94,-16.5,-19.14,208.6246,2.7655,-0.6645,1720
0.047885,-0.383084,9.634562,0.016684,-0.010829,0.523854,8.82,-16.74,-19.08,208.6246,2.7655,-0.6645,1730
0.014366,-0.387873,9.541185,0.009964,-0.018771,0.52813,8.82,-16.74,-19.08,208.6246,2.7655,-0.6645,1740
0.105348,-0.416604,9.531608,0.000191,-0.027323,0.52813,8.82,-16.74,-19.08,208.6246,2.7655,-0.6645,1750
0.251399,-0.464489,9.648928,-0.008972,-0.032821,0.523854,8.28,-16.92,-19.08,204.5778,2.8031,-0.5714,1760
0.251399,-0.464489,9.648928,-0.008972,-0.032821,0.523854,8.28,-16.92,-19.08,204.5778,2.8031,-0.5714,1770
0.41421,-0.524346,9.830893,-0.00714,-0.029155,0.515913,7.86,-16.86,-19.02,204.5778,2.8031,-0.5714,1780
0.471672,-0.553077,9.893144,-0.00042,-0.029766,0.509193,7.68,-17.34,-19.14,204.573,2.8109,-0.5694,1791
0.452518,-0.538712,9.847652,0.016073,-0.018771,0.498198,7.68,-17.34,-19.14,204.573,2.8109,-0.5694,1800
0.335198,-0.498009,9.644139,0.021571,-0.008386,0.491478,7.68,-17.28,-19.02,204.573,2.8109,-0.5694,1810
0.335198,-0.498009,9.644139,0.016073,0.000166,0.490868,7.68,-17.28,-19.02,204.573,2.8109,-0.5694,1820
0.220273,-0.430969,9.541185,0.009354,0.000777,0.484148,7.68,-17.28,-19.02,204.573,2.8109,-0.5694,1830
0.071828,-0.399844,9.629773,0.003245,-0.007775,0.486591,7.92,-17.34,-19.5,204.7905,2.8038,-0.8134,1840
0.086194,-0.41421,9.70639,0.000191,-0.00411,0.484148,7.92,-17.34,-19.5,204.7905,2.8038,-0.8134,1850
0.10056,-0.433364,9.77343,0.002023,-0.019382,0.484148,8.4,-17.64,-19.86,204.7905,2.8038,-0.8134,1860
0.10056,-0.433364,9.77343,0.011186,-0.018771,0.488424,8.04,-17.64,-18.84,203.7994,2.8036,-1.017,1871
0.189148,-0.488432,9.651321,0.008132,-0.023047,0.483537,8.04,-17.64,-18.84,203.7994,2.8036,-1.017,1880
0.22985,-0.481249,9.613013,0.004467,-0.029766,0.484148,7.62,-17.94,-18.66,203.7994,2.8036,-1.017,1890
0.28013,-0.512375,9.680053,0.000801,-0.023047,0.477428,7.62,-17.94,-18.66,203.7994,2.8036,-1.017,1901
0.28013,-0.512375,9.680053,0.000191,-0.012662,0.476207,7.62,-17.94,-18.66,203.7994,2.8036,-1.017,1910
0.306467,-0.500403,9.742304,0.002634,-0.012051,0.475596,7.62,-17.76,-19.2,203.8423,2.762,-1.0505,1920
0.258582,-0.505192,9.75667,0.010575,-0.007164,0.469487,7.14,-17.76,-19.32,203.8423,2.762,-1.0505,1931
0.225062,-0.498009,9.751882,0.013019,-0.010829,0.465822,7.14,-17.76,-19.32,203.8423,2.762,-1.0505,1940
0.215485,-0.469278,9.742304,0.016073,-0.010219,0.463989,7.32,-17.88,-19.56,201.3187,2.7741,-1.1256,1951
0.203513,-0.430969,9.615408,0.017906,-0.010219,0.463989,7.32,-17.88,-19.56,201.3187,2.7741,-1.1256,1960
0.203513,-0.430969,9.615408,0.011186,-0.014495,0.462768,7.26,-17.58,-19.2,201.3187,2.7741,-1.1256,1970
0.150839,-0.373507,9.545974,0.011186,-0.014495,0.462768,7.26,-17.58,-19.2,201.3187,2.7741,-1.1256,1980
0.162811,-0.361535,9.562734,0.002023,-0.014495,0.465211,7.02,-17.52,-18.72,201.3707,2.7736,-1.1874,1990
0.150839,-0.38069,9.660899,-0.004085,-0.012662,0.4646,7.02,-17.52,-18.72,201.3707,2.7736,-1.1874,2001
0.134079,-0.490826,9.735122,-0.004696,-0.009608,0.470709,6.96,-17.76,-18.78,201.3707,2.7736,-1.1874,2010
0.134079,-0.490826,9.735122,-0.001031,-0.007164,0.468876,6.96,-17.76,-18.78,201.3707,2.7736,-1.1874,2021
0.088588,-0.574626,9.77343,0.003245,-0.012051,0.475596,6.96,-17.76,-18.78,201.3707,2.7736,-1.1874,2030
0.076617,-0.636877,9.835681,0.012408,-0.01816,0.47865,6.9,-18.06,-18.54,201.3538,2.7326,-1.1528,2040
0.062251,-0.617723,9.814133,0.015462,-0.016327,0.485981,6.9,-18.06,-18.54,201.3538,2.7326,-1.1528,2050
0.052674,-0.459701,9.665688,0.02096,-0.012662,0.492089,6.96,-18.54,-18.36,201.3538,2.7326,-1.1528,2060
0.052674,-0.459701,9.665688,0.017295,-0.010219,0.49942,6.3,-18.72,-18.54,197.7017,2.7609,-1.0514,2070
0.06704,-0.361535,9.550762,0.01424,-0.01816,0.501863,6.3,-18.72,-18.54,197.7017,2.7609,-1.0514,2080
0.107742,-0.28013,9.538791,0.006299,-0.018771,0.504307,6.42,-18.24,-19.02,197.7017,2.7609,-1.0514,2091
0.148445,-0.318439,9.512454,0.000801,-0.016327,0.509193,6.42,-18.24,-19.02,197.7017,2.7609,-1.0514,2100
0.148445,-0.318439,9.512454,0.000801,-0.016327,0.509193,6.42,-18.24,-19.02,197.7017,2.7609,-1.0514,2110
0.189148,-0.423787,9.670476,-0.00714,-0.023658,0.50675,7.38,-17.94,-19.44,201.1125,2.7921,-0.8987,2120
0.21309,-0.536318,9.835681,-0.004696,-0.024879,0.504307,7.38,-17.94,-19.44,201.1125,2.7921,-0.8987,2130
0.258582,-0.59378,9.842864,0.005688,-0.022436,0.501252,7.5,-18.9,-19.44,201.1125,2.7921,-0.8987,2141
0.265765,-0.548289,9.794978,0.010575,-0.019992,0.496365,7.5,-18.9,-19.44,201.1125,2.7921,-0.8987,2150
0.217879,-0.486038,9.656111,0.018517,-0.012051,0.496365,7.02,-19.2,-18.96,200.1098,2.7204,-0.8383,2160
0.217879,-0.486038,9.656111,0.017295,-0.007775,0.496976,6.9,-18.54,-19.02,200.1098,2.7204,-0.8383,2171
0.191542,-0.411815,9.541185,0.010575,-0.010829,0.4927,6.9,-18.54,-19.02,200.1098,2.7204,-0.8383,2180
0.167599,-0.373507,9.581888,0.003245,-0.015105,0.497587,6.48,-18.78,-19.38,200.1098,2.7204,-0.8383,2191
0.090982,-0.409421,9.677659,0.003856,-0.012051,0.497587,6.48,-18.78,-19.38,200.1098,2.7204,-0.8383,2200
0.0838,-0.442941,9.749487,0.005688,-0.018771,0.500641,6.6,-19.02,-19.32,200.1624,2.743,-0.9084,2210
0.0838,-0.442941,9.749487,0.009354,-0.016938,0.49942,6.78,-19.32,-19.56,200.1624,2.743,-0.9084,2221
0.105348,-0.464489,9.70639,0.009354,-0.016938,0.49942,6.78,-19.32,-19.56,200.1624,2.743,-0.9084,2230
0.107742,-0.462095,9.629773,0.011186,-0.017549,0.502474,6.54,-19.38,-19.5,200.1871,2.7246,-0.9314,2240
0.114925,-0.466884,9.624985,0.006299,-0.016327,0.508583,6.54,-19.38,-19.5,200.1871,2.7246,-0.9314,2251
0.114925,-0.466884,9.624985,0.003856,-0.017549,0.507361,6.12,-19.14,-19.08,200.1871,2.7246,-0.9314,2261
0.150839,-0.433364,9.670476,0.002023,-0.014495,0.511637,6.12,-19.14,-19.08,200.1871,2.7246,-0.9314,2270
0.131685,-0.440547,9.718362,0.003245,-0.009608,0.518967,6.12,-19.14,-19.08,200.1871,2.7246,-0.9314,2280
0.131685,-0.440547,9.718362,0.007521,-0.010219,0.522022,6.42,-19.26,-18.84,197.5771,2.707,-0.8915,2290
0.055068,-0.466884,9.737515,0.009354,-0.007775,0.529963,6,-19.32,-18.96,197.5771,2.707,-0.8915,2301
0.021548,-0.493221,9.644139,0.009354,-0.007775,0.529963,6,-19.32,-18.96,197.5771,2.707,-0.8915,2310
-0.009577,-0.502798,9.646533,0.007521,-0.013273,0.539126,5.64,-19.8,-19.5,196.7547,2.6955,-0.8528,2320
0.009577,-0.509981,9.670476,0.00691,-0.019992,0.545845,5.64,-19.8,-19.5,196.7547,2.6955,-0.8528,2331
0.009577,-0.509981,9.670476,0.00691,-0.019992,0.545845,5.76,-19.56,-20.04,196.7547,2.6955,-0.8528,2341
0.057463,-0.509981,9.718362,0.008743,-0.029766,0.551343,5.76,-19.56,-20.04,196.7547,2.6955,-0.8528,2350
0.131685,-0.512375,9.70639,0.012408,-0.02549,0.555619,5.76,-19.26,-19.74,197.4167,2.7222,-0.7188,2360
0.153234,-0.486038,9.718362,0.01363,-0.024879,0.558674,5.76,-19.26,-19.74,197.4167,2.7222,-0.7188,2370
0.153234,-0.486038,9.718362,0.015462,-0.017549,0.564171,5.76,-19.26,-19.74,197.4167,2.7222,-0.7188,2380
0.131685,-0.462095,9.656111,0.01424,-0.012662,0.57028,5.64,-19.5,-18.6,197.4167,2.7222,-0.7188,2390
0.114925,-0.423787,9.586677,0.010575,-0.01144,0.571502,5.64,-19.5,-18.6,197.4167,2.7222,-0.7188,2400
0.088588,-0.423787,9.63935,0.008132,-0.01144,0.573945,5.52,-18.66,-18.66,197.3303,2.7667,-0.6257,2410
0.06704,-0.423787,9.670476,0.008743,-0.015716,0.577,6.3,-18.6,-20.1,197.3303,2.7667,-0.6257,2420
0.06704,-0.423787,9.670476,0.009964,-0.019992,0.582497,6.3,-18.6,-20.1,197.3303,2.7667,-0.6257,2431
0.107742,-0.411815,9.687236,0.011186,-0.01816,0.58433,6.3,-18.9,-19.86,197.3303,2.7667,-0.6257,2440
0.102954,-0.399844,9.58907,0.006299,-0.015105,0.589217,6.3,-18.9,-19.2,197.3303,2.7667,-0.6257,2450
0.102954,-0.399844,9.58907,0.002634,-0.01816,0.594104,5.94,-19.14,-19.2,197.3086,2.7564,-0.5977,2461
0.146051,-0.464489,9.636956,0.001412,-0.016938,0.596547,5.94,-19.14,-19.2,197.3086,2.7564,-0.5977,2470
0.138868,-0.490826,9.720756,0.006299,-0.017549,0.594715,5.22,-19.38,-19.32,197.3086,2.7564,-0.5977,2480
0.141262,-0.524346,9.780613,0.009964,-0.01816,0.594715,4.8,-19.5,-19.68,197.3086,2.7564,-0.5977,2490
0.141262,-0.524346,9.780613,0.01424,-0.01816,0.592271,4.8,-19.5,-19.68,197.3086,2.7564,-0.5977,2500
0.134079,-0.521952,9.72315,0.01363,-0.019992,0.594104,5.1,-19.86,-19.5,193.9778,2.7023,-0.5893,2510
0.146051,-0.509981,9.608225,0.009964,-0.018771,0.593493,5.1,-19.86,-19.5,193.9778,2.7023,-0.5893,2520
0.146051,-0.509981,9.608225,0.009964,-0.018771,0.593493,5.28,-19.26,-19.32,193.9778,2.7023,-0.5893,2531
0.167599,-0.478855,9.672871,0.009354,-0.021214,0.592271,5.22,-19.32,-19.44,193.9778,2.7023,-0.5893,2541
0.181965,-0.421392,9.771035,0.015462,-0.020603,0.594104,5.4,-19.5,-19.14,194.6705,2.735,-0.6194,2550
0.193936,-0.38069,9.742304,0.022793,-0.020603,0.589828,5.4,-19.5,-19.14,194.6705,2.735,-0.6194,2560
0.22985,-0.349564,9.581888,0.027069,-0.020603,0.586773,5.58,-20.04,-19.2,194.6705,2.735,-0.6194,2571
0.22985,-0.349564,9.581888,0.018517,-0.020603,0.580054,5.58,-20.04,-19.2,194.6705,2.735,-0.6194,2580
0.260976,-0.337593,9.440625,0.003856,-0.026101,0.571502,5.7,-20.28,-19.74,194.6705,2.735,-0.6194,2590
0.33041,-0.349564,9.493299,-0.012027,-0.027323,0.561728,4.92,-20.34,-19.56,194.0803,2.702,-0.7073,2600
0.402238,-0.418998,9.75667,-0.012027,-0.024879,0.553176,4.92,-20.34,-19.56,194.0803,2.702,-0.7073,2610
0.402238,-0.418998,9.75667,-0.005307,-0.027934,0.546456,4.92,-20.34,-19.56,194.0803,2.702,-0.7073,2620
0.428575,-0.459701,9.941029,0.011797,-0.012051,0.536682,4.5,-20.16,-18.78,194.0803,2.702,-0.7073,2630
0.361536,-0.474066,9.854836,0.022182,-0.00411,0.53485,5.04,-19.86,-19.02,194.0803,2.702,-0.7073,2640
0.249005,-0.481249,9.584282,0.019127,0.000777,0.526909,4.56,-19.26,-19.56,195.0449,2.6166,-0.9933,2650
0.131685,-0.445335,9.538791,0.010575,0.000777,0.52813,4.56,-19.26,-19.56,195.0449,2.6166,-0.9933,2660
0.131685,-0.445335,9.538791,0.010575,0.000777,0.52813,4.56,-19.26,-19.56,195.0449,2.6166,-0.9933,2670
0.062251,-0.478855,9.634562,0.001412,-0.012051,0.529352,4.02,-19.5,-19.86,195.0449,2.6166,-0.9933,2681
-0.002394,-0.454912,9.785401,0.002634,-0.010829,0.534239,4.32,-19.32,-19.68,195.0449,2.6166,-0.9933,2690
0.045491,-0.41421,9.787795,0.017295,-0.014495,0.536682,4.32,-19.32,-19.68,195.0449,2.6166,-0.9933,2700
0.023943,-0.404632,9.60583,0.024625,-0.017549,0.539126,4.32,-20.22,-19.32,191.8978,2.5996,-1.1795,2710
0.093377,-0.339987,9.471751,0.019127,-0.016327,0.541569,4.08,-20.1,-18.6,191.8978,2.5996,-1.1795,2720
0.093377,-0.339987,9.471751,0.00691,-0.021214,0.541569,4.08,-20.1,-18.6,191.8978,2.5996,-1.1795,2730
0.124502,-0.337593,9.490906,-0.001642,-0.020603,0.539126,4.26,-20.1,-19.14,191.8978,2.5996,-1.1795,2740
0.272947,-0.387873,9.699207,-0.010194,-0.029155,0.533017,4.2,-20.04,-19.62,191.7901,2.5814,-1.0266,2750
0.378295,-0.395055,9.835681,-0.00042,-0.027323,0.522022,4.2,-20.04,-19.62,191.7901,2.5814,-1.0266,2760
0.378295,-0.395055,9.835681,0.008743,-0.023047,0.512248,4.26,-20.22,-19.38,191.7901,2.5814,-1.0266,2770
0.421392,-0.433364,9.783007,0.019127,-0.016327,0.500641,4.26,-20.22,-19.38,191.7901,2.5814,-1.0266,2780
0.387873,-0.440547,9.696813,0.016684,-0.009608,0.491478,3.78,-20.28,-19.14,191.7901,2.5814,-1.0266,2790
0.339987,-0.399844,9.60583,0.016684,-0.009608,0.491478,3.78,-20.28,-19.14,191.7901,2.5814,-1.0266,2801
0.251399,-0.407027,9.615408,0.012408,-0.007775,0.482315,3.12,-20.1,-20.04,189.1668,2.5104,-1.0479,2811
0.251399,-0.407027,9.615408,0.005688,-0.001056,0.472542,3.12,-20.1,-20.04,189.1668,2.5104,-1.0479,2820
0.148445,-0.390267,9.658504,0.000191,-0.002888,0.468265,3.18,-20.16,-20.1,189.1668,2.5104,-1.0479,2830
0.095771,-0.390267,9.718362,0.002023,-0.009608,0.467044,3.18,-20.22,-19.68,189.3342,2.485,-1.2234,2841
0.05028,-0.407027,9.715967,0.009964,-0.012662,0.468876,3.18,-20.22,-19.68,189.3342,2.485,-1.2234,2850
0.05028,-0.407027,9.715967,0.013019,-0.017549,0.468876,3.18,-20.22,-19.68,189.3342,2.485,-1.2234,2860
0.028731,-0.421392,9.672871,0.015462,-0.013273,0.476207,3.48,-20.34,-19.56,189.3342,2.485,-1.2234,2870
0.035914,-0.423787,9.598648,0.011797,-0.007164,0.479872,3.3,-20.7,-18.36,188.8505,2.4678,-1.2345,2880
0.069434,-0.409421,9.593859,0.009354,-0.015716,0.483537,3.3,-20.7,-18.36,188.8505,2.4678,-1.2345,2890
0.112531,-0.371113,9.660899,0.00691,-0.021214,0.482926,3.3,-20.7,-18.36,188.8505,2.4678,-1.2345,2900
0.112531,-0.371113,9.660899,0.004467,-0.019992,0.479261,3.24,-20.94,-18.78,188.8505,2.4678,-1.2345,2910
0.205908,-0.361535,9.713573,0.008743,-0.021825,0.478039,3.84,-20.7,-19.2,191.3028,2.4515,-1.0733,2921
0.253793,-0.323227,9.680053,0.013019,-0.022436,0.468265,3.84,-20.7,-19.2,191.3028,2.4515,-1.0733,2930
0.359141,-0.304073,9.62259,0.010575,-0.02549,0.462768,3.24,-20.16,-19.32,191.3028,2.4515,-1.0733,2940
0.387873,-0.335198,9.581888,0.002634,-0.021214,0.454826,3.24,-20.16,-19.32,191.3028,2.4515,-1.0733,2951
0.387873,-0.335198,9.581888,-0.004696,-0.015716,0.445053,2.52,-20.28,-19.5,189.1147,2.404,-1.0069,2960
0.38069,-0.399844,9.620196,-0.004696,-0.010219,0.431614,2.52,-20.28,-19.5,189.1147,2.404,-1.0069,2970
0.284919,-0.452518,9.775824,-0.002253,-0.01144,0.426116,2.82,-20.64,-19.74,189.1147,2.404,-1.0069,2980
0.225062,-0.454912,9.859624,0.001412,-0.010219,0.419396,2.82,-20.64,-19.74,189.1147,2.404,-1.0069,2990
0.143657,-0.430969,9.818921,0.011186,-0.008386,0.414509,3,-21.18,-19.74,188.8696,2.3452,-1.1525,3000
0.143657,-0.430969,9.818921,0.019738,-0.008997,0.411455,3,-21.18,-19.74,188.8696,2.3452,-1.1525,3010
0.0838,-0.335198,9.613013,0.02096,-0.008997,0.413898,3,-21.18,-19.74,188.8696,2.3452,-1.1525,3020
0.059857,-0.306467,9.483723,0.014851,-0.008386,0.420007,2.82,-20.76,-19.5,188.8696,2.3452,-1.1525,3030
0.040703,-0.311256,9.462174,0.006299,-0.010829,0.417564,2.94,-20.64,-20.04,188.9365,2.3411,-1.2267,3040
0.040703,-0.311256,9.462174,-0.006529,-0.01816,0.422451,2.94,-20.64,-20.04,188.9365,2.3411,-1.2267,3050
0.074223,-0.337593,9.598648,-0.011416,-0.024268,0.424894,2.94,-20.88,-19.44,188.9365,2.3411,-1.2267,3060
0.131685,-0.430969,9.809344,-0.003475,-0.019992,0.425505,2.94,-20.88,-19.44,188.9365,2.3411,-1.2267,3071
0.189148,-0.421392,9.847652,0.002634,-0.020603,0.423672,2.22,-20.34,-19.26,186.5121,2.2952,-1.1104,3080
0.189148,-0.421392,9.847652,0.009964,-0.016938,0.424894,2.22,-20.34,-19.26,186.5121,2.2952,-1.1104,3090
0.217879,-0.411815,9.718362,0.01424,-0.012662,0.423061,2.1,-20.46,-19.44,186.5121,2.2952,-1.1104,3100
0.148445,-0.38069,9.505271,0.009964,-0.003499,0.421229,1.92,-20.34,-19.02,186.5121,2.2952,-1.1104,3110
0.107742,-0.373507,9.60583,0.000801,-0.01144,0.417564,1.92,-20.34,-19.02,186.5121,2.2952,-1.1104,3120
0.107742,-0.373507,9.60583,0.003245,-0.013273,0.421229,1.44,-21.12,-19.38,183.5251,2.2714,-1.0227,3130
0.105348,-0.378295,9.749487,0.006299,-0.017549,0.420618,1.44,-21.12,-19.38,183.5251,2.2714,-1.0227,3140
0.107742,-0.378295,9.775824,0.006299,-0.017549,0.424283,2.46,-20.88,-19.44,183.5251,2.2714,-1.0227,3150
0.098165,-0.368718,9.603436,0.01424,-0.010829,0.424283,2.46,-20.88,-19.44,183.5251,2.2714,-1.0227,3160
0.098165,-0.368718,9.603436,0.014851,-0.010219,0.424894,2.88,-20.58,-19.32,188.6833,2.283,-0.966,3171
0.0838,-0.36393,9.534002,0.008743,-0.010219,0.426727,2.88,-20.58,-19.32,188.6833,2.283,-0.966,3180
0.088588,-0.349564,9.601042,0.001412,-0.014495,0.424894,2.4,-21,-19.02,188.6833,2.283,-0.966,3190
0.088588,-0.349564,9.601042,-0.00042,-0.01816,0.424894,2.4,-21,-19.02,188.6833,2.283,-0.966,3201
0.098165,-0.390267,9.715967,0.003856,-0.012662,0.429781,2.1,-20.82,-18.54,186.0154,2.2749,-0.8767,3210
0.102954,-0.404632,9.766247,0.010575,-0.012662,0.430392,2.1,-20.82,-18.54,186.0154,2.2749,-0.8767,3220
0.069434,-0.366324,9.658504,0.012408,-0.012051,0.431003,2.1,-20.82,-18.54,186.0154,2.2749,-0.8767,3230
0.069434,-0.36393,9.596253,0.009964,-0.013884,0.432835,1.74,-20.52,-19.2,186.0154,2.2749,-0.8767,3240
0.069434,-0.36393,9.596253,0.002634,-0.013273,0.441387,1.74,-20.52,-19.2,186.0154,2.2749,-0.8767,3250
0.03352,-0.354353,9.598648,0.003856,-0.014495,0.444442,1.62,-20.76,-19.2,185.9578,2.2648,-0.809,3260
0.021548,-0.375901,9.677659,0.005688,-0.014495,0.447496,1.5,-20.16,-19.2,185.9578,2.2648,-0.809,3270
0.057463,-0.390267,9.672871,0.00691,-0.017549,0.452994,1.5,-20.16,-19.2,185.9578,2.2648,-0.809,3280
0.038308,-0.41421,9.682447,0.006299,-0.018771,0.457881,1.14,-20.16,-19.68,183.4439,2.2467,-0.716,3290
0.095771,-0.428575,9.696813,0.006299,-0.018771,0.457881,1.14,-20.16,-19.68,183.4439,2.2467,-0.716,3300
0.095771,-0.428575,9.696813,0.009354,-0.020603,0.459103,1.32,-20.58,-19.5,183.4439,2.2467,-0.716,3311
0.146051,-0.373507,9.72315,0.009964,-0.016938,0.460935,1.32,-20.58,-19.5,183.4439,2.2467,-0.716,3320
0.172388,-0.31365,9.680053,0.011186,-0.015105,0.458492,1.5,-21.18,-19.32,183.4439,2.2467,-0.716,3330
0.172388,-0.31365,9.680053,0.009964,-0.014495,0.458492,1.5,-21.18,-19.32,183.4439,2.2467,-0.716,3340
0.179571,-0.277736,9.565128,0.007521,-0.014495,0.462768,0.72,-21,-19.32,183.1556,2.2527,-0.5973,3351
0.167599,-0.328016,9.553157,0.000801,-0.015105,0.459713,0.24,-20.52,-19.62,183.1556,2.2527,-0.5973,3360
0.146051,-0.390267,9.63935,-0.004696,-0.012051,0.456659,0.24,-20.52,-19.62,183.1556,2.2527,-0.5973,3370
0.088588,-0.466884,9.799767,-0.001642,-0.012662,0.461546,0.54,-20.7,-19.8,183.1947,2.2088,-0.614,3380
0.088588,-0.466884,9.799767,0.00691,-0.010829,0.457881,0.54,-20.7,-19.8,183.1947,2.2088,-0.614,3391
0.052674,-0.462095,9.823709,0.00691,-0.010829,0.457881,0.54,-20.7,-19.8,183.1947,2.2088,-0.614,3400
0.038308,-0.409421,9.759064,0.012408,-0.01144,0.462157,0.42,-21.48,-19.5,183.1947,2.2088,-0.614,3411
0.040703,-0.371113,9.60583,0.018517,-0.012662,0.469487,0.42,-21.48,-19.5,183.1947,2.2088,-0.614,3420
0.047885,-0.332804,9.531608,0.011797,-0.019992,0.468265,0.24,-21.66,-19.68,180.5656,2.215,-0.6436,3430
0.047885,-0.332804,9.531608,0.006299,-0.016938,0.473763,1.02,-21.3,-19.44,180.5656,2.215,-0.6436,3441
0.057463,-0.34717,9.608225,-0.001031,-0.018771,0.482315,1.02,-21.3,-19.44,180.5656,2.215,-0.6436,3450
0.062251,-0.356747,9.703996,-0.001031,-0.018771,0.482315,1.26,-20.94,-18.96,183.1551,2.2313,-0.5956,3460
0.079011,-0.399844,9.754275,0.001412,-0.015716,0.490868,1.26,-20.94,-18.96,183.1551,2.2313,-0.5956,3470
0.079011,-0.399844,9.754275,0.005688,-0.015105,0.493311,0.42,-20.34,-19.5,183.1551,2.2313,-0.5956,3480
0.040703,-0.392661,9.694419,0.012408,-0.012662,0.50003,0.42,-20.34,-19.5,183.1551,2.2313,-0.5956,3490
0.026337,-0.38069,9.644139,0.011797,-0.017549,0.504307,0.42,-20.34,-19.5,183.1551,2.2313,-0.5956,3500
0.03352,-0.373507,9.603436,0.009964,-0.016327,0.507972,0.42,-19.98,-19.98,180.5189,2.2303,-0.5387,3510
0.002394,-0.368718,9.627379,0.003245,-0.013884,0.516524,0.72,-20.04,-20.28,180.5189,2.2303,-0.5387,3521
0.002394,-0.368718,9.627379,0.004467,-0.016327,0.525076,0.72,-20.04,-20.28,180.5189,2.2303,-0.5387,3531
0.01676,-0.395055,9.70639,0.003856,-0.019992,0.52813,0.9,-20.76,-19.56,180.5189,2.2303,-0.5387,3540
0.01676,-0.395055,9.70639,0.009964,-0.013884,0.540958,0.9,-20.76,-19.56,183.0628,2.2292,-0.4711,3551
0.014366,-0.452518,9.689631,0.009354,-0.017549,0.540958,1.2,-21.3,-19.14,183.0628,2.2292,-0.4711,3560
0.079011,-0.440547,9.680053,0.009354,-0.024879,0.543402,1.2,-21.3,-19.62,183.0628,2.2292,-0.4711,3570
0.059857,-0.399844,9.749487,0.013019,-0.023658,0.544013,0.48,-20.88,-19.62,183.0628,2.2292,-0.4711,3580
0.059857,-0.399844,9.749487,0.013019,-0.023658,0.544013,0.48,-20.88,-19.62,183.0628,2.2292,-0.4711,3591
0.059857,-0.399844,9.749487,0.013019,-0.023658,0.544013,0.48,-20.88,-19.62,183.0628,2.2292,-0.4711,3601
0.059857,-0.399844,9.749487,0.013019,-0.023658,0.544013,0.48,-20.88,-19.62,183.0628,2.2292,-0.4711,3611
0.059857,-0.399844,9.749487,0.013019,-0.023658,0.544013,0.48,-20.88,-19.62,183.0628,2.2292,-0.4711,3620
0.059857,-0.399844,9.749487,0.013019,-0.023658,0.544013,0.48,-20.88,-19.62,183.0628,2.2292,-0.4711,3630
0.059857,-0.399844,9.749487,0.013019,-0.023658,0.544013,0.48,-20.88,-19.62,183.0628,2.2292,-0.4711,3640
0.059857,-0.399844,9.749487,0.013019,-0.023658,0.544013,0.48,-20.88,-19.62,183.0628,2.2292,-0.4711,3651
0.059857,-0.399844,9.749487,0.013019,-0.023658,0.544013,0.48,-20.88,-19.62,183.0628,2.2292,-0.4711,3660
0.124502,-0.361535,9.677659,0.016073,-0.019992,0.546456,0,-21.12,-20.52,180.3426,2.2512,-0.3558,3671
0.124502,-0.361535,9.677659,0.016073,-0.019992,0.546456,0,-21.12,-20.52,180.3426,2.2512,-0.3558,3680
-0.011971,-0.428575,9.778218,0.008743,-0.03221,0.57761,0.18,-21.18,-18.96,180.3426,2.2512,-0.3558,3690
-0.011971,-0.428575,9.778218,0.008743,-0.03221,0.57761,0.18,-21.18,-18.96,180.3426,2.2512,-0.3558,3701
-0.011971,-0.428575,9.778218,0.008743,-0.03221,0.57761,0.18,-21.18,-18.96,180.3426,2.2512,-0.3558,3710
0.035914,-0.39745,9.677659,0.011797,-0.015716,0.589217,-0.06,-20.58,-19.5,180.3496,2.2134,-0.3996,3720
0.090982,-0.36393,9.658504,0.004467,-0.021825,0.600212,-0.84,-20.7,-19.5,180.3496,2.2134,-0.3996,3730
0.114925,-0.373507,9.684841,0.00691,-0.017549,0.59838,-0.84,-20.7,-19.5,180.3496,2.2134,-0.3996,3740
0.114925,-0.373507,9.684841,0.00691,-0.017549,0.59838,-0.96,-21.48,-19.26,177.6785,2.222,-0.3601,3750
0.122108,-0.375901,9.73991,0.01424,-0.022436,0.605099,-0.96,-21.48,-19.26,177.6785,2.222,-0.3601,3760
0.122108,-0.375901,9.73991,0.01424,-0.022436,0.605099,-0.96,-21.48,-19.26,177.6785,2.222,-0.3601,3770
0.122108,-0.375901,9.73991,0.01424,-0.022436,0.605099,-0.96,-21.48,-19.26,177.6785,2.222,-0.3601,3780
0.122108,-0.375901,9.73991,0.01424,-0.022436,0.605099,-0.96,-21.48,-19.26,177.6785,2.222,-0.3601,3791
0.122108,-0.375901,9.73991,0.01424,-0.022436,0.605099,-0.96,-21.48,-19.26,177.6785,2.222,-0.3601,3800
0.174782,-0.335198,9.694419,0.01424,-0.019992,0.600823,-0.6,-21.54,-19.62,177.8012,2.2242,-0.3613,3810
0.174782,-0.335198,9.694419,0.00691,-0.021825,0.586773,-0.6,-21.54,-19.62,177.8012,2.2242,-0.3613,3820
0.184359,-0.375901,9.811738,0.010575,-0.022436,0.585552,-0.54,-20.94,-19.5,177.8012,2.2242,-0.3613,3830
0.184359,-0.375901,9.811738,0.010575,-0.022436,0.585552,-0.54,-20.94,-19.5,177.8012,2.2242,-0.3613,3840
0.141262,-0.361535,9.656111,0.017906,-0.015105,0.585552,-0.84,-20.16,-19.08,177.7721,2.1922,-0.5855,3851
0.141262,-0.361535,9.656111,0.006299,-0.013273,0.592271,-0.84,-20.16,-19.08,177.7721,2.1922,-0.5855,3860
0.038308,-0.323227,9.534002,0.006299,-0.013273,0.592271,-0.84,-20.28,-18.6,177.7721,2.1922,-0.5855,3870
0.031126,-0.332804,9.596253,-0.00042,-0.019382,0.597769,-0.78,-20.28,-18.96,177.7721,2.1922,-0.5855,3881
0.047885,-0.416604,9.749487,0.000191,-0.019992,0.606932,-0.96,-20.04,-20.46,177.9116,2.1587,-0.6981,3890
0.047885,-0.416604,9.749487,0.008132,-0.01816,0.608154,-0.96,-20.04,-20.46,177.9116,2.1587,-0.6981,3900
0.055068,-0.438152,9.785401,0.018517,-0.023047,0.611208,-1.08,-19.8,-20.58,177.9116,2.1587,-0.6981,3910
0.055068,-0.438152,9.785401,0.018517,-0.023047,0.611208,-1.08,-19.8,-20.58,177.9116,2.1587,-0.6981,3920
0.141262,-0.378295,9.665688,0.020349,-0.027323,0.608154,-0.96,-20.22,-20.4,177.9116,2.1587,-0.6981,3931
0.141262,-0.378295,9.665688,0.020349,-0.027323,0.608154,-0.96,-20.22,-20.4,177.9116,2.1587,-0.6981,3940
0.189148,-0.332804,9.562734,0.009964,-0.02549,0.608154,-1.56,-20.88,-19.98,175.3212,2.1734,-0.6311,3950
0.260976,-0.316044,9.61062,0.004467,-0.023658,0.598991,-1.56,-20.7,-19.8,175.3212,2.1734,-0.6311,3961
0.260976,-0.316044,9.61062,0.004467,-0.023658,0.598991,-1.56,-20.7,-19.8,175.3212,2.1734,-0.6311,3971
0.270553,-0.339987,9.725544,0.004467,-0.019382,0.589217,-1.26,-20.16,-19.98,175.3212,2.1734,-0.6311,3981
0.270553,-0.339987,9.725544,0.004467,-0.019382,0.589217,-1.26,-20.16,-19.98,175.3212,2.1734,-0.6311,3990
0.24661,-0.368718,9.727939,0.010575,-0.01816,0.586773,-1.62,-20.1,-19.74,175.1632,2.1634,-0.7011,4001
0.167599,-0.339987,9.665688,0.01363,-0.016327,0.583719,-1.26,-19.68,-19.5,175.1632,2.1634,-0.7011,4011
0.167599,-0.339987,9.665688,0.01363,-0.016327,0.583719,-1.26,-19.68,-19.5,175.1632,2.1634,-0.7011,4021
0.069434,-0.344776,9.615408,0.007521,-0.012051,0.586162,-0.78,-20.28,-19.14,175.1632,2.1634,-0.7011,4031
0.03352,-0.351958,9.62259,0.003245,-0.015105,0.591049,-1.62,-20.88,-19.74,175.5347,2.1189,-0.8684,4040
0.03352,-0.351958,9.62259,0.003245,-0.023047,0.59838,-1.62,-20.88,-19.74,175.5347,2.1189,-0.8684,4050
0.011971,-0.339987,9.715967,0.005688,-0.021825,0.600212,-2.1,-20.52,-20.1,175.5347,2.1189,-0.8684,4060
0.011971,-0.339987,9.715967,0.005688,-0.021825,0.600212,-2.1,-20.52,-20.1,175.5347,2.1189,-0.8684,4073
0.069434,-0.36393,9.737515,0.01363,-0.027323,0.604488,-2.16,-20.46,-19.68,175.2905,2.1112,-0.8379,4081
0.069434,-0.36393,9.737515,0.01363,-0.027323,0.604488,-2.16,-20.46,-19.68,175.2905,2.1112,-0.8379,4091
0.155628,-0.356747,9.624985,0.009964,-0.026101,0.608765,-2.16,-20.1,-19.8,175.2905,2.1112,-0.8379,4101
0.189148,-0.344776,9.629773,0.00691,-0.017549,0.608154,-2.16,-20.1,-19.8,175.2905,2.1112,-0.8379,4110
0.189148,-0.344776,9.629773,0.00691,-0.017549,0.608154,-1.68,-19.92,-19.92,175.1998,2.1079,-0.7438,4121
0.232245,-0.354353,9.737515,0.005078,-0.021825,0.59838,-1.92,-19.86,-20.16,175.1998,2.1079,-0.7438,4131
0.232245,-0.354353,9.737515,0.005078,-0.021825,0.59838,-1.92,-19.86,-20.16,175.1998,2.1079,-0.7438,4141
0.24661,-0.320833,9.708784,0.013019,-0.017549,0.589828,-3.06,-20.16,-20.4,175.1998,2.1079,-0.7438,4150
0.24661,-0.320833,9.708784,0.013019,-0.017549,0.589828,-3.06,-20.16,-20.4,175.1998,2.1079,-0.7438,4160
0.225062,-0.325621,9.670476,0.011797,-0.028545,0.581886,-3.12,-20.46,-19.74,172.5064,2.0997,-0.7853,4170
0.177176,-0.332804,9.641745,0.008743,-0.014495,0.588606,-3.06,-19.8,-19.62,172.5064,2.0997,-0.7853,4181
0.177176,-0.332804,9.641745,0.008743,-0.014495,0.588606,-3.06,-19.8,-19.62,172.5064,2.0997,-0.7853,4190
0.052674,-0.342381,9.672871,0.008132,-0.013884,0.592882,-2.52,-19.86,-19.62,172.5064,2.0997,-0.7853,4201
0.019154,-0.368718,9.672871,0.008743,-0.013884,0.598991,-2.52,-19.86,-19.62,172.5064,2.0997,-0.7853,4210
0.019154,-0.368718,9.672871,0.008743,-0.013884,0.598991,-3,-20.28,-19.44,172.5649,2.0553,-0.9112,4221
0.026337,-0.395055,9.668081,0.007521,-0.024268,0.603267,-3.24,-20.04,-19.86,172.5649,2.0553,-0.9112,4230
0.026337,-0.395055,9.668081,0.007521,-0.024268,0.603267,-3.24,-20.04,-19.86,172.5649,2.0553,-0.9112,4240
0.071828,-0.392661,9.778218,0.011186,-0.028545,0.608154,-3.18,-20.28,-19.5,172.5649,2.0553,-0.9112,4250
0.222668,-0.301679,9.677659,0.019738,-0.026712,0.611819,-3.18,-20.28,-19.5,172.5649,2.0553,-0.9112,4261
0.222668,-0.301679,9.677659,0.019738,-0.026712,0.611819,-2.64,-19.5,-19.26,172.0992,2.0593,-0.8133,4272
0.256187,-0.241822,9.517242,0.016684,-0.013273,0.609375,-3.24,-19.44,-19.32,172.0992,2.0593,-0.8133,4281
0.256187,-0.241822,9.517242,0.016684,-0.013273,0.609375,-3.24,-19.44,-19.32,172.0992,2.0593,-0.8133,4291
0.292102,-0.26337,9.543579,-0.004696,-0.021214,0.602045,-3.42,-19.56,-19.32,172.0992,2.0593,-0.8133,4300
0.284919,-0.349564,9.797373,-0.005918,-0.019992,0.59166,-3.48,-19.8,-19.26,172.4598,2.0061,-0.8015,4311
0.284919,-0.349564,9.797373,-0.005918,-0.019992,0.59166,-3.48,-19.8,-19.26,172.4598,2.0061,-0.8015,4320
0.249005,-0.385478,9.859624,0.008743,-0.021214,0.578832,-3.96,-19.62,-19.56,172.4598,2.0061,-0.8015,4330
0.249005,-0.385478,9.859624,0.008743,-0.021214,0.578832,-3.96,-19.62,-19.56,172.4598,2.0061,-0.8015,4341
0.174782,-0.361535,9.644139,0.016684,-0.015716,0.573334,-3.84,-19.56,-19.68,172.4598,2.0061,-0.8015,4351
0.126897,-0.311256,9.608225,0.011797,-0.016938,0.573334,-3.84,-19.56,-19.68,172.4598,2.0061,-0.8015,4360
0.126897,-0.311256,9.608225,0.011797,-0.016938,0.573334,-3.84,-19.86,-19.98,169.9734,1.973,-0.9834,4371
0.038308,-0.316044,9.742304,0.011797,-0.015105,0.581276,-3.54,-19.5,-19.92,169.9734,1.973,-0.9834,4380
0.038308,-0.316044,9.742304,0.011797,-0.015105,0.581276,-3.54,-19.5,-19.92,169.9734,1.973,-0.9834,4390
0.038308,-0.33041,9.692024,0.01424,-0.01816,0.587384,-3.9,-18.78,-19.8,169.516,1.973,-1.0247,4401
0.038308,-0.33041,9.692024,0.01424,-0.01816,0.587384,-3.9,-18.78,-19.8,169.516,1.973,-1.0247,4410
0.031126,-0.320833,9.651321,0.009964,-0.019992,0.597158,-4.38,-19.14,-19.02,169.516,1.973,-1.0247,4421
0.098165,-0.301679,9.675264,0.006299,-0.021825,0.606321,-3.54,-19.32,-18.78,169.3592,1.9615,-0.9325,4430
0.098165,-0.301679,9.675264,0.006299,-0.021825,0.606321,-3.54,-19.32,-18.78,169.3592,1.9615,-0.9325,4440
0.134079,-0.316044,9.699207,0.006299,-0.020603,0.607543,-3.66,-19.32,-18.84,169.3592,1.9615,-0.9325,4450
0.160416,-0.323227,9.687236,0.00691,-0.017549,0.610597,-4.2,-19.56,-19.38,169.3592,1.9615,-0.9325,4461
0.160416,-0.323227,9.687236,0.00691,-0.017549,0.610597,-4.2,-19.56,-19.38,169.3592,1.9615,-0.9325,4470
0.143657,-0.332804,9.73991,0.007521,-0.018771,0.609986,-4.26,-19.5,-19.14,169.24,1.9367,-0.81,4480
0.143657,-0.332804,9.73991,0.007521,-0.018771,0.609986,-4.26,-19.5,-19.14,169.24,1.9367,-0.81,4490
0.134079,-0.323227,9.684841,0.008132,-0.015716,0.609986,-4.74,-19.86,-19.44,169.24,1.9367,-0.81,4500
0.134079,-0.308861,9.660899,0.008132,-0.026101,0.608154,-4.74,-19.86,-19.44,169.24,1.9367,-0.81,4511
0.134079,-0.308861,9.660899,0.009354,-0.021825,0.605099,-4.38,-19.5,-19.56,169.2795,1.9312,-0.7924,4521
0.208302,-0.342381,9.711179,0.011797,-0.020603,0.602656,-4.38,-19.32,-19.56,169.2795,1.9312,-0.7924,4530
0.208302,-0.342381,9.711179,0.011797,-0.020603,0.602656,-4.38,-19.32,-19.56,169.2795,1.9312,-0.7924,4540
0.241822,-0.325621,9.742304,0.013019,-0.023658,0.597769,-4.74,-18.84,-18.96,169.2795,1.9312,-0.7924,4550
0.244216,-0.292102,9.672871,0.01363,-0.015716,0.595325,-5.04,-18.3,-19.14,165.769,1.9262,-0.8276,4560
0.244216,-0.292102,9.672871,0.01363,-0.015716,0.595325,-5.04,-18.3,-19.14,165.769,1.9262,-0.8276,4571
0.208302,-0.277736,9.62259,0.007521,-0.021214,0.594715,-4.86,-18.36,-19.38,165.769,1.9262,-0.8276,4581
0.208302,-0.277736,9.62259,0.007521,-0.021214,0.594715,-4.86,-18.36,-19.38,165.769,1.9262,-0.8276,4591
0.179571,-0.311256,9.660899,0.00691,-0.019382,0.588606,-4.68,-18.6,-19.44,165.769,1.9262,-0.8276,4601
0.179571,-0.311256,9.660899,0.00691,-0.019382,0.588606,-4.68,-18.6,-19.44,165.769,1.9262,-0.8276,4611
0.134079,-0.316044,9.720756,0.009964,-0.016327,0.591049,-4.32,-17.94,-20.1,168.868,1.904,-0.9407,4621
0.124502,-0.277736,9.715967,0.01424,-0.016938,0.589828,-4.86,-18.06,-19.8,168.868,1.904,-0.9407,4631
0.124502,-0.277736,9.715967,0.01424,-0.016938,0.589828,-4.86,-18.06,-19.8,168.868,1.904,-0.9407,4641
0.155628,-0.287313,9.603436,0.010575,-0.019992,0.591049,-4.8,-17.82,-19.32,168.868,1.904,-0.9407,4650
0.210696,-0.299284,9.634562,0.000801,-0.023047,0.586773,-4.8,-18.54,-19.5,166.5937,1.8718,-0.9785,4661
0.210696,-0.299284,9.634562,0.001412,-0.023047,0.581886,-4.8,-18.54,-19.5,166.5937,1.8718,-0.9785,4671
0.272947,-0.323227,9.711179,0.001412,-0.023047,0.581886,-4.74,-19.02,-19.68,166.5937,1.8718,-0.9785,4680
0.304073,-0.31365,9.780613,0.00691,-0.021825,0.573334,-4.74,-19.02,-19.68,166.5937,1.8718,-0.9785,4691
0.304073,-0.31365,9.780613,0.011797,-0.021825,0.56356,-5.4,-18.42,-19.98,166.5937,1.8718,-0.9785,4700
0.339987,-0.26337,9.713573,0.01363,-0.017549,0.554397,-5.04,-17.4,-20.1,165.2953,1.85,-1.0598,4710
0.265765,-0.22985,9.636956,0.01363,-0.017549,0.554397,-5.04,-17.4,-20.1,165.2953,1.85,-1.0598,4720
0.234639,-0.275342,9.579494,0.008743,-0.013884,0.553787,-4.74,-17.28,-19.68,165.2953,1.85,-1.0598,4730
0.234639,-0.275342,9.579494,0.003856,-0.008997,0.558674,-4.74,-17.28,-19.68,165.2953,1.85,-1.0598,4740
0.069434,-0.284919,9.663293,0.005688,-0.003499,0.569058,-5.4,-17.76,-20.04,165.2953,1.85,-1.0598,4750
0.023943,-0.342381,9.711179,0.004467,-0.00411,0.572113,-5.4,-17.94,-20.16,166.2218,1.8057,-1.2369,4761
0.023943,-0.342381,9.711179,0.004467,-0.00411,0.572113,-5.4,-17.94,-20.16,166.2218,1.8057,-1.2369,4770
-0.098165,-0.383084,9.699207,0.013019,-0.012662,0.59166,-4.86,-17.58,-19.98,166.2218,1.8057,-1.2369,4781
-0.098165,-0.383084,9.699207,0.013019,-0.012662,0.59166,-4.86,-17.58,-19.98,166.2218,1.8057,-1.2369,4790
-0.110137,-0.323227,9.63935,0.008743,-0.029766,0.605099,-4.44,-17.82,-20.22,169.102,1.806,-1.1845,4800
-0.019154,-0.282524,9.682447,0.009354,-0.035875,0.611208,-5.34,-17.64,-20.04,169.102,1.806,-1.1845,4810
-0.019154,-0.282524,9.682447,0.009354,-0.035875,0.611208,-5.34,-17.64,-20.04,169.102,1.806,-1.1845,4821
0.165205,-0.294496,9.684841,0.011797,-0.02549,0.614873,-5.64,-17.46,-19.62,169.102,1.806,-1.1845,4830
0.165205,-0.294496,9.684841,0.011797,-0.02549,0.614873,-5.64,-17.46,-19.62,169.102,1.806,-1.1845,4840
0.337593,-0.265764,9.651321,0.008743,-0.023047,0.613041,-6,-17.46,-19.2,162.0034,1.8327,-0.8485,4851
0.373507,-0.287313,9.718362,0.009354,-0.018771,0.604488,-6,-17.46,-19.2,162.0034,1.8327,-0.8485,4860
0.373507,-0.287313,9.718362,0.009354,-0.018771,0.604488,-6,-17.52,-19.08,162.0034,1.8327,-0.8485,4872
0.351958,-0.28013,9.682447,0.00691,-0.017549,0.596547,-5.76,-17.46,-18.78,162.0034,1.8327,-0.8485,4880
0.351958,-0.28013,9.682447,0.00691,-0.017549,0.596547,-5.76,-17.46,-18.78,162.0034,1.8327,-0.8485,4891
0.272947,-0.282524,9.656111,0.004467,-0.012051,0.58433,-6.18,-17.46,-18.72,162.0112,1.8041,-0.8654,4901
0.215485,-0.299284,9.694419,0.007521,-0.016327,0.579443,-6.18,-17.46,-18.72,162.0112,1.8041,-0.8654,4910
0.215485,-0.299284,9.694419,0.007521,-0.016327,0.579443,-6.18,-16.74,-19.44,162.0112,1.8041,-0.8654,4920
0.196331,-0.284919,9.70639,0.011186,-0.015105,0.567226,-6.06,-16.5,-19.68,162.0112,1.8041,-0.8654,4930
0.196331,-0.284919,9.70639,0.011186,-0.015105,0.567226,-6.06,-16.5,-19.68,162.0112,1.8041,-0.8654,4940
0.169994,-0.272947,9.687236,0.00691,-0.023658,0.56356,-5.94,-16.92,-20.34,162.317,1.7801,-1.0958,4950
0.191542,-0.289707,9.718362,0.011797,-0.020603,0.566004,-5.64,-17.04,-20.88,162.317,1.7801,-1.0958,4960
0.191542,-0.289707,9.718362,0.011797,-0.020603,0.566004,-5.64,-17.04,-20.88,162.317,1.7801,-1.0958,4970
0.193936,-0.277736,9.668081,0.008743,-0.020603,0.567836,-5.34,-16.8,-20.7,162.317,1.7801,-1.0958,4981
0.193936,-0.277736,9.668081,0.008743,-0.020603,0.567836,-5.34,-16.8,-20.7,162.317,1.7801,-1.0958,4990
0.186753,-0.265764,9.63935,0.011797,-0.013884,0.571502,-5.76,-17.4,-19.44,162.3085,1.7544,-1.182,5001
0.193936,-0.237033,9.648928,0.00691,-0.019992,0.567836,-6.06,-16.86,-19.5,162.3085,1.7544,-1.182,5011
0.193936,-0.237033,9.648928,0.00691,-0.019992,0.567836,-6.06,-16.86,-19.5,162.3085,1.7544,-1.182,5021
0.193936,-0.237033,9.648928,0.00691,-0.019992,0.567836,-6.06,-16.86,-19.5,162.3085,1.7544,-1.182,5030
0.201119,-0.249005,9.692024,0.006299,-0.021214,0.560506,-6,-16.68,-19.8,162.3917,1.7286,-1.1836,5040
0.308861,-0.26337,9.677659,0.007521,-0.029766,0.551954,-6.54,-16.2,-19.38,162.3917,1.7286,-1.1836,5050
0.34717,-0.272947,9.694419,0.006299,-0.017549,0.537904,-6.54,-16.2,-19.38,162.3917,1.7286,-1.1836,5061
0.34717,-0.272947,9.694419,0.006299,-0.017549,0.537904,-6.54,-16.2,-19.38,162.3917,1.7286,-1.1836,5070
0.368718,-0.299284,9.675264,0.008132,-0.016327,0.532406,-6.18,-16.32,-19.26,161.3234,1.6846,-1.214,5080
0.368718,-0.299284,9.675264,0.008132,-0.016327,0.532406,-6.18,-16.32,-19.26,161.3234,1.6846,-1.214,5090
0.294496,-0.28013,9.684841,0.009354,-0.008997,0.529963,-6.18,-16.02,-19.14,161.3234,1.6846,-1.214,5101
0.193936,-0.258582,9.656111,0.009354,-0.012662,0.525687,-6.72,-16.02,-18.54,161.3234,1.6846,-1.214,5110
0.193936,-0.258582,9.656111,0.009354,-0.012662,0.525687,-6.72,-16.02,-18.54,161.3234,1.6846,-1.214,5120
0.112531,-0.28013,9.670476,0.007521,-0.013884,0.523243,-6.96,-16.32,-19.26,158.4386,1.6479,-1.3885,5131
0.112531,-0.28013,9.670476,0.007521,-0.013884,0.523243,-6.96,-16.32,-19.26,158.4386,1.6479,-1.3885,5140
0.045491,-0.284919,9.720756,0.009964,-0.017549,0.526298,-6.66,-16.74,-19.62,158.4386,1.6479,-1.3885,5151
0.045491,-0.284919,9.720756,0.009964,-0.017549,0.526298,-6.66,-16.74,-19.62,158.4386,1.6479,-1.3885,5161
0.038308,-0.284919,9.720756,0.019127,-0.020603,0.536072,-6.84,-16.38,-19.26,158.4302,1.6461,-1.3809,5170
0.112531,-0.239427,9.545974,0.013019,-0.018771,0.548289,-6.84,-16.38,-19.26,158.4302,1.6461,-1.3809,5180
0.112531,-0.239427,9.545974,0.013019,-0.018771,0.548289,-7.02,-15.72,-19.2,158.4302,1.6461,-1.3809,5191
0.114925,-0.210696,9.61062,0.001412,-0.016938,0.556841,-6.54,-15.48,-19.5,158.4302,1.6461,-1.3809,5201
0.172388,-0.260976,9.735122,0.002023,-0.019992,0.558063,-6.96,-15.48,-19.38,156.9635,1.6406,-1.1754,5211
0.172388,-0.260976,9.735122,0.002023,-0.019992,0.558063,-6.96,-15.48,-19.38,156.9635,1.6406,-1.1754,5220
0.270553,-0.253793,9.754275,0.008743,-0.021214,0.549511,-7.08,-15.78,-19.32,156.9635,1.6406,-1.1754,5230
0.270553,-0.253793,9.754275,0.008743,-0.021214,0.549511,-7.08,-15.78,-19.32,156.9635,1.6406,-1.1754,5240
0.33041,-0.282524,9.636956,0.011797,-0.023658,0.540958,-7.2,-15.9,-19.2,158.1216,1.6271,-1.0805,5250
0.33041,-0.282524,9.636956,0.011797,-0.023658,0.540958,-7.2,-15.9,-19.2,158.1216,1.6271,-1.0805,5260
0.378295,-0.26337,9.660899,0.006299,-0.027323,0.529963,-6.84,-15.78,-19.26,158.1216,1.6271,-1.0805,5270
0.337593,-0.24661,9.742304,0.009964,-0.008997,0.523243,-6.96,-16.02,-19.2,158.1709,1.6059,-1.138,5281
0.337593,-0.24661,9.742304,0.009964,-0.008997,0.523243,-6.96,-16.02,-19.2,158.1709,1.6059,-1.138,5291
0.337593,-0.24661,9.742304,0.009964,-0.008997,0.523243,-6.96,-16.02,-19.2,158.1709,1.6059,-1.138,5301
0.222668,-0.258582,9.677659,0.014851,-0.009608,0.5208,-7.5,-15.84,-19.26,158.1709,1.6059,-1.138,5310
0.081405,-0.253793,9.615408,0.005688,-0.01144,0.531795,-6.78,-15.6,-19.56,158.3868,1.6003,-1.257,5321
0.081405,-0.253793,9.615408,0.005688,-0.01144,0.531795,-6.78,-15.6,-19.56,158.3868,1.6003,-1.257,5330
0.01676,-0.28013,9.670476,0.004467,-0.018771,0.537293,-6.42,-15.9,-20.16,158.3868,1.6003,-1.257,5340
-0.004789,-0.256187,9.696813,0.008743,-0.01144,0.545845,-6.9,-15.72,-20.1,158.3868,1.6003,-1.257,5351
-0.004789,-0.256187,9.696813,0.008743,-0.01144,0.545845,-6.9,-15.72,-20.1,158.3868,1.6003,-1.257,5360
0.040703,-0.251399,9.653716,0.010575,-0.019992,0.556841,-7.26,-15.3,-19.74,157.1221,1.5925,-1.2465,5371
0.040703,-0.251399,9.653716,0.010575,-0.019992,0.556841,-7.26,-15.3,-19.74,157.1221,1.5925,-1.2465,5380
0.112531,-0.304073,9.680053,0.009354,-0.026101,0.570891,-7.5,-15.3,-18.84,157.1221,1.5925,-1.2465,5390
0.143657,-0.335198,9.70639,0.011186,-0.024268,0.578221,-7.56,-15.3,-19.44,157.1221,1.5925,-1.2465,5400
0.143657,-0.335198,9.70639,0.011186,-0.024268,0.578221,-7.56,-15.3,-19.44,157.1221,1.5925,-1.2465,5411
0.141262,-0.268159,9.692024,0.012408,-0.016938,0.584941,-6.66,-15.18,-19.56,156.8754,1.5965,-1.0208,5420
0.141262,-0.268159,9.692024,0.012408,-0.016938,0.584941,-6.66,-15.18,-19.56,156.8754,1.5965,-1.0208,5430
0.141262,-0.260976,9.584282,0.010575,-0.018771,0.595325,-6.78,-14.7,-18.96,156.8754,1.5965,-1.0208,5440
0.158022,-0.253793,9.632168,0.005078,-0.019382,0.597769,-6.36,-14.52,-19.26,156.8754,1.5965,-1.0208,5450
0.158022,-0.253793,9.632168,0.005078,-0.019382,0.597769,-6.36,-14.52,-19.26,156.8754,1.5965,-1.0208,5460
0.165205,-0.292102,9.715967,0.005688,-0.023047,0.598991,-6.06,-14.76,-19.32,159.8411,1.6045,-0.9001,5470
0.179571,-0.270553,9.730332,0.014851,-0.024879,0.604488,-6.18,-14.58,-19.32,159.8411,1.6045,-0.9001,5480
0.179571,-0.270553,9.730332,0.014851,-0.024879,0.604488,-6.18,-14.58,-19.32,159.8411,1.6045,-0.9001,5491
0.220273,-0.294496,9.627379,0.014851,-0.018771,0.609375,-6.3,-14.76,-19.62,159.9028,1.6094,-0.8784,5500
0.220273,-0.294496,9.627379,0.014851,-0.018771,0.609375,-6.3,-14.76,-19.62,159.9028,1.6094,-0.8784,5510
0.177176,-0.299284,9.627379,0.014851,-0.017549,0.622204,-6,-14.58,-19.38,159.9028,1.6094,-0.8784,5520
0.177176,-0.299284,9.627379,0.014851,-0.017549,0.622204,-6,-14.58,-19.38,159.9028,1.6094,-0.8784,5531
0.095771,-0.299284,9.725544,0.009354,-0.016327,0.631977,-6.54,-14.16,-19.38,155.2569,1.6191,-0.9072,5541
0.095771,-0.299284,9.725544,0.009354,-0.016327,0.631977,-6.54,-14.16,-19.2,155.2569,1.6191,-0.9072,5550
-0.007183,-0.28013,9.701602,0.009354,-0.021214,0.672905,-6.6,-14.58,-19.2,155.2569,1.6191,-0.9072,5560
-0.045491,-0.260976,9.57231,0.009354,-0.021214,0.672905,-7.02,-13.62,-19.26,155.2559,1.6387,-0.8975,5571
-0.045491,-0.260976,9.57231,0.009354,-0.021214,0.672905,-7.02,-13.62,-19.26,155.2559,1.6387,-0.8975,5580
-0.040703,-0.292102,9.62259,0.002634,-0.024268,0.682068,-7.08,-13.5,-19.14,155.2559,1.6387,-0.8975,5590
0.03352,-0.323227,9.797373,0.010575,-0.031599,0.69734,-7.08,-13.5,-19.14,155.2559,1.6387,-0.8975,5600
0.158022,-0.335198,9.725544,0.018517,-0.023658,0.710779,-7.26,-13.32,-18.78,155.2559,1.6387,-0.8975,5611
0.158022,-0.335198,9.725544,0.016684,-0.023047,0.726051,-8.16,-13.62,-19.08,151.9662,1.6507,-0.7684,5620
0.138868,-0.351958,9.62259,0.016684,-0.023047,0.726051,-8.16,-13.62,-19.08,151.9662,1.6507,-0.7684,5630
0.138868,-0.351958,9.62259,0.012408,-0.023047,0.730938,-8.16,-13.62,-19.08,151.9662,1.6507,-0.7684,5640
0.124502,-0.294496,9.617802,0.008132,-0.021825,0.736435,-8.04,-13.38,-19.38,151.9662,1.6507,-0.7684,5650
0.124502,-0.294496,9.617802,0.008132,-0.021825,0.736435,-8.04,-13.38,-19.38,151.9662,1.6507,-0.7684,5661
0.062251,-0.275342,9.732727,0.008743,-0.021825,0.747431,-7.38,-12.84,-19.5,153.5247,1.6407,-0.7696,5671
0.03352,-0.287313,9.658504,0.014851,-0.02549,0.763924,-7.38,-12.84,-19.5,153.5247,1.6407,-0.7696,5680
0.03352,-0.287313,9.658504,0.014851,-0.02549,0.763924,-7.44,-13.32,-19.2,153.5247,1.6407,-0.7696,5691
0.007183,-0.294496,9.615408,0.013019,-0.026712,0.776142,-7.38,-13.56,-19.68,153.5247,1.6407,-0.7696,5700
0.007183,-0.294496,9.615408,0.013019,-0.026712,0.776142,-7.38,-13.56,-19.68,153.5247,1.6407,-0.7696,5711
0.009577,-0.332804,9.699207,0.009354,-0.032821,0.792635,-7.74,-13.8,-19.5,151.9635,1.64,-0.7713,5720
0.093377,-0.34717,9.699207,0.011797,-0.028545,0.809128,-7.68,-13.2,-19.8,151.9635,1.64,-0.7713,5730
0.093377,-0.34717,9.699207,0.011797,-0.028545,0.809128,-7.68,-13.2,-19.8,151.9635,1.64,-0.7713,5741
0.150839,-0.359141,9.651321,0.012408,-0.02549,0.816459,-7.68,-13.26,-20.22,151.9635,1.64,-0.7713,5750
0.150839,-0.351958,9.677659,0.012408,-0.02549,0.816459,-7.68,-13.26,-20.22,151.9635,1.64,-0.7713,5760
0.165205,-0.351958,9.677659,0.017906,-0.031599,0.833563,-7.38,-12.96,-19.8,153.6386,1.6397,-0.7869,5770
0.165205,-0.342381,9.725544,0.020349,-0.029766,0.83845,-7.26,-12.66,-19.2,153.6386,1.6397,-0.7869,5781
0.165205,-0.342381,9.725544,0.020349,-0.029766,0.83845,-7.26,-12.66,-19.2,153.6386,1.6397,-0.7869,5791
0.129291,-0.328016,9.646533,0.017906,-0.029766,0.846391,-7.26,-12.3,-19.2,151.7584,1.633,-0.7964,5800
0.129291,-0.328016,9.646533,0.017906,-0.029766,0.846391,-7.26,-12.3,-19.2,151.7584,1.633,-0.7964,5811
0.177176,-0.31365,9.613013,0.01424,-0.03221,0.850667,-6.72,-12.36,-19.44,151.7584,1.633,-0.7964,5820
0.138868,-0.323227,9.680053,0.010575,-0.023658,0.860441,-7.44,-13.2,-19.74,151.7584,1.633,-0.7964,5830
0.138868,-0.323227,9.680053,0.010575,-0.023658,0.860441,-7.44,-13.2,-19.74,151.7584,1.633,-0.7964,5841
0.086194,-0.292102,9.692024,0.01363,-0.027934,0.869604,-7.5,-13.14,-19.68,153.6549,1.6238,-0.8082,5850
0.086194,-0.292102,9.692024,0.01363,-0.027934,0.869604,-7.5,-13.14,-19.68,153.6549,1.6238,-0.8082,5861
0.110137,-0.33041,9.663293,0.014851,-0.035875,0.879989,-7.38,-12.54,-19.44,153.6549,1.6238,-0.8082,5871
0.110137,-0.33041,9.663293,0.014851,-0.035875,0.879989,-7.38,-12.54,-19.44,153.6549,1.6238,-0.8082,5881
0.0838,-0.359141,9.629773,0.010575,-0.024879,0.896482,-7.8,-11.94,-19.68,153.6549,1.6238,-0.8082,5892
0.146051,-0.38069,9.658504,0.007521,-0.035875,0.905645,-7.8,-11.64,-19.86,148.4586,1.6215,-0.823,5900
0.146051,-0.38069,9.658504,0.007521,-0.035875,0.905645,-7.8,-11.64,-19.86,148.4586,1.6215,-0.823,5911
0.196331,-0.383084,9.751882,0.01424,-0.027934,0.912975,-7.68,-11.22,-19.14,148.4586,1.6215,-0.823,5921
0.215485,-0.359141,9.72315,0.02096,-0.035875,0.917251,-7.26,-11.1,-19.26,148.4586,1.6215,-0.823,5931
0.215485,-0.359141,9.72315,0.02096,-0.035875,0.917251,-7.26,-11.1,-19.26,148.4586,1.6215,-0.823,5940
0.251399,-0.375901,9.663293,0.022182,-0.037097,0.920306,-7.32,-10.74,-19.8,149.8939,1.6252,-0.84,5950
0.251399,-0.375901,9.663293,0.022182,-0.037097,0.920306,-7.32,-10.74,-19.8,149.8939,1.6252,-0.84,5960
0.244216,-0.356747,9.574705,0.016684,-0.026712,0.92336,-6.72,-10.5,-19.56,149.8939,1.6252,-0.84,5971
0.244216,-0.356747,9.574705,0.016684,-0.026712,0.92336,-6.72,-10.5,-19.56,149.8939,1.6252,-0.84,5980
0.251399,-0.342381,9.708784,0.016684,-0.030988,0.925193,-7.08,-11.1,-19.5,149.8939,1.6252,-0.84,5990
0.237033,-0.328016,9.694419,0.021571,-0.03221,0.933134,-7.44,-11.04,-19.74,150.0648,1.699,-0.9289,6000
0.237033,-0.328016,9.694419,0.021571,-0.03221,0.933134,-7.44,-11.04,-19.74,150.0648,1.699,-0.9289,6011
0.237033,-0.29689,9.629773,0.019127,-0.027323,0.939243,-8.04,-10.8,-19.68,150.0648,1.699,-0.9289,6020
0.21309,-0.270553,9.541185,0.009354,-0.033431,0.93741,-7.62,-10.74,-19.98,150.0648,1.699,-0.9289,6030
0.21309,-0.270553,9.541185,0.009354,-0.033431,0.93741,-7.62,-10.74,-19.98,150.0648,1.699,-0.9289,6041
0.24661,-0.328016,9.711179,0.002023,-0.034653,0.93741,-7.74,-10.2,-19.32,144.2168,1.8147,-1.0778,6051
0.24661,-0.328016,9.711179,0.002023,-0.034653,0.93741,-7.74,-10.2,-19.32,144.2168,1.8147,-1.0778,6060
0.320833,-0.356747,9.77343,0.01424,-0.033431,0.93069,-7.44,-10.2,-18.96,144.2168,1.8147,-1.0778,6070
0.392661,-0.378295,9.689631,0.019127,-0.035264,0.922138,-7.5,-10.44,-19.44,144.2168,1.8147,-1.0778,6080
0.392661,-0.378295,9.689631,0.019127,-0.035264,0.922138,-7.5,-10.44,-19.44,144.2168,1.8147,-1.0778,6090
0.392661,-0.378295,9.689631,0.019127,-0.035264,0.922138,-7.5,-10.44,-19.44,144.2168,1.8147,-1.0778,6100
0.464489,-0.378295,9.596253,0.012408,-0.034042,0.914197,-7.98,-10.08,-19.44,144.4912,1.876,-1.2631,6110
0.36393,-0.402238,9.701602,0.013019,-0.023047,0.90931,-7.44,-9.48,-19.32,144.4912,1.876,-1.2631,6120
0.36393,-0.402238,9.701602,0.013019,-0.023047,0.90931,-7.44,-9.48,-19.32,144.4912,1.876,-1.2631,6131
0.306467,-0.373507,9.771035,0.023403,-0.018771,0.906256,-7.2,-9.3,-19.44,144.4912,1.876,-1.2631,6141
0.143657,-0.320833,9.632168,0.027069,-0.021214,0.911143,-7.32,-9.42,-20.16,146.3165,1.9611,-1.5532,6150
0.143657,-0.320833,9.632168,0.027069,-0.021214,0.911143,-7.32,-9.42,-20.16,146.3165,1.9611,-1.5532,6160
0.002394,-0.292102,9.529214,0.014851,-0.022436,0.933134,-7.68,-9,-19.98,146.3165,1.9611,-1.5532,6171
0.002394,-0.292102,9.529214,0.014851,-0.022436,0.933134,-7.68,-9,-19.98,146.3165,1.9611,-1.5532,6180
-0.119714,-0.234639,9.598648,0.005078,-0.033431,0.953903,-7.2,-9.06,-19.68,146.3996,1.9854,-1.5945,6191
-0.057463,-0.320833,9.699207,0.008743,-0.040151,0.980781,-7.2,-9.06,-20.04,146.3996,1.9854,-1.5945,6200
-0.057463,-0.320833,9.699207,0.008743,-0.040151,0.980781,-7.2,-9.06,-20.04,146.3996,1.9854,-1.5945,6211
0.126897,-0.39745,9.672871,0.013019,-0.042594,0.999107,-6.78,-9.06,-19.56,146.3996,1.9854,-1.5945,6221
0.126897,-0.39745,9.672871,0.013019,-0.042594,0.999107,-6.78,-9.06,-19.56,146.3996,1.9854,-1.5945,6230
0.308861,-0.466884,9.646533,0.01363,-0.041984,1.009492,-6.48,-8.46,-19.38,147.1911,1.9928,-1.253,6240
0.471672,-0.450124,9.787795,0.01424,-0.047481,0.999107,-6.9,-8.04,-19.92,147.1911,1.9928,-1.253,6250
0.471672,-0.450124,9.787795,0.01424,-0.047481,0.999107,-6.9,-8.04,-19.92,147.1911,1.9928,-1.253,6260
0.500403,-0.366324,9.751882,0.02829,-0.027934,0.994831,-7.02,-7.86,-20.28,147.1911,1.9928,-1.253,6271
0.500403,-0.366324,9.751882,0.02829,-0.027934,0.994831,-7.02,-7.86,-20.28,147.1911,1.9928,-1.253,6281
0.409421,-0.339987,9.586677,0.026458,-0.026101,0.989334,-7.08,-8.34,-20.04,142.8484,2.0279,-1.1483,6291
0.409421,-0.339987,9.586677,0.026458,-0.026101,0.989334,-7.08,-8.34,-20.04,142.8484,2.0279,-1.1483,6301
0.181965,-0.344776,9.531608,0.01424,-0.010219,0.99422,-7.26,-8.34,-19.98,142.8484,2.0279,-1.1483,6311
0.023943,-0.411815,9.751882,0.011186,-0.026712,1.005216,-7.38,-7.74,-19.26,142.8484,2.0279,-1.1483,6320
0.023943,-0.411815,9.751882,0.011186,-0.026712,1.005216,-7.38,-7.74,-19.26,142.8484,2.0279,-1.1483,6330
-0.021548,-0.430969,9.778218,0.018517,-0.029155,1.023542,-7.08,-7.68,-19.62,142.7986,2.028,-1.1146,6340
0.10056,-0.404632,9.646533,0.023403,-0.040151,1.043701,-7.02,-7.38,-19.74,142.7986,2.028,-1.1146,6350
0.10056,-0.404632,9.646533,0.023403,-0.040151,1.043701,-7.02,-7.38,-19.74,142.7986,2.028,-1.1146,6360
0.021548,-0.383084,9.553157,0.01363,-0.023658,1.074244,-6.9,-7.5,-19.8,142.7986,2.028,-1.1146,6370
0.021548,-0.383084,9.553157,0.01363,-0.023658,1.074244,-6.9,-7.5,-19.8,142.7986,2.028,-1.1146,6381
-0.026337,-0.371113,9.663293,0.014851,-0.040762,1.106009,-6.42,-7.38,-19.44,143.7307,2.0836,-1.0745,6390
0.023943,-0.402238,9.70639,0.020349,-0.029766,1.133498,-6.36,-7.38,-18.48,143.7307,2.0836,-1.0745,6400
0.023943,-0.402238,9.70639,0.020349,-0.029766,1.133498,-6.36,-7.38,-18.48,143.7307,2.0836,-1.0745,6410
0.004789,-0.421392,9.593859,0.020349,-0.049925,1.160987,-6.18,-7.08,-19.14,143.6995,2.117,-1.0314,6420
0.004789,-0.421392,9.593859,0.020349,-0.049925,1.160987,-6.18,-7.08,-19.14,143.6995,2.117,-1.0314,6430
0.177176,-0.469278,9.617802,0.013019,-0.04626,1.188476,-7.26,-6.48,-20.46,143.6995,2.117,-1.0314,6441
0.177176,-0.469278,9.617802,0.013019,-0.04626,1.188476,-7.26,-6.48,-20.46,143.6995,2.117,-1.0314,6450
0.237033,-0.464489,9.644139,0.009964,-0.040762,1.19886,-7.02,-6.54,-20.22,143.6995,2.117,-1.0314,6460
0.237033,-0.464489,9.644139,0.009964,-0.040762,1.19886,-7.02,-6.54,-20.22,143.6995,2.117,-1.0314,6470
0.277736,-0.500403,9.711179,0.008743,-0.032821,1.206191,-6.42,-6.12,-20.04,140.0912,2.1309,-1.0283,6480
0.344776,-0.598569,9.814133,0.02096,-0.038318,1.217186,-6.48,-6.12,-20.22,140.0912,2.1309,-1.0283,6492
0.344776,-0.598569,9.814133,0.02096,-0.038318,1.217186,-6.48,-6.12,-20.22,140.0912,2.1309,-1.0283,6500
0.174782,-0.634483,9.680053,0.022793,-0.018771,1.228182,-6.6,-6.36,-20.58,140.0912,2.1309,-1.0283,6510
0.217879,-0.59378,9.641745,0.023403,-0.031599,1.24834,-6.36,-6.06,-20.16,140.0488,2.1484,-0.99,6521
0.217879,-0.59378,9.641745,0.023403,-0.031599,1.24834,-6.36,-6.06,-20.16,140.0488,2.1484,-0.99,6531
-0.055068,-0.517163,9.818921,0.029512,-0.013273,1.270942,-5.7,-5.7,-19.62,140.0488,2.1484,-0.99,6541
0.023943,-0.474066,9.541185,0.031956,-0.049314,1.301486,-6.06,-5.7,-19.62,140.0488,2.1484,-0.99,6551
0.023943,-0.474066,9.541185,0.031956,-0.049314,1.301486,-6.06,-5.7,-19.62,140.0488,2.1484,-0.99,6561
0.05028,-0.495615,9.581888,0.024014,-0.034042,1.334472,-6.36,-5.76,-20.04,139.9437,2.1422,-0.9355,6570
0.05028,-0.495615,9.581888,0.024014,-0.034042,1.334472,-6.36,-5.76,-20.04,139.9437,2.1422,-0.9355,6580
-0.007183,-0.541106,9.569917,0.021571,-0.05359,1.372346,-5.94,-5.64,-19.38,139.9437,2.1422,-0.9355,6591
0.088588,-0.581809,9.663293,0.016073,-0.054812,1.401057,-5.7,-4.74,-19.26,139.9437,2.1422,-0.9355,6601
0.088588,-0.581809,9.663293,0.016073,-0.054812,1.401057,-5.7,-4.74,-19.26,139.9437,2.1422,-0.9355,6610
0.088588,-0.581809,9.663293,0.016073,-0.054812,1.401057,-5.7,-4.74,-19.26,139.9437,2.1422,-0.9355,6620
0.189148,-0.622511,9.735122,0.025236,-0.048703,1.421826,-5.64,-4.68,-19.44,135.0984,2.1454,-0.9273,6631
0.22985,-0.636877,9.708784,0.032566,-0.047481,1.443206,-5.7,-4.92,-19.44,135.0984,2.1454,-0.9273,6640
0.22985,-0.636877,9.708784,0.032566,-0.047481,1.443206,-5.7,-4.92,-19.44,135.0984,2.1454,-0.9273,6651
0.34717,-0.581809,9.414289,0.013019,-0.052368,1.449926,-5.58,-4.74,-18.84,135.0984,2.1454,-0.9273,6660
0.550683,-0.57702,9.811738,0.005078,-0.05359,1.44565,-4.98,-4.2,-19.08,135.081,2.1393,-0.9147,6670
0.550683,-0.57702,9.811738,0.005078,-0.05359,1.44565,-4.98,-4.2,-19.08,135.081,2.1393,-0.9147,6680
0.550683,-0.57702,9.811738,0.005078,-0.05359,1.44565,-4.98,-4.2,-19.08,135.081,2.1393,-0.9147,6690
0.531529,-0.600963,9.873989,0.019127,-0.043816,1.440152,-4.86,-4.5,-19.08,135.081,2.1393,-0.9147,6700
0.335198,-0.603357,9.632168,0.033177,-0.043816,1.423659,-4.86,-4.5,-19.08,135.081,2.1393,-0.9147,6710
0.507586,-0.574626,9.567522,0.025847,-0.018771,1.42427,-5.52,-3.9,-19.32,129.6374,2.1674,-0.9115,6721
0.507586,-0.574626,9.567522,0.025847,-0.018771,1.42427,-5.52,-3.9,-19.32,129.6374,2.1674,-0.9115,6730
0.232245,-0.509981,9.72315,0.02768,-0.03954,1.436487,-5.76,-3.9,-19.32,129.6374,2.1674,-0.9115,6741
0.232245,-0.509981,9.72315,0.02768,-0.03954,1.436487,-5.76,-3.9,-19.32,129.6374,2.1674,-0.9115,6750
0.076617,-0.620117,9.483723,0.022182,-0.034653,1.456645,-5.52,-3.9,-19.26,129.6374,2.1674,-0.9115,6761
0.004789,-0.747014,9.522031,0.01424,-0.048703,1.489021,-5.4,-3.96,-18.9,134.9712,2.1557,-0.8448,6770
0.004789,-0.747014,9.522031,0.01424,-0.048703,1.489021,-5.4,-3.96,-18.9,134.9712,2.1557,-0.8448,6780
0.122108,-0.826025,9.895537,0.024014,-0.067029,1.517121,-4.68,-3.42,-18.96,134.9712,2.1557,-0.8448,6791
0.122108,-0.826025,9.895537,0.024014,-0.067029,1.517121,-4.68,-3.42,-18.96,134.9712,2.1557,-0.8448,6801
0.435758,-0.713494,9.77343,0.045395,-0.070694,1.532393,-4.5,-3.24,-19.44,134.9712,2.1557,-0.8448,6810
0.603357,-0.469278,9.4095,0.033177,-0.050536,1.526895,-4.26,-3.18,-19.38,136.4786,2.7239,-0.8852,6820
0.603357,-0.469278,9.4095,0.033177,-0.050536,1.526895,-4.26,-3.18,-19.38,136.4786,2.7239,-0.8852,6831
0.754197,-0.416604,9.407105,0.012408,-0.059088,1.512234,-3.66,-2.52,-19.26,136.4786,2.7239,-0.8852,6841
0.754197,-0.416604,9.407105,0.012408,-0.059088,1.512234,-3.66,-2.52,-19.26,136.4786,2.7239,-0.8852,6850
0.584203,-0.502798,9.821315,0.004467,-0.032821,1.503071,-3.66,-2.52,-19.26,136.4786,2.7239,-0.8852,6861
0.584203,-0.502798,9.821315,0.004467,-0.032821,1.503071,-3.66,-2.52,-19.26,136.4786,2.7239,-0.8852,6871
0.320833,-0.69434,9.80695,0.020349,-0.027323,1.501239,-3.42,-3.12,-19.08,145.1433,2.7137,-0.8583,6881
0.112531,-0.854756,9.581888,0.022182,-0.034653,1.52323,-3.84,-3.48,-19.32,145.1433,2.7137,-0.8583,6891
0.112531,-0.854756,9.581888,0.022182,-0.034653,1.52323,-3.84,-3.48,-19.32,145.1433,2.7137,-0.8583,6901
-0.136474,-0.902642,9.75667,0.017906,-0.040151,1.546443,-3.6,-3,-19.68,145.1433,2.7137,-0.8583,6910
-0.136474,-0.902642,9.75667,0.017906,-0.040151,1.546443,-3.6,-3,-19.68,145.1433,2.7137,-0.8583,6920
-0.153234,-0.883487,9.72315,0.032566,-0.04687,1.587982,-3.36,-2.52,-19.56,145.2228,2.7437,-0.7244,6930
-0.076617,-0.797293,9.596253,0.040508,-0.06031,1.623412,-3.24,-2.46,-19.68,145.2228,2.7437,-0.7244,6940
-0.076617,-0.797293,9.596253,0.040508,-0.06031,1.623412,-3.24,-2.46,-19.68,145.2228,2.7437,-0.7244,6950
0.201119,-0.622511,9.512454,0.033788,-0.093907,1.638683,-2.94,-2.16,-19.5,145.2228,2.7437,-0.7244,6961
0.67758,-0.615329,9.483723,0.018517,-0.088409,1.637462,-3.18,-2.34,-19.26,136.1943,2.7066,-0.6681,6970
0.67758,-0.615329,9.483723,0.018517,-0.088409,1.637462,-3.18,-2.34,-19.26,136.1943,2.7066,-0.6681,6981
0.885882,-0.64406,9.58907,0.008743,-0.056033,1.630131,-2.82,-2.22,-19.5,136.1943,2.7066,-0.6681,6990
0.885882,-0.64406,9.58907,0.008743,-0.056033,1.630131,-2.82,-2.22,-19.5,136.1943,2.7066,-0.6681,7000
0.670397,-0.641666,9.799767,0.015462,-0.012051,1.623412,-2.22,-1.8,-18.78,148.5184,2.7141,-0.6783,7010
0.299284,-0.816448,9.780613,0.030734,-0.005332,1.620357,-2.1,-1.44,-19.08,148.5184,2.7141,-0.6783,7020
0.299284,-0.816448,9.780613,0.030734,-0.005332,1.620357,-2.1,-1.44,-19.08,148.5184,2.7141,-0.6783,7030
-0.014366,-0.95771,9.692024,0.030123,-0.043205,1.62952,-2.04,-1.08,-18.96,148.5184,2.7141,-0.6783,7040
-0.014366,-0.95771,9.692024,0.030123,-0.043205,1.62952,-2.04,-1.08,-18.96,148.5184,2.7141,-0.6783,7051
0.10056,-1.072635,9.634562,0.027069,-0.096961,1.638683,-2.04,-1.56,-18.84,147.8691,2.715,-0.5411,7061
0.454912,-0.92419,9.871595,0.053336,-0.100627,1.644792,-2.16,-1.62,-19.2,147.8691,2.715,-0.5411,7071
0.454912,-0.92419,9.871595,0.053336,-0.100627,1.644792,-2.16,-1.62,-19.2,147.8691,2.715,-0.5411,7080
0.802082,-0.483643,9.433443,0.057612,-0.050536,1.641738,-1.5,-1.8,-19.5,147.8691,2.715,-0.5411,7090
0.802082,-0.483643,9.433443,0.057612,-0.050536,1.641738,-1.5,-1.8,-19.5,147.8691,2.715,-0.5411,7100
0.883487,-0.404632,9.153313,0.018517,-0.040762,1.633796,-1.14,-1.62,-19.2,164.1438,2.6507,-0.5513,7110
0.732648,-0.656031,9.727939,-0.013248,-0.035264,1.616081,-1.38,-1.44,-18.72,164.1438,2.6507,-0.5513,7121
0.732648,-0.656031,9.727939,-0.013248,-0.035264,1.616081,-1.38,-1.44,-18.72,164.1438,2.6507,-0.5513,7130
0.553077,-0.893064,10.017646,0.011186,-0.056644,1.60081,-0.48,-1.14,-18.48,190.3852,3.0795,-1.1466,7141
0.553077,-0.893064,10.017646,0.011186,-0.056644,1.60081,-0.48,-1.14,-18.48,190.3852,3.0795,-1.1466,7150
0.371113,-0.921796,9.646533,0.045395,-0.040762,1.597755,-0.84,-0.96,-18.96,190.3852,3.0795,-1.1466,7161
0.426181,-0.732648,9.428655,0.037453,-0.05359,1.592258,-0.66,-0.78,-18.84,190.3852,3.0795,-1.1466,7170
0.426181,-0.732648,9.428655,0.037453,-0.05359,1.592258,-0.66,-0.78,-18.84,190.3852,3.0795,-1.1466,7181
0.442941,-0.629694,9.481328,0.009354,-0.042594,1.587371,-1.14,-0.9,-19.26,170.5369,3.6362,-1.9062,7190
0.442941,-0.629694,9.481328,0.009354,-0.042594,1.587371,-1.14,-0.9,-19.26,170.5369,3.6362,-1.9062,7201
0.572232,-0.629694,9.62259,0.001412,-0.071916,1.584927,-1.14,-0.78,-19.26,170.5369,3.6362,-1.9062,7210
0.572232,-0.629694,9.62259,0.001412,-0.071916,1.584927,-1.14,-0.78,-19.26,170.5369,3.6362,-1.9062,7221
0.617723,-0.730254,9.792584,0.012408,-0.054201,1.574543,-0.54,-0.78,-19.44,172.9427,3.9528,-2.1519,7232
0.5435,-0.809265,9.646533,0.031345,-0.047481,1.571488,0.18,-1.32,-19.44,172.9427,3.9528,-2.1519,7240
0.5435,-0.809265,9.646533,0.031345,-0.047481,1.571488,0.18,-1.32,-19.44,172.9427,3.9528,-2.1519,7250
0.335198,-0.82363,9.692024,0.030734,-0.045649,1.575764,0.18,-1.32,-19.44,172.9427,3.9528,-2.1519,7260
0.268159,-0.828419,9.718362,0.025236,-0.048703,1.575764,-0.48,-1.32,-20.1,198.5038,4.1078,-2.3294,7270
0.268159,-0.828419,9.718362,0.025236,-0.048703,1.575764,-0.48,-1.32,-20.1,198.5038,4.1078,-2.3294,7281
0.22985,-0.837996,9.598648,0.023403,-0.057255,1.588592,0.24,-1.26,-19.26,198.5038,4.1078,-2.3294,7290
0.22985,-0.837996,9.598648,0.023403,-0.057255,1.588592,0.24,-1.26,-19.26,198.5038,4.1078,-2.3294,7301
0.26337,-0.909824,9.543579,0.017295,-0.059699,1.597755,1.02,-0.66,-19.2,198.5038,4.1078,-2.3294,7310
0.320833,-0.945739,9.742304,0.024014,-0.061531,1.611194,1.26,-0.54,-19.44,215.4302,4.4903,-2.3083,7320
0.320833,-0.945739,9.742304,0.041729,-0.052979,1.625244,1.26,-0.54,-19.44,215.4302,4.4903,-2.3083,7331
0.337593,-0.888276,9.859624,0.047838,-0.054201,1.633186,1.62,-0.96,-19.56,215.4302,4.4903,-2.3083,7340
0.311256,-0.837996,9.648928,0.045395,-0.054201,1.640516,1.2,-1.5,-19.56,213.6753,4.6762,-2.1444,7350
0.311256,-0.837996,9.648928,0.03501,-0.052979,1.660675,1.2,-1.5,-19.56,213.6753,4.6762,-2.1444,7361
0.210696,-0.699128,9.308941,0.026458,-0.054201,1.682666,1.32,-1.62,-19.32,213.6753,4.6762,-2.1444,7370
0.210696,-0.699128,9.308941,0.026458,-0.054201,1.682666,1.32,-1.62,-19.32,213.6753,4.6762,-2.1444,7380
0.150839,-0.651243,9.490906,0.017906,-0.057255,1.69977,1.86,-0.9,-19.14,213.6753,4.6762,-2.1444,7390
0.186753,-0.861939,9.804555,0.023403,-0.052979,1.726648,2.34,-1.5,-19.5,225.4859,4.8175,-1.9031,7400
0.186753,-0.861939,9.804555,0.008132,-0.050536,1.729091,2.34,-1.5,-19.5,225.4859,4.8175,-1.9031,7411
0.304073,-1.000807,9.569917,-0.00714,-0.056644,1.719318,2.22,-1.92,-19.08,225.4859,4.8175,-1.9031,7420
0.304073,-1.000807,9.569917,-0.00714,-0.056644,1.719318,2.22,-1.92,-19.08,225.4859,4.8175,-1.9031,7431
0.509981,-0.979258,9.565128,-0.016303,-0.084133,1.702824,2.04,-2.28,-18.9,215.5855,4.8748,-1.743,7440
0.509981,-0.979258,9.565128,-0.016303,-0.084133,1.702824,2.04,-2.28,-18.9,215.5855,4.8748,-1.743,7450
0.742225,-0.888276,10.012857,0.022793,-0.084133,1.677779,2.76,-1.68,-19.2,215.5855,4.8748,-1.743,7460
0.952921,-0.895459,9.778218,0.058223,-0.06092,1.658231,2.88,-1.02,-19.08,215.5855,4.8748,-1.743,7470
0.952921,-0.895459,9.778218,0.058223,-0.06092,1.658231,2.88,-1.02,-19.08,215.5855,4.8748,-1.743,7481
0.773351,-0.895459,9.445415,0.04234,-0.024879,1.652733,2.7,-1.14,-19.08,233.0062,4.9924,-1.5322,7490
0.773351,-0.895459,9.445415,0.04234,-0.024879,1.652733,2.7,-1.14,-19.08,233.0062,4.9924,-1.5322,7500
0.390267,-0.785322,9.636956,0.015462,-0.030988,1.658231,3.3,-1.68,-19.5,233.0062,4.9924,-1.5322,7510
0.057463,-0.826025,9.567522,0.019738,-0.04687,1.674114,3.54,-1.5,-19.26,239.1921,4.9906,-1.2956,7521
0.057463,-0.826025,9.567522,0.019738,-0.04687,1.674114,3.54,-1.5,-19.26,239.1921,4.9906,-1.2956,7530
0.040703,-0.90743,9.385557,0.02768,-0.061531,1.691829,3.48,-1.44,-19.56,239.1921,4.9906,-1.2956,7540
0.040703,-0.90743,9.385557,0.02768,-0.061531,1.691829,3.48,-1.44,-19.56,239.1921,4.9906,-1.2956,7550
0.198725,-1.012778,9.692024,0.017295,-0.071305,1.710765,4.38,-1.86,-19.68,239.1921,4.9906,-1.2956,7560
0.198725,-1.012778,9.692024,0.017295,-0.071305,1.710765,4.38,-1.86,-19.68,239.1921,4.9906,-1.2956,7570
0.399844,-0.92419,9.955395,0.019738,-0.070694,1.716874,4.26,-2.28,-19.86,229.9125,5.0579,-1.297,7581
0.598569,-0.928979,9.57231,0.024014,-0.054812,1.708933,4.38,-2.52,-20.34,229.9125,5.0579,-1.297,7590
0.598569,-0.928979,9.57231,0.024014,-0.054812,1.708933,4.38,-2.52,-20.34,229.9125,5.0579,-1.297,7600
0.684763,-0.976864,9.416683,0.01363,-0.07497,1.695494,5.1,-2.4,-19.92,229.9125,5.0579,-1.297,7610
0.684763,-0.976864,9.416683,0.01363,-0.07497,1.695494,5.1,-2.4,-19.92,229.9125,5.0579,-1.297,7620
0.725465,-1.012778,9.897932,0.022793,-0.06092,1.686942,5.4,-2.22,-19.98,235.3632,5.225,-1.4436,7631
0.572232,-0.945739,9.873989,0.055168,-0.037707,1.695494,4.8,-2.64,-20.28,235.3632,5.225,-1.4436,7640
0.572232,-0.945739,9.873989,0.055168,-0.037707,1.695494,4.8,-2.64,-20.28,235.3632,5.225,-1.4436,7651
0.239427,-0.809265,9.284998,0.050892,-0.021214,1.709544,4.86,-3.24,-19.74,235.3632,5.225,-1.4436,7660
0.064645,-0.871516,9.244295,0.007521,-0.061531,1.721761,5.52,-3.12,-19.62,233.8664,5.3774,-1.8204,7670
0.064645,-0.871516,9.244295,0.007521,-0.061531,1.721761,5.52,-3.12,-19.62,233.8664,5.3774,-1.8204,7680
0.126897,-1.017567,9.905115,-0.002253,-0.073138,1.733978,6.36,-3.06,-19.14,233.8664,5.3774,-1.8204,7690
0.126897,-1.082212,9.881172,-0.002253,-0.073138,1.7352,6.36,-3.06,-19.14,233.8664,5.3774,-1.8204,7700
0.275342,-1.082212,9.881172,0.031345,-0.071916,1.7352,6.72,-2.88,-19.68,233.8664,5.3774,-1.8204,7711
0.622511,-1.058269,9.598648,0.04906,-0.070694,1.727259,6.78,-2.94,-20.04,237.0593,5.5485,-1.6188,7721
0.622511,-1.058269,9.598648,0.04906,-0.070694,1.727259,6.78,-2.94,-20.04,237.0593,5.5485,-1.6188,7730
0.833208,-0.95771,9.613013,0.037453,-0.062142,1.712598,6.66,-3.6,-19.92,237.0593,5.5485,-1.6188,7740
0.833208,-0.95771,9.613013,0.019127,-0.058477,1.697326,6.66,-3.6,-19.92,237.0593,5.5485,-1.6188,7751
0.806871,-0.85715,9.60583,0.016684,-0.047481,1.688774,7.02,-3.78,-20.28,231.9276,5.6261,-1.6104,7761
0.612934,-0.871516,9.58907,0.01424,-0.042594,1.683277,6.9,-3.84,-20.46,231.9276,5.6261,-1.6104,7770
0.612934,-0.871516,9.58907,0.01424,-0.042594,1.683277,6.9,-3.84,-20.46,231.9276,5.6261,-1.6104,7781
0.316044,-0.933767,9.675264,0.025236,-0.040151,1.680833,7.2,-3.9,-20.04,231.9276,5.6261,-1.6104,7790
0.316044,-0.933767,9.675264,0.025236,-0.040151,1.680833,7.2,-3.9,-20.04,231.9276,5.6261,-1.6104,7800
0.284919,-0.967287,9.718362,0.037453,-0.047481,1.680222,7.68,-4.02,-19.5,236.0795,5.6822,-2.0434,7810
0.284919,-0.967287,9.718362,0.037453,-0.047481,1.680222,7.68,-4.02,-19.5,236.0795,5.6822,-2.0434,7820
0.318439,-0.943344,9.593859,0.035621,-0.064586,1.682666,8.04,-4.02,-19.26,236.0795,5.6822,-2.0434,7830
0.517163,-0.866727,9.553157,0.02096,-0.070694,1.674114,8.04,-4.44,-19.68,236.0795,5.6822,-2.0434,7840
0.517163,-0.866727,9.553157,0.02096,-0.070694,1.674114,8.04,-4.44,-19.68,236.0795,5.6822,-2.0434,7850
0.656031,-0.933767,9.565128,0.01363,-0.054201,1.650901,7.74,-5.16,-19.92,231.5514,5.6859,-2.0901,7860
0.687157,-0.981653,9.553157,0.009354,-0.052368,1.625855,7.74,-5.7,-20.04,231.5514,5.6859,-2.0901,7871
0.687157,-0.981653,9.553157,0.009354,-0.052368,1.625855,7.74,-5.7,-20.04,231.5514,5.6859,-2.0901,7881
0.665608,-1.108549,9.91948,0.019127,-0.056033,1.606307,8.22,-5.46,-20.16,231.5514,5.6859,-2.0901,7891
0.665608,-1.108549,9.91948,0.019127,-0.056033,1.606307,8.22,-5.46,-20.16,231.5514,5.6859,-2.0901,7900
0.579415,-1.017567,10.005674,0.051503,-0.052368,1.591647,7.74,-4.98,-19.92,231.5478,5.7212,-2.1277,7910
0.608146,-0.828419,9.457385,0.050282,-0.051147,1.575764,8.04,-5.7,-19.44,231.5478,5.7212,-2.1277,7921
0.608146,-0.828419,9.457385,0.014851,-0.045649,1.563547,8.04,-5.7,-19.44,231.5478,5.7212,-2.1277,7930
0.519558,-0.687157,9.179649,0.008743,-0.047481,1.559271,8.82,-5.76,-19.14,231.5478,5.7212,-2.1277,7940
0.519558,-0.687157,9.179649,0.008743,-0.047481,1.559271,8.82,-5.76,-19.14,231.5478,5.7212,-2.1277,7950
0.387873,-0.782928,9.780613,-0.005307,-0.052368,1.545832,8.34,-6.24,-19.44,227.6129,5.7597,-1.8239,7960
0.387873,-0.782928,9.780613,-0.005307,-0.052368,1.545832,8.34,-6.24,-19.44,227.6129,5.7597,-1.8239,7970
0.339987,-0.95771,10.046377,0.010575,-0.043205,1.542777,8.7,-6.36,-19.44,227.6129,5.7597,-1.8239,7980
0.339987,-0.95771,10.046377,0.010575,-0.043205,1.542777,8.7,-6.36,-19.44,227.6129,5.7597,-1.8239,7991
0.284919,-0.962498,9.696813,0.037453,-0.044427,1.542777,8.58,-6.36,-19.98,230.1848,5.8408,-1.6415,8000
0.351958,-0.931373,9.44302,0.023403,-0.058477,1.53728,9,-6.6,-20.16,230.1848,5.8408,-1.6415,8010
0.351958,-0.931373,9.44302,0.023403,-0.058477,1.53728,9,-6.6,-20.16,230.1848,5.8408,-1.6415,8020
0.392661,-0.931373,9.531608,0.010575,-0.049925,1.536669,9.3,-7.26,-20.46,230.1848,5.8408,-1.6415,8030
0.395055,-0.902642,9.883567,0.013019,-0.056033,1.529338,9.24,-7.86,-20.04,223.3895,5.8878,-1.273,8040
0.395055,-0.902642,9.883567,0.013019,-0.056033,1.529338,9.24,-7.86,-20.04,223.3895,5.8878,-1.273,8050
0.320833,-0.931373,9.924269,0.038675,-0.048703,1.529949,9.24,-8.28,-19.98,223.3895,5.8878,-1.273,8060
0.282524,-0.90743,9.510059,0.046616,-0.055423,1.53056,9.36,-8.16,-19.86,223.3895,5.8878,-1.273,8070
0.282524,-0.90743,9.510059,0.046616,-0.055423,1.53056,9.36,-8.16,-19.86,223.3895,5.8878,-1.273,8081
0.227456,-0.842785,9.325701,0.020349,-0.04626,1.534836,9.36,-8.28,-19.86,223.1147,5.9029,-1.0362,8090
0.227456,-0.842785,9.325701,0.020349,-0.04626,1.534836,9.36,-8.28,-19.86,223.1147,5.9029,-1.0362,8101
0.418998,-0.826025,9.646533,0.000191,-0.071916,1.528728,9,-8.64,-19.98,223.1147,5.9029,-1.0362,8110
0.615329,-0.871516,9.80695,0.009354,-0.063975,1.507958,9,-8.64,-19.98,223.1147,5.9029,-1.0362,8120
0.615329,-0.871516,9.80695,0.009354,-0.063975,1.507958,9.3,-8.58,-19.92,223.1147,5.9029,-1.0362,8131
0.87391,-0.87391,9.80695,0.032566,-0.070083,1.470084,9.72,-8.34,-19.98,226.554,5.6522,-1.3259,8140
0.87391,-0.87391,9.80695,0.032566,-0.070083,1.470084,9.72,-8.34,-19.98,226.554,5.6522,-1.3259,8150
0.914613,-0.804476,9.77343,0.036843,-0.04626,1.430378,10.26,-8.76,-19.92,226.554,5.6522,-1.3259,8161
0.830813,-0.72786,9.447808,0.024625,-0.033431,1.401057,10.56,-9.06,-19.08,226.554,5.6522,-1.3259,8171
0.830813,-0.72786,9.447808,0.024625,-0.033431,1.401057,10.56,-9.06,-19.08,226.554,5.6522,-1.3259,8180
0.514769,-0.747014,9.399923,0.002023,-0.027934,1.363794,10.38,-9.18,-18.66,224.3404,5.5437,-1.5826,8191
0.514769,-0.747014,9.399923,0.002023,-0.027934,1.363794,10.38,-9.18,-18.66,224.3404,5.5437,-1.5826,8200
0.404632,-0.742225,9.802161,0.01424,-0.050536,1.333862,9.72,-9.36,-18.96,224.3404,5.5437,-1.5826,8210
0.404632,-0.742225,9.802161,0.01424,-0.050536,1.333862,9.72,-9.36,-18.96,224.3404,5.5437,-1.5826,8221
0.538712,-0.780534,10.115811,0.047838,-0.070694,1.305151,9.72,-9.96,-18.96,221.6277,5.5903,-1.4198,8230
0.64406,-0.775745,9.378374,0.038064,-0.034042,1.289268,9.72,-10.2,-19.62,221.6277,5.5903,-1.4198,8240
0.64406,-0.775745,9.378374,0.038064,-0.034042,1.289268,9.72,-10.2,-19.62,221.6277,5.5903,-1.4198,8250
0.514769,-0.770956,9.024022,-0.015692,-0.026101,1.285603,9.3,-10.92,-19.14,221.6277,5.5903,-1.4198,8260
0.349564,-0.835602,10.00328,-0.020579,-0.028545,1.269721,9.3,-10.92,-19.14,221.6277,5.5903,-1.4198,8270
0.349564,-0.835602,10.00328,-0.020579,-0.028545,1.269721,9.54,-11.76,-19.02,217.0607,5.5768,-1.2081,8280
0.354353,-0.794899,10.345661,0.033177,-0.052368,1.247119,9.72,-11.22,-19.44,217.0607,5.5768,-1.2081,8291
0.354353,-0.794899,10.345661,0.033177,-0.052368,1.247119,9.72,-11.22,-19.44,217.0607,5.5768,-1.2081,8301
0.596174,-0.684763,9.464568,0.066164,-0.059699,1.216575,10.26,-10.5,-19.86,221.0501,5.6517,-1.0508,8310
0.596174,-0.684763,9.464568,0.066164,-0.059699,1.216575,10.26,-10.5,-19.86,221.0501,5.6517,-1.0508,8320
0.756591,-0.567443,9.184438,0.015462,-0.044427,1.187254,9.78,-11.04,-19.92,221.0501,5.6517,-1.0508,8331
0.64406,-0.562655,9.70639,-0.010194,-0.026712,1.176258,9.84,-11.16,-20.34,221.0501,5.6517,-1.0508,8340
0.64406,-0.562655,9.70639,-0.010194,-0.026712,1.176258,9.84,-11.16,-20.34,221.0501,5.6517,-1.0508,8350
0.29689,-0.684763,9.838076,0.003856,-0.005332,1.167706,9.42,-11.52,-20.46,213.8427,5.5891,-0.8767,8361
0.29689,-0.684763,9.838076,0.003856,-0.005332,1.167706,9.42,-11.52,-20.46,213.8427,5.5891,-0.8767,8371
0.129291,-0.691945,9.478934,0.01424,-0.040151,1.148158,8.94,-12.18,-20.22,213.8427,5.5891,-0.8767,8381
0.292102,-0.665608,9.862018,0.01424,-0.040151,1.148158,8.94,-12.3,-19.56,213.6036,5.6155,-0.6584,8390
0.292102,-0.665608,9.862018,0.020349,-0.078025,1.124335,8.94,-12.3,-19.56,213.6036,5.6155,-0.6584,8401
0.756591,-0.634483,9.835681,0.02829,-0.082301,1.093792,9.66,-11.94,-19.08,213.6036,5.6155,-0.6584,8410
0.828419,-0.591386,9.352037,0.013019,-0.026101,1.070579,9.72,-12.6,-19.14,213.6036,5.6155,-0.6584,8421
0.828419,-0.591386,9.352037,0.013019,-0.026101,1.070579,9.72,-12.6,-19.14,213.6036,5.6155,-0.6584,8430
0.641666,-0.718282,9.378374,-0.013248,-0.016327,1.041868,9.42,-12.6,-19.92,211.7118,5.5782,-0.5473,8441
0.641666,-0.718282,9.378374,-0.013248,-0.016327,1.041868,9.42,-12.6,-19.92,211.7118,5.5782,-0.5473,8450
0.332804,-0.691945,9.96976,-0.004696,-0.010219,1.014379,8.94,-12.84,-20.22,211.7118,5.5782,-0.5473,8461
0.332804,-0.691945,9.96976,-0.004696,-0.010219,1.014379,8.94,-12.84,-20.22,211.7118,5.5782,-0.5473,8470
0.289707,-0.749408,10.113417,0.023403,-0.037097,0.997275,8.88,-13.14,-20.16,211.5581,5.6002,-0.4056,8480
0.385478,-0.739831,10.058349,0.041119,-0.063364,0.984447,9.18,-13.5,-19.92,211.5581,5.6002,-0.4056,8490
0.385478,-0.739831,10.058349,0.041119,-0.063364,0.984447,9.18,-13.5,-19.92,211.5581,5.6002,-0.4056,8500
0.620117,-0.56026,9.347249,0.010575,-0.01144,0.947795,9.3,-14.16,-19.68,211.5581,5.6002,-0.4056,8511
0.620117,-0.56026,9.347249,0.010575,-0.01144,0.947795,9.3,-14.16,-19.68,211.5581,5.6002,-0.4056,8520
0.299284,-0.531529,9.636956,0.003856,0.000777,0.948406,9.24,-13.44,-19.56,211.4751,5.524,-0.2803,8530
-0.014366,-0.557866,9.660899,0.010575,0.00322,0.94413,9.24,-13.32,-19.5,211.4751,5.524,-0.2803,8540
-0.014366,-0.557866,9.660899,0.010575,0.00322,0.94413,9.24,-13.32,-19.5,211.4751,5.524,-0.2803,8550
0.01676,-0.687157,9.759064,0.019127,-0.071916,0.939243,9.3,-13.56,-19.56,209.7102,5.513,-0.1349,8561
0.01676,-0.687157,9.759064,0.019127,-0.071916,0.939243,9.3,-13.56,-19.56,209.7102,5.513,-0.1349,8571
0.462095,-0.744619,9.675264,0.015462,-0.062753,0.924582,9.48,-13.98,-19.86,209.7102,5.513,-0.1349,8581
0.708705,-0.656031,9.490906,0.004467,-0.041373,0.909921,9.48,-13.98,-20.16,209.7102,5.513,-0.1349,8590
0.708705,-0.656031,9.490906,0.004467,-0.041373,0.909921,9.48,-13.98,-20.16,209.7102,5.513,-0.1349,8601
0.816448,-0.52674,9.613013,0.005078,-0.010829,0.879378,8.88,-14.28,-19.8,209.6308,5.4628,-0.0276,8611
0.816448,-0.52674,9.613013,0.005078,-0.010829,0.879378,8.88,-14.28,-19.8,209.6308,5.4628,-0.0276,8620
0.596174,-0.390267,9.751882,0.018517,-0.010219,0.835396,8.46,-14.76,-19.56,209.6308,5.4628,-0.0276,8630
0.596174,-0.390267,9.751882,0.018517,-0.010219,0.835396,8.46,-14.76,-19.56,209.6308,5.4628,-0.0276,8641
0.433364,-0.445335,9.656111,0.01424,-0.043816,0.78897,8.52,-15.36,-19.32,208.1743,5.4352,0.1116,8650
0.56026,-0.687157,9.541185,0.000801,-0.04626,0.764535,8.64,-15.3,-19.26,208.1743,5.4352,0.1116,8660
0.663214,-0.773351,9.656111,-0.004696,-0.02549,0.741933,8.58,-15.36,-19.32,208.1743,5.4352,0.1116,8670
0.663214,-0.773351,9.656111,-0.004696,-0.02549,0.741933,8.58,-15.36,-19.32,208.1743,5.4352,0.1116,8680
0.588992,-0.773351,9.950606,0.021571,-0.003499,0.71872,8.94,-14.94,-19.68,207.9733,5.3944,0.1959,8690
0.588992,-0.773351,9.950606,0.021571,-0.003499,0.71872,8.94,-14.94,-19.68,207.9733,5.3944,0.1959,8701
0.471672,-0.469278,9.766247,0.052725,-0.013884,0.68329,9.3,-14.52,-20.1,207.9733,5.3944,0.1959,8710
0.447729,-0.172388,9.25866,0.030123,-0.027323,0.649082,9.3,-14.52,-20.1,207.9733,5.3944,0.1959,8720
0.447729,-0.172388,9.25866,0.011797,-0.036486,0.636864,8.52,-15.18,-19.62,207.9733,5.3944,0.1959,8730
0.471672,-0.217879,9.352037,-0.019968,-0.034653,0.616706,8.28,-15.18,-19.14,205.3019,5.2913,0.3278,8740
0.471672,-0.217879,9.352037,-0.019968,-0.034653,0.616706,8.28,-15.18,-19.14,205.3019,5.2913,0.3278,8751
0.66082,-0.493221,9.864412,-0.021801,-0.029766,0.57761,7.92,-15.96,-18.6,205.3019,5.2913,0.3278,8760
0.66082,-0.493221,9.864412,-0.021801,-0.029766,0.57761,7.92,-15.96,-18.6,205.3019,5.2913,0.3278,8771
0.811659,-0.66082,9.921875,0.010575,-0.019382,0.534239,8.4,-16.32,-19.2,205.3019,5.2913,0.3278,8780
0.66082,-0.687157,9.735122,0.025847,-0.012051,0.498198,8.4,-16.74,-19.08,202.8514,5.2968,0.3773,8790
0.66082,-0.687157,9.735122,0.025847,-0.012051,0.498198,8.4,-16.74,-19.08,202.8514,5.2968,0.3773,8801
0.617723,-0.603357,9.737515,0.022793,-0.022436,0.459713,7.98,-16.14,-19.2,202.8514,5.2968,0.3773,8810
0.617723,-0.603357,9.737515,0.022793,-0.022436,0.459713,7.98,-16.14,-19.2,202.8514,5.2968,0.3773,8820
0.426181,-0.407027,9.543579,0.011797,0.01666,0.432224,8.1,-15.6,-19.44,203.9795,5.2438,0.4163,8831
0.399844,-0.304073,9.560339,0.010575,-0.01816,0.404735,8.1,-15.84,-19.26,203.9795,5.2438,0.4163,8840
0.399844,-0.304073,9.560339,0.010575,-0.01816,0.404735,8.1,-15.84,-19.26,203.9795,5.2438,0.4163,8851
0.387873,-0.29689,9.77343,0.016073,-0.008386,0.378468,9.12,-16.74,-19.98,203.9795,5.2438,0.4163,8860
0.387873,-0.29689,9.77343,0.016073,-0.008386,0.378468,9.12,-16.74,-19.98,203.9795,5.2438,0.4163,8871
0.421392,-0.294496,9.450203,0.005078,-0.022436,0.352812,8.7,-16.92,-19.26,205.3537,5.1854,0.4837,8881
0.603357,-0.474066,9.507666,-0.015081,-0.022436,0.32288,8.82,-16.8,-18.84,205.3537,5.1854,0.4837,8891
0.603357,-0.474066,9.507666,-0.015081,-0.022436,0.32288,8.82,-16.8,-18.84,205.3537,5.1854,0.4837,8901
0.691945,-0.641666,9.869201,-0.01447,-0.012051,0.288671,8.58,-16.08,-19.38,205.3537,5.1854,0.4837,8911
0.691945,-0.641666,9.869201,-0.01447,-0.012051,0.288671,8.58,-16.08,-19.38,205.3537,5.1854,0.4837,8921
0.553077,-0.706311,10.067925,0.016073,-0.001056,0.258128,7.62,-15.54,-19.5,203.9257,5.1706,0.5044,8930
0.517163,-0.555472,9.684841,0.038675,0.005053,0.237969,7.32,-15.78,-19.5,203.9257,5.1706,0.5044,8941
0.517163,-0.555472,9.684841,0.038675,0.005053,0.237969,7.32,-15.78,-19.5,203.9257,5.1706,0.5044,8951
0.371113,-0.311256,9.356826,0.024625,0.006275,0.214756,7.32,-16.74,-19.26,203.9257,5.1706,0.5044,8960
0.371113,-0.311256,9.356826,0.024625,0.006275,0.214756,7.32,-16.74,-19.26,203.9257,5.1706,0.5044,8971
0.239427,-0.193936,9.478934,-0.002253,-0.006553,0.201317,8.04,-16.98,-19.32,202.7642,5.0988,0.5512,8980
0.239427,-0.193936,9.478934,-0.002253,-0.006553,0.201317,8.04,-16.98,-19.32,202.7642,5.0988,0.5512,8992
0.191542,-0.24661,9.720756,-0.012027,-0.005332,0.190933,7.92,-16.62,-19.38,202.7642,5.0988,0.5512,9000
0.328016,-0.433364,9.634562,-0.004085,-0.012051,0.177494,7.5,-16.56,-19.92,202.7642,5.0988,0.5512,9011
0.328016,-0.433364,9.634562,-0.004085,-0.012051,0.177494,7.5,-16.56,-19.92,202.7642,5.0988,0.5512,9020
0.433364,-0.529135,9.62259,-0.002253,-0.019992,0.158557,7.5,-16.56,-19.92,202.7642,5.0988,0.5512,9030
0.591386,-0.61054,9.747093,-0.00714,-0.016938,0.131068,7.5,-17.16,-19.14,202.7488,5.0798,0.5758,9041
0.591386,-0.61054,9.747093,-0.00714,-0.016938,0.131068,7.5,-17.16,-19.14,202.7488,5.0798,0.5758,9050
0.56026,-0.562655,9.900327,0.00691,0.000777,0.10419,7.32,-17.16,-18.72,202.7488,5.0798,0.5758,9060
0.56026,-0.562655,9.900327,0.00691,0.000777,0.10419,7.32,-17.16,-18.72,202.7488,5.0798,0.5758,9071
0.459701,-0.490826,9.658504,0.014851,0.012383,0.078533,7.86,-16.74,-19.92,202.6453,5.0757,0.5564,9081
0.301679,-0.34717,9.543579,0.013019,0.009329,0.060818,8.58,-16.56,-19.26,202.6453,5.0757,0.5564,9090
0.301679,-0.34717,9.543579,0.013019,0.009329,0.060818,8.58,-16.56,-19.26,202.6453,5.0757,0.5564,9101
0.251399,-0.304073,9.660899,0.003856,-0.00411,0.042492,8.4,-15.96,-18.78,202.6453,5.0757,0.5564,9110
0.251399,-0.304073,9.660899,0.003856,-0.00411,0.042492,8.4,-15.96,-18.78,202.6453,5.0757,0.5564,9120
0.328016,-0.339987,9.696813,0.001412,-0.007775,0.028442,7.92,-15.96,-18.36,204.0427,5.0293,0.5794,9130
0.328016,-0.339987,9.696813,0.001412,-0.007775,0.028442,7.92,-15.96,-18.36,204.0427,5.0293,0.5794,9141
0.445335,-0.457306,9.603436,-0.002253,-0.00411,0.013782,7.32,-16.38,-19.32,204.0427,5.0293,0.5794,9151
0.399844,-0.462095,9.61062,-0.00714,0.006275,-0.002712,7.14,-17.1,-19.68,204.0427,5.0293,0.5794,9160
0.399844,-0.462095,9.61062,-0.00714,0.006275,-0.002712,7.14,-17.1,-19.68,204.0427,5.0293,0.5794,9170
0.428575,-0.430969,9.684841,-0.008362,-0.003499,-0.024092,7.5,-17.4,-19.32,202.7845,5.0123,0.5612,9181
0.428575,-0.430969,9.684841,-0.008362,-0.003499,-0.024092,7.5,-17.4,-19.32,202.7845,5.0123,0.5612,9191
0.407027,-0.430969,9.766247,-0.001031,-0.000445,-0.041807,7.26,-16.86,-19.2,202.7845,5.0123,0.5612,9200
0.356747,-0.474066,9.646533,0.003856,0.00322,-0.050359,7.32,-16.5,-19.5,201.1737,5.0157,0.5434,9211
0.356747,-0.474066,9.646533,0.003856,0.00322,-0.050359,7.32,-16.5,-19.5,201.1737,5.0157,0.5434,9220
0.268159,-0.567443,9.660899,-0.00042,0.014216,-0.061355,7.62,-16.68,-19.62,201.1737,5.0157,0.5434,9231
0.268159,-0.567443,9.660899,-0.00042,0.014216,-0.061355,7.62,-16.68,-19.62,201.1737,5.0157,0.5434,9240
0.227456,-0.548289,9.775824,0.002634,0.006886,-0.068074,7.8,-17.22,-19.38,201.1737,5.0157,0.5434,9251
0.217879,-0.452518,9.766247,0.01424,0.001388,-0.077237,8.04,-16.92,-19.5,202.8089,5.004,0.5367,9260
0.217879,-0.452518,9.766247,0.01424,0.001388,-0.077237,8.04,-16.92,-19.5,202.8089,5.004,0.5367,9270
0.277736,-0.39745,9.488511,0.008132,0.004442,-0.081513,8.28,-16.86,-19.38,202.8089,5.004,0.5367,9281
0.277736,-0.39745,9.488511,0.008132,0.004442,-0.081513,8.28,-16.86,-19.38,202.8089,5.004,0.5367,9290
0.282524,-0.354353,9.531608,-0.004696,-0.000445,-0.089454,8.28,-17.28,-19.56,202.7112,4.9732,0.5243,9300
0.256187,-0.390267,9.780613,-0.002253,0.007497,-0.095563,7.8,-16.98,-19.5,202.7112,4.9732,0.5243,9310
0.256187,-0.390267,9.780613,-0.002253,0.007497,-0.095563,7.8,-16.98,-19.5,202.7112,4.9732,0.5243,9320
0.179571,-0.404632,9.680053,0.001412,0.009329,-0.099839,7.74,-16.86,-19.14,202.7112,4.9732,0.5243,9330
0.105348,-0.483643,9.555551,-0.005307,0.005664,-0.099228,7.44,-16.32,-19.38,201.2246,4.9679,0.507,9341
0.105348,-0.483643,9.555551,-0.005307,0.005664,-0.099228,7.44,-16.32,-19.38,201.2246,4.9679,0.507,9351
0.105348,-0.483643,9.555551,-0.005307,0.005664,-0.099228,7.44,-16.32,-19.38,201.2246,4.9679,0.507,9360
0.057463,-0.512375,9.751882,-0.00714,0.001999,-0.089454,7.44,-15.96,-19.14,201.2246,4.9679,0.507,9371
0.043097,-0.521952,9.754275,0.001412,0.008107,-0.076626,7.8,-16.8,-19.02,203.097,4.7339,0.3145,9381
0.043097,-0.521952,9.754275,0.001412,0.008107,-0.076626,7.8,-16.8,-19.02,203.097,4.7339,0.3145,9390
-0.011971,-0.529135,9.703996,0.008132,0.00994,-0.055857,7.86,-17.04,-19.32,203.097,4.7339,0.3145,9400
-0.043097,-0.483643,9.684841,0.007521,0.004442,-0.045472,7.56,-16.98,-19.5,203.097,4.7339,0.3145,9411
-0.043097,-0.483643,9.684841,0.007521,0.004442,-0.045472,7.56,-16.98,-19.5,203.097,4.7339,0.3145,9420
-0.014366,-0.450124,9.660899,0.005688,0.001388,-0.028979,7.62,-16.68,-19.98,203.7236,3.9494,-0.1656,9432
-0.014366,-0.450124,9.660899,0.005688,0.001388,-0.028979,7.62,-16.68,-19.98,203.7236,3.9494,-0.1656,9440
0.057463,-0.392661,9.586677,0.000191,-0.002888,-0.018594,7.92,-16.44,-19.44,203.7236,3.9494,-0.1656,9451
0.069434,-0.387873,9.672871,-0.001642,0.000166,-0.005766,7.92,-16.38,-19.44,205.2263,3.5619,-0.2372,9461
0.069434,-0.387873,9.672871,-0.001642,0.000166,-0.005766,7.92,-16.38,-19.44,205.2263,3.5619,-0.2372,9470
0.086194,-0.421392,9.665688,-0.00042,0.00322,0.008895,7.68,-16.2,-19.14,205.2263,3.5619,-0.2372,9480
0.052674,-0.490826,9.680053,-0.00714,0.005053,0.01989,7.32,-16.8,-19.5,205.2263,3.5619,-0.2372,9490
0.052674,-0.490826,9.680053,-0.00714,0.005053,0.01989,7.32,-16.8,-19.5,205.2263,3.5619,-0.2372,9500
0.0838,-0.521952,9.713573,0.000191,-0.009608,0.027221,7.8,-16.92,-19.62,204.0158,3.3992,-0.254,9511
0.0838,-0.521952,9.713573,0.000191,-0.009608,0.027221,7.8,-16.92,-19.62,204.0158,3.3992,-0.254,9520
0.071828,-0.519558,9.766247,0.006299,0.001999,0.036995,7.92,-16.44,-19.62,204.0158,3.3992,-0.254,9531
0.071828,-0.519558,9.766247,0.006299,0.001999,0.036995,7.92,-16.44,-19.62,204.0158,3.3992,-0.254,9541
0.069434,-0.430969,9.579494,0.007521,-0.002277,0.045547,7.44,-16.44,-20.1,202.456,3.3962,-0.259,9551
0.114925,-0.378295,9.58907,-0.001031,-0.001666,0.051655,7.68,-16.74,-20.28,202.456,3.3962,-0.259,9561
0.114925,-0.378295,9.58907,-0.001031,-0.001666,0.051655,7.68,-16.74,-20.28,202.456,3.3962,-0.259,9570
0.155628,-0.423787,9.658504,-0.004085,-0.006553,0.056542,8.58,-17.4,-20.46,202.456,3.3962,-0.259,9580
0.155628,-0.423787,9.658504,-0.004085,-0.006553,0.056542,8.58,-17.4,-20.46,202.456,3.3962,-0.259,9590
0.203513,-0.517163,9.703996,-0.001031,-0.005942,0.058375,8.64,-17.4,-20.94,206.532,3.3875,-0.2493,9601
0.191542,-0.569837,9.715967,0.003856,0.003831,0.061429,7.86,-17.22,-20.58,206.532,3.3875,-0.2493,9611
0.191542,-0.569837,9.715967,0.003856,0.003831,0.061429,7.86,-17.22,-20.58,206.532,3.3875,-0.2493,9621
0.150839,-0.507586,9.720756,0.008743,0.00261,0.063873,7.74,-17.16,-19.92,206.532,3.3875,-0.2493,9631
0.150839,-0.507586,9.720756,0.008743,0.00261,0.063873,7.74,-17.16,-19.92,206.532,3.3875,-0.2493,9640
0.110137,-0.416604,9.629773,0.011186,-0.001056,0.068149,8.1,-17.16,-20.34,204.1585,3.2893,-0.3618,9650
0.150839,-0.366324,9.584282,0.000801,-0.009608,0.066316,8.16,-17.34,-19.86,204.1585,3.2893,-0.3618,9660
0.150839,-0.366324,9.584282,0.000801,-0.009608,0.066316,8.16,-17.34,-19.86,204.1585,3.2893,-0.3618,9670
0.169994,-0.38069,9.636956,-0.003475,-0.008386,0.072425,8.52,-17.46,-19.38,204.1585,3.2893,-0.3618,9680
0.169994,-0.38069,9.636956,-0.003475,-0.008386,0.072425,8.52,-17.46,-19.38,204.1585,3.2893,-0.3618,9691
0.160416,-0.440547,9.694419,-0.00042,0.001999,0.076701,7.92,-17.04,-19.14,204.4649,3.065,-0.5561,9701
0.141262,-0.447729,9.63935,-0.001031,0.004442,0.074868,7.68,-16.74,-18.9,204.4649,3.065,-0.5561,9710
0.141262,-0.447729,9.63935,-0.001031,0.004442,0.074868,7.68,-16.74,-18.9,204.4649,3.065,-0.5561,9720
0.155628,-0.39745,9.4095,-0.023633,0.014827,0.074868,7.98,-16.8,-19.92,204.4649,3.065,-0.5561,9730
0.155628,-0.39745,9.4095,-0.051733,0.008107,0.072425,7.98,-16.8,-19.92,204.4649,3.065,-0.5561,9740
0.234639,-0.395055,9.466963,-0.052955,0.000166,0.06937,7.8,-16.92,-20.22,204.6242,2.8758,-0.6885,9750
0.227456,-0.500403,10.278622,-0.019357,-0.009608,0.06937,7.86,-16.5,-19.86,204.6242,2.8758,-0.6885,9761
0.227456,-0.500403,10.278622,-0.019357,-0.009608,0.06937,7.86,-16.5,-19.86,204.6242,2.8758,-0.6885,9770
0.205908,-0.57702,10.089474,0.038675,0.011162,0.067538,8.52,-17.1,-19.5,204.6242,2.8758,-0.6885,9780
0.205908,-0.57702,10.089474,0.038675,0.011162,0.067538,8.52,-17.1,-19.5,204.6242,2.8758,-0.6885,9790
0.162811,-0.493221,9.126976,0.023403,-0.004721,0.063262,8.46,-17.22,-19.38,204.8042,2.827,-0.8392,9800
0.131685,-0.454912,9.208381,-0.037072,0.009329,0.06876,8.94,-17.22,-19.5,204.8042,2.827,-0.8392,9811
0.131685,-0.454912,9.208381,-0.037072,0.009329,0.06876,8.94,-17.22,-19.5,204.8042,2.827,-0.8392,9820
0.220273,-0.459701,10.144543,-0.040127,-0.01816,0.066927,9.06,-17.28,-19.5,204.8042,2.827,-0.8392,9831
0.220273,-0.459701,10.144543,-0.040127,-0.01816,0.066927,9.06,-17.28,-19.5,204.8042,2.827,-0.8392,9841
0.282524,-0.469278,10.075109,0.013019,0.009329,0.058986,8.76,-17.04,-19.74,207.4237,2.8369,-0.9198,9850
0.31365,-0.464489,9.390346,0.02829,-0.005332,0.045547,8.76,-16.68,-20.34,207.4237,2.8369,-0.9198,9860
0.31365,-0.464489,9.390346,0.02829,-0.005332,0.045547,8.76,-16.68,-20.34,207.4237,2.8369,-0.9198,9871
0.287313,-0.483643,9.512454,-0.008362,-0.002888,0.034551,8.58,-16.62,-20.16,207.4237,2.8369,-0.9198,9881
0.275342,-0.466884,9.850046,-0.024244,-0.004721,0.029053,8.82,-16.5,-19.56,208.9448,2.7863,-1.0686,9891
0.275342,-0.466884,9.850046,-0.001642,-0.007775,0.025999,8.82,-16.5,-19.56,208.9448,2.7863,-1.0686,9900
0.208302,-0.445335,9.90272,0.017906,0.014827,0.027832,8.88,-16.56,-19.32,208.9448,2.7863,-1.0686,9911
0.208302,-0.445335,9.90272,0.017906,0.014827,0.027832,8.88,-16.56,-19.32,208.9448,2.7863,-1.0686,9920
0.093377,-0.447729,9.505271,0.017906,0.012994,0.025999,8.58,-16.2,-19.2,208.9448,2.7863,-1.0686,9930
0.148445,-0.462095,9.500483,-0.00714,-0.017549,0.023556,8.04,-15.9,-19.62,206.4314,2.7856,-1.2169,9941
0.148445,-0.462095,9.500483,-0.00714,-0.017549,0.023556,8.04,-15.9,-19.62,206.4314,2.7856,-1.2169,9950
0.282524,-0.481249,9.79019,-0.016914,-0.008386,0.024166,8.28,-15.78,-19.86,206.4314,2.7856,-1.2169,9960
0.282524,-0.481249,9.79019,-0.016914,-0.008386,0.024166,8.28,-15.78,-19.86,206.4314,2.7856,-1.2169,9970
0.328016,-0.486038,9.859624,-0.001031,-0.007775,0.013171,8.16,-16.62,-19.5,206.4314,2.7856,-1.2169,9980
0.328016,-0.486038,9.859624,-0.001031,-0.007775,0.013171,8.16,-16.62,-19.5,206.4314,2.7856,-1.2169,9991
0.260976,-0.450124,9.553157,0.01363,0.015438,0.008895,8.46,-17.16,-19.44,205.1798,2.7705,-1.244,10000
0.138868,-0.464489,9.454991,-0.001642,0.009329,0.007673,8.46,-16.8,-19.2,205.1798,2.7705,-1.244,10010
0.138868,-0.464489,9.454991,-0.001642,0.009329,0.007673,8.46,-16.8,-19.2,205.1798,2.7705,-1.244,10020
0.05028,-0.464489,9.794978,-0.01447,0.005053,0.008284,8.64,-16.56,-18.78,205.1798,2.7705,-1.244,10030
0.134079,-0.459701,9.763853,-0.004085,-0.006553,0.013171,8.34,-16.5,-19.02,206.5174,2.7543,-1.2887,10040
0.134079,-0.459701,9.763853,-0.004085,-0.006553,0.013171,8.34,-16.5,-19.02,206.5174,2.7543,-1.2887,10050
0.220273,-0.478855,9.653716,0.006299,-0.008386,0.010117,8.52,-16.62,-19.08,206.5174,2.7543,-1.2887,10061
0.220273,-0.478855,9.653716,0.006299,-0.008386,0.010117,8.52,-16.62,-19.08,206.5174,2.7543,-1.2887,10070
0.222668,-0.354353,7.187613,-0.072502,-0.207528,-0.000268,8.7,-16.86,-19.38,207.7305,2.7577,-1.2184,10081
0.222668,-0.354353,7.187613,-0.072502,-0.207528,-0.000268,8.7,-16.86,-19.38,207.7305,2.7577,-1.2184,10090
0.438152,-0.531529,9.483723,-0.569747,-0.546558,-0.01554,8.82,-16.38,-19.8,207.7305,2.7577,-1.2184,10101
0.208302,-0.720677,11.93546,-0.418252,0.180371,0.041271,8.58,-16.02,-19.92,207.7305,2.7577,-1.2184,10110
0.208302,-0.720677,11.93546,-0.418252,0.180371,0.041271,8.58,-16.02,-19.92,207.7305,2.7577,-1.2184,10121
0.215485,-0.739831,11.372806,0.284854,-0.128116,0.014393,8.22,-16.32,-19.86,206.7416,3.4608,-1.8662,10130
0.215485,-0.739831,11.372806,0.284854,-0.128116,0.014393,8.22,-16.32,-19.86,206.7416,3.4608,-1.8662,10140
0.632089,-0.758985,10.932259,0.643432,0.775965,0.036384,7.74,-16.68,-19.14,206.7416,3.4608,-1.8662,10150
-0.119714,-0.306467,6.759038,0.666645,0.171819,0.008895,7.62,-16.5,-18.84,206.7416,3.4608,-1.8662,10160
-0.119714,-0.306467,6.759038,0.666645,0.171819,0.008895,7.62,-16.5,-18.84,206.7416,3.4608,-1.8662,10170
